data_collection_site,instructions_text_top,instructions_text_bottom,block_id,example_image,participant,trial_number,stimulus,trial_type,target_trial,surveillance_correct_response,filler_1_items,filler_2_items,middle_text,left_text,right_text,evaluation_stimulus,left_stimulus,right_stimulus,evaluation_response_indicating_CS1_preferred,awareness_1_question_text,awareness_2a_question_text,awareness_2b_question_text,awareness_2_question_text,record_data_collection_site_variable.thisRepN,record_data_collection_site_variable.thisTrialN,record_data_collection_site_variable.thisN,record_data_collection_site_variable.thisIndex,surveillance_instructions_loop.thisRepN,surveillance_instructions_loop.thisTrialN,surveillance_instructions_loop.thisN,surveillance_instructions_loop.thisIndex,surveillance_blocks_loop.thisRepN,surveillance_blocks_loop.thisTrialN,surveillance_blocks_loop.thisN,surveillance_blocks_loop.thisIndex,surveillance_trials_loop.thisRepN,surveillance_trials_loop.thisTrialN,surveillance_trials_loop.thisN,surveillance_trials_loop.thisIndex,filler_1_instructions_loop.thisRepN,filler_1_instructions_loop.thisTrialN,filler_1_instructions_loop.thisN,filler_1_instructions_loop.thisIndex,filler_1_loop.thisRepN,filler_1_loop.thisTrialN,filler_1_loop.thisN,filler_1_loop.thisIndex,filler_2_instructions_loop.thisRepN,filler_2_instructions_loop.thisTrialN,filler_2_instructions_loop.thisN,filler_2_instructions_loop.thisIndex,filler_2_loop.thisRepN,filler_2_loop.thisTrialN,filler_2_loop.thisN,filler_2_loop.thisIndex,evaluation_instructions_loop.thisRepN,evaluation_instructions_loop.thisTrialN,evaluation_instructions_loop.thisN,evaluation_instructions_loop.thisIndex,evaluation_loop.thisRepN,evaluation_loop.thisTrialN,evaluation_loop.thisN,evaluation_loop.thisIndex,evaluation_trials.thisRepN,evaluation_trials.thisTrialN,evaluation_trials.thisN,evaluation_trials.thisIndex,awareness_instructions_loop.thisRepN,awareness_instructions_loop.thisTrialN,awareness_instructions_loop.thisN,awareness_instructions_loop.thisIndex,awareness_1_trials_loop.thisRepN,awareness_1_trials_loop.thisTrialN,awareness_1_trials_loop.thisN,awareness_1_trials_loop.thisIndex,awareness_2a_trials_loop.thisRepN,awareness_2a_trials_loop.thisTrialN,awareness_2a_trials_loop.thisN,awareness_2a_trials_loop.thisIndex,awareness_2b_trials_loop.thisRepN,awareness_2b_trials_loop.thisTrialN,awareness_2b_trials_loop.thisN,awareness_2b_trials_loop.thisIndex,awareness_2c_trials_loop.thisRepN,awareness_2c_trials_loop.thisTrialN,awareness_2c_trials_loop.thisN,awareness_2c_trials_loop.thisIndex,end_message_loop.thisRepN,end_message_loop.thisTrialN,end_message_loop.thisN,end_message_loop.thisIndex,condition,surveillance_response.keys,surveillance_response.corr,surveillance_response.rt,filler_1_rating.response,filler_1_rating.rt,filler_2_rating.response,filler_2_rating.rt,evaluation_response.keys,evaluation_response.corr,evaluation_response.rt,inputText,awareness_1_response.keys,awareness_1_response.rt,awareness_type_2a_rating.response,awareness_type_2a_rating.rt,awareness_type_2b_rating.response,awareness_type_2b_rating.rt,awareness_type_2c_rating.response,awareness_type_2c_rating.rt,age,gender,participant,UseMonkey,date,expName,psychopyVersion,frameRate,
Stahl Bading Aust Heycke and Thomasius,Das Zielwesen für diese Aufgabe ist Shelmet:,"Also sobald Shelmet (sein Name oder sein Bild) auf dem Bildschirm erscheint, drücken Sie so schnell wie möglich die Leertaste. Drücken Sie die Leertaste immer, wenn Sie ein Bild von Shelmet oder das Wort SHELMET sehen. 

Drücken Sie die Leertaste, um die Aufgabe zu starten.",target2,stimuli/t2.jpg,12,1,stimuli/filler34.jpg,filler,False,None,,,,,,,,,,,,,,0,0,0,0,,,,,0,0,0,1,0,0,0,0,,,,,,,,,,,,,,,,,,,,,,,,,,,,,,,,,,,,,,,,,,,,,,,,,,,,,CS1_USneg,None,1,,,,,,,,,,,,,,,,,,22,f,12,n,2019_Nov_14_1517,ec_RRR,3.0.4,84.99059149956297,
Stahl Bading Aust Heycke and Thomasius,Das Zielwesen für diese Aufgabe ist Shelmet:,"Also sobald Shelmet (sein Name oder sein Bild) auf dem Bildschirm erscheint, drücken Sie so schnell wie möglich die Leertaste. Drücken Sie die Leertaste immer, wenn Sie ein Bild von Shelmet oder das Wort SHELMET sehen. 

Drücken Sie die Leertaste, um die Aufgabe zu starten.",target2,stimuli/t2.jpg,12,2,stimuli/filler9.jpg,filler,False,None,,,,,,,,,,,,,,0,0,0,0,,,,,0,0,0,1,0,1,1,1,,,,,,,,,,,,,,,,,,,,,,,,,,,,,,,,,,,,,,,,,,,,,,,,,,,,,CS1_USneg,None,1,,,,,,,,,,,,,,,,,,22,f,12,n,2019_Nov_14_1517,ec_RRR,3.0.4,84.99059149956297,
Stahl Bading Aust Heycke and Thomasius,Das Zielwesen für diese Aufgabe ist Shelmet:,"Also sobald Shelmet (sein Name oder sein Bild) auf dem Bildschirm erscheint, drücken Sie so schnell wie möglich die Leertaste. Drücken Sie die Leertaste immer, wenn Sie ein Bild von Shelmet oder das Wort SHELMET sehen. 

Drücken Sie die Leertaste, um die Aufgabe zu starten.",target2,stimuli/t2.jpg,12,3,stimuli/filler27.jpg,filler,False,None,,,,,,,,,,,,,,0,0,0,0,,,,,0,0,0,1,0,2,2,2,,,,,,,,,,,,,,,,,,,,,,,,,,,,,,,,,,,,,,,,,,,,,,,,,,,,,CS1_USneg,None,1,,,,,,,,,,,,,,,,,,22,f,12,n,2019_Nov_14_1517,ec_RRR,3.0.4,84.99059149956297,
Stahl Bading Aust Heycke and Thomasius,Das Zielwesen für diese Aufgabe ist Shelmet:,"Also sobald Shelmet (sein Name oder sein Bild) auf dem Bildschirm erscheint, drücken Sie so schnell wie möglich die Leertaste. Drücken Sie die Leertaste immer, wenn Sie ein Bild von Shelmet oder das Wort SHELMET sehen. 

Drücken Sie die Leertaste, um die Aufgabe zu starten.",target2,stimuli/t2.jpg,12,4,stimuli/filler28.jpg,filler,False,None,,,,,,,,,,,,,,0,0,0,0,,,,,0,0,0,1,0,3,3,3,,,,,,,,,,,,,,,,,,,,,,,,,,,,,,,,,,,,,,,,,,,,,,,,,,,,,CS1_USneg,None,1,,,,,,,,,,,,,,,,,,22,f,12,n,2019_Nov_14_1517,ec_RRR,3.0.4,84.99059149956297,
Stahl Bading Aust Heycke and Thomasius,Das Zielwesen für diese Aufgabe ist Shelmet:,"Also sobald Shelmet (sein Name oder sein Bild) auf dem Bildschirm erscheint, drücken Sie so schnell wie möglich die Leertaste. Drücken Sie die Leertaste immer, wenn Sie ein Bild von Shelmet oder das Wort SHELMET sehen. 

Drücken Sie die Leertaste, um die Aufgabe zu starten.",target2,stimuli/t2.jpg,12,5,stimuli/filler22.jpg,filler,False,None,,,,,,,,,,,,,,0,0,0,0,,,,,0,0,0,1,0,4,4,4,,,,,,,,,,,,,,,,,,,,,,,,,,,,,,,,,,,,,,,,,,,,,,,,,,,,,CS1_USneg,None,1,,,,,,,,,,,,,,,,,,22,f,12,n,2019_Nov_14_1517,ec_RRR,3.0.4,84.99059149956297,
Stahl Bading Aust Heycke and Thomasius,Das Zielwesen für diese Aufgabe ist Shelmet:,"Also sobald Shelmet (sein Name oder sein Bild) auf dem Bildschirm erscheint, drücken Sie so schnell wie möglich die Leertaste. Drücken Sie die Leertaste immer, wenn Sie ein Bild von Shelmet oder das Wort SHELMET sehen. 

Drücken Sie die Leertaste, um die Aufgabe zu starten.",target2,stimuli/t2.jpg,12,6,stimuli/filler1.jpg,filler,False,None,,,,,,,,,,,,,,0,0,0,0,,,,,0,0,0,1,0,5,5,5,,,,,,,,,,,,,,,,,,,,,,,,,,,,,,,,,,,,,,,,,,,,,,,,,,,,,CS1_USneg,None,1,,,,,,,,,,,,,,,,,,22,f,12,n,2019_Nov_14_1517,ec_RRR,3.0.4,84.99059149956297,
Stahl Bading Aust Heycke and Thomasius,Das Zielwesen für diese Aufgabe ist Shelmet:,"Also sobald Shelmet (sein Name oder sein Bild) auf dem Bildschirm erscheint, drücken Sie so schnell wie möglich die Leertaste. Drücken Sie die Leertaste immer, wenn Sie ein Bild von Shelmet oder das Wort SHELMET sehen. 

Drücken Sie die Leertaste, um die Aufgabe zu starten.",target2,stimuli/t2.jpg,12,7,stimuli/filler44.jpg,filler,False,None,,,,,,,,,,,,,,0,0,0,0,,,,,0,0,0,1,0,6,6,6,,,,,,,,,,,,,,,,,,,,,,,,,,,,,,,,,,,,,,,,,,,,,,,,,,,,,CS1_USneg,None,1,,,,,,,,,,,,,,,,,,22,f,12,n,2019_Nov_14_1517,ec_RRR,3.0.4,84.99059149956297,
Stahl Bading Aust Heycke and Thomasius,Das Zielwesen für diese Aufgabe ist Shelmet:,"Also sobald Shelmet (sein Name oder sein Bild) auf dem Bildschirm erscheint, drücken Sie so schnell wie möglich die Leertaste. Drücken Sie die Leertaste immer, wenn Sie ein Bild von Shelmet oder das Wort SHELMET sehen. 

Drücken Sie die Leertaste, um die Aufgabe zu starten.",target2,stimuli/t2.jpg,12,8,stimuli/filler11.jpg,filler,False,None,,,,,,,,,,,,,,0,0,0,0,,,,,0,0,0,1,0,7,7,7,,,,,,,,,,,,,,,,,,,,,,,,,,,,,,,,,,,,,,,,,,,,,,,,,,,,,CS1_USneg,None,1,,,,,,,,,,,,,,,,,,22,f,12,n,2019_Nov_14_1517,ec_RRR,3.0.4,84.99059149956297,
Stahl Bading Aust Heycke and Thomasius,Das Zielwesen für diese Aufgabe ist Shelmet:,"Also sobald Shelmet (sein Name oder sein Bild) auf dem Bildschirm erscheint, drücken Sie so schnell wie möglich die Leertaste. Drücken Sie die Leertaste immer, wenn Sie ein Bild von Shelmet oder das Wort SHELMET sehen. 

Drücken Sie die Leertaste, um die Aufgabe zu starten.",target2,stimuli/t2.jpg,12,9,stimuli/filler17.jpg,filler,False,None,,,,,,,,,,,,,,0,0,0,0,,,,,0,0,0,1,0,8,8,8,,,,,,,,,,,,,,,,,,,,,,,,,,,,,,,,,,,,,,,,,,,,,,,,,,,,,CS1_USneg,None,1,,,,,,,,,,,,,,,,,,22,f,12,n,2019_Nov_14_1517,ec_RRR,3.0.4,84.99059149956297,
Stahl Bading Aust Heycke and Thomasius,Das Zielwesen für diese Aufgabe ist Shelmet:,"Also sobald Shelmet (sein Name oder sein Bild) auf dem Bildschirm erscheint, drücken Sie so schnell wie möglich die Leertaste. Drücken Sie die Leertaste immer, wenn Sie ein Bild von Shelmet oder das Wort SHELMET sehen. 

Drücken Sie die Leertaste, um die Aufgabe zu starten.",target2,stimuli/t2.jpg,12,10,stimuli/blank.jpg,blank,False,None,,,,,,,,,,,,,,0,0,0,0,,,,,0,0,0,1,0,9,9,9,,,,,,,,,,,,,,,,,,,,,,,,,,,,,,,,,,,,,,,,,,,,,,,,,,,,,CS1_USneg,None,1,,,,,,,,,,,,,,,,,,22,f,12,n,2019_Nov_14_1517,ec_RRR,3.0.4,84.99059149956297,
Stahl Bading Aust Heycke and Thomasius,Das Zielwesen für diese Aufgabe ist Shelmet:,"Also sobald Shelmet (sein Name oder sein Bild) auf dem Bildschirm erscheint, drücken Sie so schnell wie möglich die Leertaste. Drücken Sie die Leertaste immer, wenn Sie ein Bild von Shelmet oder das Wort SHELMET sehen. 

Drücken Sie die Leertaste, um die Aufgabe zu starten.",target2,stimuli/t2.jpg,12,11,stimuli/cs1_neg7.jpg,CSUS,False,None,,,,,,,,,,,,,,0,0,0,0,,,,,0,0,0,1,0,10,10,10,,,,,,,,,,,,,,,,,,,,,,,,,,,,,,,,,,,,,,,,,,,,,,,,,,,,,CS1_USneg,None,1,,,,,,,,,,,,,,,,,,22,f,12,n,2019_Nov_14_1517,ec_RRR,3.0.4,84.99059149956297,
Stahl Bading Aust Heycke and Thomasius,Das Zielwesen für diese Aufgabe ist Shelmet:,"Also sobald Shelmet (sein Name oder sein Bild) auf dem Bildschirm erscheint, drücken Sie so schnell wie möglich die Leertaste. Drücken Sie die Leertaste immer, wenn Sie ein Bild von Shelmet oder das Wort SHELMET sehen. 

Drücken Sie die Leertaste, um die Aufgabe zu starten.",target2,stimuli/t2.jpg,12,12,stimuli/blank.jpg,blank,False,None,,,,,,,,,,,,,,0,0,0,0,,,,,0,0,0,1,0,11,11,11,,,,,,,,,,,,,,,,,,,,,,,,,,,,,,,,,,,,,,,,,,,,,,,,,,,,,CS1_USneg,None,1,,,,,,,,,,,,,,,,,,22,f,12,n,2019_Nov_14_1517,ec_RRR,3.0.4,84.99059149956297,
Stahl Bading Aust Heycke and Thomasius,Das Zielwesen für diese Aufgabe ist Shelmet:,"Also sobald Shelmet (sein Name oder sein Bild) auf dem Bildschirm erscheint, drücken Sie so schnell wie möglich die Leertaste. Drücken Sie die Leertaste immer, wenn Sie ein Bild von Shelmet oder das Wort SHELMET sehen. 

Drücken Sie die Leertaste, um die Aufgabe zu starten.",target2,stimuli/t2.jpg,12,13,stimuli/filler43.jpg,filler,False,None,,,,,,,,,,,,,,0,0,0,0,,,,,0,0,0,1,0,12,12,12,,,,,,,,,,,,,,,,,,,,,,,,,,,,,,,,,,,,,,,,,,,,,,,,,,,,,CS1_USneg,None,1,,,,,,,,,,,,,,,,,,22,f,12,n,2019_Nov_14_1517,ec_RRR,3.0.4,84.99059149956297,
Stahl Bading Aust Heycke and Thomasius,Das Zielwesen für diese Aufgabe ist Shelmet:,"Also sobald Shelmet (sein Name oder sein Bild) auf dem Bildschirm erscheint, drücken Sie so schnell wie möglich die Leertaste. Drücken Sie die Leertaste immer, wenn Sie ein Bild von Shelmet oder das Wort SHELMET sehen. 

Drücken Sie die Leertaste, um die Aufgabe zu starten.",target2,stimuli/t2.jpg,12,14,stimuli/filler47.jpg,filler,False,None,,,,,,,,,,,,,,0,0,0,0,,,,,0,0,0,1,0,13,13,13,,,,,,,,,,,,,,,,,,,,,,,,,,,,,,,,,,,,,,,,,,,,,,,,,,,,,CS1_USneg,None,1,,,,,,,,,,,,,,,,,,22,f,12,n,2019_Nov_14_1517,ec_RRR,3.0.4,84.99059149956297,
Stahl Bading Aust Heycke and Thomasius,Das Zielwesen für diese Aufgabe ist Shelmet:,"Also sobald Shelmet (sein Name oder sein Bild) auf dem Bildschirm erscheint, drücken Sie so schnell wie möglich die Leertaste. Drücken Sie die Leertaste immer, wenn Sie ein Bild von Shelmet oder das Wort SHELMET sehen. 

Drücken Sie die Leertaste, um die Aufgabe zu starten.",target2,stimuli/t2.jpg,12,15,stimuli/filler52.jpg,filler,False,None,,,,,,,,,,,,,,0,0,0,0,,,,,0,0,0,1,0,14,14,14,,,,,,,,,,,,,,,,,,,,,,,,,,,,,,,,,,,,,,,,,,,,,,,,,,,,,CS1_USneg,None,1,,,,,,,,,,,,,,,,,,22,f,12,n,2019_Nov_14_1517,ec_RRR,3.0.4,84.99059149956297,
Stahl Bading Aust Heycke and Thomasius,Das Zielwesen für diese Aufgabe ist Shelmet:,"Also sobald Shelmet (sein Name oder sein Bild) auf dem Bildschirm erscheint, drücken Sie so schnell wie möglich die Leertaste. Drücken Sie die Leertaste immer, wenn Sie ein Bild von Shelmet oder das Wort SHELMET sehen. 

Drücken Sie die Leertaste, um die Aufgabe zu starten.",target2,stimuli/t2.jpg,12,16,stimuli/filler26.jpg,filler,False,None,,,,,,,,,,,,,,0,0,0,0,,,,,0,0,0,1,0,15,15,15,,,,,,,,,,,,,,,,,,,,,,,,,,,,,,,,,,,,,,,,,,,,,,,,,,,,,CS1_USneg,None,1,,,,,,,,,,,,,,,,,,22,f,12,n,2019_Nov_14_1517,ec_RRR,3.0.4,84.99059149956297,
Stahl Bading Aust Heycke and Thomasius,Das Zielwesen für diese Aufgabe ist Shelmet:,"Also sobald Shelmet (sein Name oder sein Bild) auf dem Bildschirm erscheint, drücken Sie so schnell wie möglich die Leertaste. Drücken Sie die Leertaste immer, wenn Sie ein Bild von Shelmet oder das Wort SHELMET sehen. 

Drücken Sie die Leertaste, um die Aufgabe zu starten.",target2,stimuli/t2.jpg,12,17,stimuli/filler41.jpg,filler,False,None,,,,,,,,,,,,,,0,0,0,0,,,,,0,0,0,1,0,16,16,16,,,,,,,,,,,,,,,,,,,,,,,,,,,,,,,,,,,,,,,,,,,,,,,,,,,,,CS1_USneg,None,1,,,,,,,,,,,,,,,,,,22,f,12,n,2019_Nov_14_1517,ec_RRR,3.0.4,84.99059149956297,
Stahl Bading Aust Heycke and Thomasius,Das Zielwesen für diese Aufgabe ist Shelmet:,"Also sobald Shelmet (sein Name oder sein Bild) auf dem Bildschirm erscheint, drücken Sie so schnell wie möglich die Leertaste. Drücken Sie die Leertaste immer, wenn Sie ein Bild von Shelmet oder das Wort SHELMET sehen. 

Drücken Sie die Leertaste, um die Aufgabe zu starten.",target2,stimuli/t2.jpg,12,18,stimuli/filler15.jpg,filler,False,None,,,,,,,,,,,,,,0,0,0,0,,,,,0,0,0,1,0,17,17,17,,,,,,,,,,,,,,,,,,,,,,,,,,,,,,,,,,,,,,,,,,,,,,,,,,,,,CS1_USneg,None,1,,,,,,,,,,,,,,,,,,22,f,12,n,2019_Nov_14_1517,ec_RRR,3.0.4,84.99059149956297,
Stahl Bading Aust Heycke and Thomasius,Das Zielwesen für diese Aufgabe ist Shelmet:,"Also sobald Shelmet (sein Name oder sein Bild) auf dem Bildschirm erscheint, drücken Sie so schnell wie möglich die Leertaste. Drücken Sie die Leertaste immer, wenn Sie ein Bild von Shelmet oder das Wort SHELMET sehen. 

Drücken Sie die Leertaste, um die Aufgabe zu starten.",target2,stimuli/t2.jpg,12,19,stimuli/target2_8.jpg,target,True,space,,,,,,,,,,,,,,0,0,0,0,,,,,0,0,0,1,0,18,18,18,,,,,,,,,,,,,,,,,,,,,,,,,,,,,,,,,,,,,,,,,,,,,,,,,,,,,CS1_USneg,space,1,0.6473806296471594,,,,,,,,,,,,,,,,,22,f,12,n,2019_Nov_14_1517,ec_RRR,3.0.4,84.99059149956297,
Stahl Bading Aust Heycke and Thomasius,Das Zielwesen für diese Aufgabe ist Shelmet:,"Also sobald Shelmet (sein Name oder sein Bild) auf dem Bildschirm erscheint, drücken Sie so schnell wie möglich die Leertaste. Drücken Sie die Leertaste immer, wenn Sie ein Bild von Shelmet oder das Wort SHELMET sehen. 

Drücken Sie die Leertaste, um die Aufgabe zu starten.",target2,stimuli/t2.jpg,12,20,stimuli/blank.jpg,blank,False,None,,,,,,,,,,,,,,0,0,0,0,,,,,0,0,0,1,0,19,19,19,,,,,,,,,,,,,,,,,,,,,,,,,,,,,,,,,,,,,,,,,,,,,,,,,,,,,CS1_USneg,None,1,,,,,,,,,,,,,,,,,,22,f,12,n,2019_Nov_14_1517,ec_RRR,3.0.4,84.99059149956297,
Stahl Bading Aust Heycke and Thomasius,Das Zielwesen für diese Aufgabe ist Shelmet:,"Also sobald Shelmet (sein Name oder sein Bild) auf dem Bildschirm erscheint, drücken Sie so schnell wie möglich die Leertaste. Drücken Sie die Leertaste immer, wenn Sie ein Bild von Shelmet oder das Wort SHELMET sehen. 

Drücken Sie die Leertaste, um die Aufgabe zu starten.",target2,stimuli/t2.jpg,12,21,stimuli/cs2_pos2.jpg,CSUS,False,None,,,,,,,,,,,,,,0,0,0,0,,,,,0,0,0,1,0,20,20,20,,,,,,,,,,,,,,,,,,,,,,,,,,,,,,,,,,,,,,,,,,,,,,,,,,,,,CS1_USneg,None,1,,,,,,,,,,,,,,,,,,22,f,12,n,2019_Nov_14_1517,ec_RRR,3.0.4,84.99059149956297,
Stahl Bading Aust Heycke and Thomasius,Das Zielwesen für diese Aufgabe ist Shelmet:,"Also sobald Shelmet (sein Name oder sein Bild) auf dem Bildschirm erscheint, drücken Sie so schnell wie möglich die Leertaste. Drücken Sie die Leertaste immer, wenn Sie ein Bild von Shelmet oder das Wort SHELMET sehen. 

Drücken Sie die Leertaste, um die Aufgabe zu starten.",target2,stimuli/t2.jpg,12,22,stimuli/blank.jpg,blank,False,None,,,,,,,,,,,,,,0,0,0,0,,,,,0,0,0,1,0,21,21,21,,,,,,,,,,,,,,,,,,,,,,,,,,,,,,,,,,,,,,,,,,,,,,,,,,,,,CS1_USneg,None,1,,,,,,,,,,,,,,,,,,22,f,12,n,2019_Nov_14_1517,ec_RRR,3.0.4,84.99059149956297,
Stahl Bading Aust Heycke and Thomasius,Das Zielwesen für diese Aufgabe ist Shelmet:,"Also sobald Shelmet (sein Name oder sein Bild) auf dem Bildschirm erscheint, drücken Sie so schnell wie möglich die Leertaste. Drücken Sie die Leertaste immer, wenn Sie ein Bild von Shelmet oder das Wort SHELMET sehen. 

Drücken Sie die Leertaste, um die Aufgabe zu starten.",target2,stimuli/t2.jpg,12,23,stimuli/target2_2.jpg,target,True,space,,,,,,,,,,,,,,0,0,0,0,,,,,0,0,0,1,0,22,22,22,,,,,,,,,,,,,,,,,,,,,,,,,,,,,,,,,,,,,,,,,,,,,,,,,,,,,CS1_USneg,space,1,0.42384075918198505,,,,,,,,,,,,,,,,,22,f,12,n,2019_Nov_14_1517,ec_RRR,3.0.4,84.99059149956297,
Stahl Bading Aust Heycke and Thomasius,Das Zielwesen für diese Aufgabe ist Shelmet:,"Also sobald Shelmet (sein Name oder sein Bild) auf dem Bildschirm erscheint, drücken Sie so schnell wie möglich die Leertaste. Drücken Sie die Leertaste immer, wenn Sie ein Bild von Shelmet oder das Wort SHELMET sehen. 

Drücken Sie die Leertaste, um die Aufgabe zu starten.",target2,stimuli/t2.jpg,12,24,stimuli/filler48.jpg,filler,False,None,,,,,,,,,,,,,,0,0,0,0,,,,,0,0,0,1,0,23,23,23,,,,,,,,,,,,,,,,,,,,,,,,,,,,,,,,,,,,,,,,,,,,,,,,,,,,,CS1_USneg,None,1,,,,,,,,,,,,,,,,,,22,f,12,n,2019_Nov_14_1517,ec_RRR,3.0.4,84.99059149956297,
Stahl Bading Aust Heycke and Thomasius,Das Zielwesen für diese Aufgabe ist Shelmet:,"Also sobald Shelmet (sein Name oder sein Bild) auf dem Bildschirm erscheint, drücken Sie so schnell wie möglich die Leertaste. Drücken Sie die Leertaste immer, wenn Sie ein Bild von Shelmet oder das Wort SHELMET sehen. 

Drücken Sie die Leertaste, um die Aufgabe zu starten.",target2,stimuli/t2.jpg,12,25,stimuli/filler33.jpg,filler,False,None,,,,,,,,,,,,,,0,0,0,0,,,,,0,0,0,1,0,24,24,24,,,,,,,,,,,,,,,,,,,,,,,,,,,,,,,,,,,,,,,,,,,,,,,,,,,,,CS1_USneg,None,1,,,,,,,,,,,,,,,,,,22,f,12,n,2019_Nov_14_1517,ec_RRR,3.0.4,84.99059149956297,
Stahl Bading Aust Heycke and Thomasius,Das Zielwesen für diese Aufgabe ist Shelmet:,"Also sobald Shelmet (sein Name oder sein Bild) auf dem Bildschirm erscheint, drücken Sie so schnell wie möglich die Leertaste. Drücken Sie die Leertaste immer, wenn Sie ein Bild von Shelmet oder das Wort SHELMET sehen. 

Drücken Sie die Leertaste, um die Aufgabe zu starten.",target2,stimuli/t2.jpg,12,26,stimuli/filler46.jpg,filler,False,None,,,,,,,,,,,,,,0,0,0,0,,,,,0,0,0,1,0,25,25,25,,,,,,,,,,,,,,,,,,,,,,,,,,,,,,,,,,,,,,,,,,,,,,,,,,,,,CS1_USneg,None,1,,,,,,,,,,,,,,,,,,22,f,12,n,2019_Nov_14_1517,ec_RRR,3.0.4,84.99059149956297,
Stahl Bading Aust Heycke and Thomasius,Das Zielwesen für diese Aufgabe ist Shelmet:,"Also sobald Shelmet (sein Name oder sein Bild) auf dem Bildschirm erscheint, drücken Sie so schnell wie möglich die Leertaste. Drücken Sie die Leertaste immer, wenn Sie ein Bild von Shelmet oder das Wort SHELMET sehen. 

Drücken Sie die Leertaste, um die Aufgabe zu starten.",target2,stimuli/t2.jpg,12,27,stimuli/filler14.jpg,filler,False,None,,,,,,,,,,,,,,0,0,0,0,,,,,0,0,0,1,0,26,26,26,,,,,,,,,,,,,,,,,,,,,,,,,,,,,,,,,,,,,,,,,,,,,,,,,,,,,CS1_USneg,None,1,,,,,,,,,,,,,,,,,,22,f,12,n,2019_Nov_14_1517,ec_RRR,3.0.4,84.99059149956297,
Stahl Bading Aust Heycke and Thomasius,Das Zielwesen für diese Aufgabe ist Shelmet:,"Also sobald Shelmet (sein Name oder sein Bild) auf dem Bildschirm erscheint, drücken Sie so schnell wie möglich die Leertaste. Drücken Sie die Leertaste immer, wenn Sie ein Bild von Shelmet oder das Wort SHELMET sehen. 

Drücken Sie die Leertaste, um die Aufgabe zu starten.",target2,stimuli/t2.jpg,12,28,stimuli/filler6.jpg,filler,False,None,,,,,,,,,,,,,,0,0,0,0,,,,,0,0,0,1,0,27,27,27,,,,,,,,,,,,,,,,,,,,,,,,,,,,,,,,,,,,,,,,,,,,,,,,,,,,,CS1_USneg,None,1,,,,,,,,,,,,,,,,,,22,f,12,n,2019_Nov_14_1517,ec_RRR,3.0.4,84.99059149956297,
Stahl Bading Aust Heycke and Thomasius,Das Zielwesen für diese Aufgabe ist Shelmet:,"Also sobald Shelmet (sein Name oder sein Bild) auf dem Bildschirm erscheint, drücken Sie so schnell wie möglich die Leertaste. Drücken Sie die Leertaste immer, wenn Sie ein Bild von Shelmet oder das Wort SHELMET sehen. 

Drücken Sie die Leertaste, um die Aufgabe zu starten.",target2,stimuli/t2.jpg,12,29,stimuli/filler5.jpg,filler,False,None,,,,,,,,,,,,,,0,0,0,0,,,,,0,0,0,1,0,28,28,28,,,,,,,,,,,,,,,,,,,,,,,,,,,,,,,,,,,,,,,,,,,,,,,,,,,,,CS1_USneg,None,1,,,,,,,,,,,,,,,,,,22,f,12,n,2019_Nov_14_1517,ec_RRR,3.0.4,84.99059149956297,
Stahl Bading Aust Heycke and Thomasius,Das Zielwesen für diese Aufgabe ist Shelmet:,"Also sobald Shelmet (sein Name oder sein Bild) auf dem Bildschirm erscheint, drücken Sie so schnell wie möglich die Leertaste. Drücken Sie die Leertaste immer, wenn Sie ein Bild von Shelmet oder das Wort SHELMET sehen. 

Drücken Sie die Leertaste, um die Aufgabe zu starten.",target2,stimuli/t2.jpg,12,30,stimuli/blank.jpg,blank,False,None,,,,,,,,,,,,,,0,0,0,0,,,,,0,0,0,1,0,29,29,29,,,,,,,,,,,,,,,,,,,,,,,,,,,,,,,,,,,,,,,,,,,,,,,,,,,,,CS1_USneg,None,1,,,,,,,,,,,,,,,,,,22,f,12,n,2019_Nov_14_1517,ec_RRR,3.0.4,84.99059149956297,
Stahl Bading Aust Heycke and Thomasius,Das Zielwesen für diese Aufgabe ist Shelmet:,"Also sobald Shelmet (sein Name oder sein Bild) auf dem Bildschirm erscheint, drücken Sie so schnell wie möglich die Leertaste. Drücken Sie die Leertaste immer, wenn Sie ein Bild von Shelmet oder das Wort SHELMET sehen. 

Drücken Sie die Leertaste, um die Aufgabe zu starten.",target2,stimuli/t2.jpg,12,31,stimuli/cs1_neg11.jpg,CSUS,False,None,,,,,,,,,,,,,,0,0,0,0,,,,,0,0,0,1,0,30,30,30,,,,,,,,,,,,,,,,,,,,,,,,,,,,,,,,,,,,,,,,,,,,,,,,,,,,,CS1_USneg,None,1,,,,,,,,,,,,,,,,,,22,f,12,n,2019_Nov_14_1517,ec_RRR,3.0.4,84.99059149956297,
Stahl Bading Aust Heycke and Thomasius,Das Zielwesen für diese Aufgabe ist Shelmet:,"Also sobald Shelmet (sein Name oder sein Bild) auf dem Bildschirm erscheint, drücken Sie so schnell wie möglich die Leertaste. Drücken Sie die Leertaste immer, wenn Sie ein Bild von Shelmet oder das Wort SHELMET sehen. 

Drücken Sie die Leertaste, um die Aufgabe zu starten.",target2,stimuli/t2.jpg,12,32,stimuli/blank.jpg,blank,False,None,,,,,,,,,,,,,,0,0,0,0,,,,,0,0,0,1,0,31,31,31,,,,,,,,,,,,,,,,,,,,,,,,,,,,,,,,,,,,,,,,,,,,,,,,,,,,,CS1_USneg,None,1,,,,,,,,,,,,,,,,,,22,f,12,n,2019_Nov_14_1517,ec_RRR,3.0.4,84.99059149956297,
Stahl Bading Aust Heycke and Thomasius,Das Zielwesen für diese Aufgabe ist Shelmet:,"Also sobald Shelmet (sein Name oder sein Bild) auf dem Bildschirm erscheint, drücken Sie so schnell wie möglich die Leertaste. Drücken Sie die Leertaste immer, wenn Sie ein Bild von Shelmet oder das Wort SHELMET sehen. 

Drücken Sie die Leertaste, um die Aufgabe zu starten.",target2,stimuli/t2.jpg,12,33,stimuli/target2_7.jpg,target,True,space,,,,,,,,,,,,,,0,0,0,0,,,,,0,0,0,1,0,32,32,32,,,,,,,,,,,,,,,,,,,,,,,,,,,,,,,,,,,,,,,,,,,,,,,,,,,,,CS1_USneg,space,1,0.647360994693372,,,,,,,,,,,,,,,,,22,f,12,n,2019_Nov_14_1517,ec_RRR,3.0.4,84.99059149956297,
Stahl Bading Aust Heycke and Thomasius,Das Zielwesen für diese Aufgabe ist Shelmet:,"Also sobald Shelmet (sein Name oder sein Bild) auf dem Bildschirm erscheint, drücken Sie so schnell wie möglich die Leertaste. Drücken Sie die Leertaste immer, wenn Sie ein Bild von Shelmet oder das Wort SHELMET sehen. 

Drücken Sie die Leertaste, um die Aufgabe zu starten.",target2,stimuli/t2.jpg,12,34,stimuli/filler35.jpg,filler,False,None,,,,,,,,,,,,,,0,0,0,0,,,,,0,0,0,1,0,33,33,33,,,,,,,,,,,,,,,,,,,,,,,,,,,,,,,,,,,,,,,,,,,,,,,,,,,,,CS1_USneg,None,1,,,,,,,,,,,,,,,,,,22,f,12,n,2019_Nov_14_1517,ec_RRR,3.0.4,84.99059149956297,
Stahl Bading Aust Heycke and Thomasius,Das Zielwesen für diese Aufgabe ist Shelmet:,"Also sobald Shelmet (sein Name oder sein Bild) auf dem Bildschirm erscheint, drücken Sie so schnell wie möglich die Leertaste. Drücken Sie die Leertaste immer, wenn Sie ein Bild von Shelmet oder das Wort SHELMET sehen. 

Drücken Sie die Leertaste, um die Aufgabe zu starten.",target2,stimuli/t2.jpg,12,35,stimuli/filler2.jpg,filler,False,None,,,,,,,,,,,,,,0,0,0,0,,,,,0,0,0,1,0,34,34,34,,,,,,,,,,,,,,,,,,,,,,,,,,,,,,,,,,,,,,,,,,,,,,,,,,,,,CS1_USneg,None,1,,,,,,,,,,,,,,,,,,22,f,12,n,2019_Nov_14_1517,ec_RRR,3.0.4,84.99059149956297,
Stahl Bading Aust Heycke and Thomasius,Das Zielwesen für diese Aufgabe ist Shelmet:,"Also sobald Shelmet (sein Name oder sein Bild) auf dem Bildschirm erscheint, drücken Sie so schnell wie möglich die Leertaste. Drücken Sie die Leertaste immer, wenn Sie ein Bild von Shelmet oder das Wort SHELMET sehen. 

Drücken Sie die Leertaste, um die Aufgabe zu starten.",target2,stimuli/t2.jpg,12,36,stimuli/filler24.jpg,filler,False,None,,,,,,,,,,,,,,0,0,0,0,,,,,0,0,0,1,0,35,35,35,,,,,,,,,,,,,,,,,,,,,,,,,,,,,,,,,,,,,,,,,,,,,,,,,,,,,CS1_USneg,None,1,,,,,,,,,,,,,,,,,,22,f,12,n,2019_Nov_14_1517,ec_RRR,3.0.4,84.99059149956297,
Stahl Bading Aust Heycke and Thomasius,Das Zielwesen für diese Aufgabe ist Shelmet:,"Also sobald Shelmet (sein Name oder sein Bild) auf dem Bildschirm erscheint, drücken Sie so schnell wie möglich die Leertaste. Drücken Sie die Leertaste immer, wenn Sie ein Bild von Shelmet oder das Wort SHELMET sehen. 

Drücken Sie die Leertaste, um die Aufgabe zu starten.",target2,stimuli/t2.jpg,12,37,stimuli/filler31.jpg,filler,False,None,,,,,,,,,,,,,,0,0,0,0,,,,,0,0,0,1,0,36,36,36,,,,,,,,,,,,,,,,,,,,,,,,,,,,,,,,,,,,,,,,,,,,,,,,,,,,,CS1_USneg,None,1,,,,,,,,,,,,,,,,,,22,f,12,n,2019_Nov_14_1517,ec_RRR,3.0.4,84.99059149956297,
Stahl Bading Aust Heycke and Thomasius,Das Zielwesen für diese Aufgabe ist Shelmet:,"Also sobald Shelmet (sein Name oder sein Bild) auf dem Bildschirm erscheint, drücken Sie so schnell wie möglich die Leertaste. Drücken Sie die Leertaste immer, wenn Sie ein Bild von Shelmet oder das Wort SHELMET sehen. 

Drücken Sie die Leertaste, um die Aufgabe zu starten.",target2,stimuli/t2.jpg,12,38,stimuli/target2_10.jpg,target,True,space,,,,,,,,,,,,,,0,0,0,0,,,,,0,0,0,1,0,37,37,37,,,,,,,,,,,,,,,,,,,,,,,,,,,,,,,,,,,,,,,,,,,,,,,,,,,,,CS1_USneg,space,1,0.45913560168810363,,,,,,,,,,,,,,,,,22,f,12,n,2019_Nov_14_1517,ec_RRR,3.0.4,84.99059149956297,
Stahl Bading Aust Heycke and Thomasius,Das Zielwesen für diese Aufgabe ist Shelmet:,"Also sobald Shelmet (sein Name oder sein Bild) auf dem Bildschirm erscheint, drücken Sie so schnell wie möglich die Leertaste. Drücken Sie die Leertaste immer, wenn Sie ein Bild von Shelmet oder das Wort SHELMET sehen. 

Drücken Sie die Leertaste, um die Aufgabe zu starten.",target2,stimuli/t2.jpg,12,39,stimuli/filler49.jpg,filler,False,None,,,,,,,,,,,,,,0,0,0,0,,,,,0,0,0,1,0,38,38,38,,,,,,,,,,,,,,,,,,,,,,,,,,,,,,,,,,,,,,,,,,,,,,,,,,,,,CS1_USneg,None,1,,,,,,,,,,,,,,,,,,22,f,12,n,2019_Nov_14_1517,ec_RRR,3.0.4,84.99059149956297,
Stahl Bading Aust Heycke and Thomasius,Das Zielwesen für diese Aufgabe ist Shelmet:,"Also sobald Shelmet (sein Name oder sein Bild) auf dem Bildschirm erscheint, drücken Sie so schnell wie möglich die Leertaste. Drücken Sie die Leertaste immer, wenn Sie ein Bild von Shelmet oder das Wort SHELMET sehen. 

Drücken Sie die Leertaste, um die Aufgabe zu starten.",target2,stimuli/t2.jpg,12,40,stimuli/blank.jpg,blank,False,None,,,,,,,,,,,,,,0,0,0,0,,,,,0,0,0,1,0,39,39,39,,,,,,,,,,,,,,,,,,,,,,,,,,,,,,,,,,,,,,,,,,,,,,,,,,,,,CS1_USneg,None,1,,,,,,,,,,,,,,,,,,22,f,12,n,2019_Nov_14_1517,ec_RRR,3.0.4,84.99059149956297,
Stahl Bading Aust Heycke and Thomasius,Das Zielwesen für diese Aufgabe ist Shelmet:,"Also sobald Shelmet (sein Name oder sein Bild) auf dem Bildschirm erscheint, drücken Sie so schnell wie möglich die Leertaste. Drücken Sie die Leertaste immer, wenn Sie ein Bild von Shelmet oder das Wort SHELMET sehen. 

Drücken Sie die Leertaste, um die Aufgabe zu starten.",target2,stimuli/t2.jpg,12,41,stimuli/cs2_pos17.jpg,CSUS,False,None,,,,,,,,,,,,,,0,0,0,0,,,,,0,0,0,1,0,40,40,40,,,,,,,,,,,,,,,,,,,,,,,,,,,,,,,,,,,,,,,,,,,,,,,,,,,,,CS1_USneg,None,1,,,,,,,,,,,,,,,,,,22,f,12,n,2019_Nov_14_1517,ec_RRR,3.0.4,84.99059149956297,
Stahl Bading Aust Heycke and Thomasius,Das Zielwesen für diese Aufgabe ist Shelmet:,"Also sobald Shelmet (sein Name oder sein Bild) auf dem Bildschirm erscheint, drücken Sie so schnell wie möglich die Leertaste. Drücken Sie die Leertaste immer, wenn Sie ein Bild von Shelmet oder das Wort SHELMET sehen. 

Drücken Sie die Leertaste, um die Aufgabe zu starten.",target2,stimuli/t2.jpg,12,42,stimuli/blank.jpg,blank,False,None,,,,,,,,,,,,,,0,0,0,0,,,,,0,0,0,1,0,41,41,41,,,,,,,,,,,,,,,,,,,,,,,,,,,,,,,,,,,,,,,,,,,,,,,,,,,,,CS1_USneg,None,1,,,,,,,,,,,,,,,,,,22,f,12,n,2019_Nov_14_1517,ec_RRR,3.0.4,84.99059149956297,
Stahl Bading Aust Heycke and Thomasius,Das Zielwesen für diese Aufgabe ist Shelmet:,"Also sobald Shelmet (sein Name oder sein Bild) auf dem Bildschirm erscheint, drücken Sie so schnell wie möglich die Leertaste. Drücken Sie die Leertaste immer, wenn Sie ein Bild von Shelmet oder das Wort SHELMET sehen. 

Drücken Sie die Leertaste, um die Aufgabe zu starten.",target2,stimuli/t2.jpg,12,43,stimuli/filler40.jpg,filler,False,None,,,,,,,,,,,,,,0,0,0,0,,,,,0,0,0,1,0,42,42,42,,,,,,,,,,,,,,,,,,,,,,,,,,,,,,,,,,,,,,,,,,,,,,,,,,,,,CS1_USneg,None,1,,,,,,,,,,,,,,,,,,22,f,12,n,2019_Nov_14_1517,ec_RRR,3.0.4,84.99059149956297,
Stahl Bading Aust Heycke and Thomasius,Das Zielwesen für diese Aufgabe ist Shelmet:,"Also sobald Shelmet (sein Name oder sein Bild) auf dem Bildschirm erscheint, drücken Sie so schnell wie möglich die Leertaste. Drücken Sie die Leertaste immer, wenn Sie ein Bild von Shelmet oder das Wort SHELMET sehen. 

Drücken Sie die Leertaste, um die Aufgabe zu starten.",target2,stimuli/t2.jpg,12,44,stimuli/filler13.jpg,filler,False,None,,,,,,,,,,,,,,0,0,0,0,,,,,0,0,0,1,0,43,43,43,,,,,,,,,,,,,,,,,,,,,,,,,,,,,,,,,,,,,,,,,,,,,,,,,,,,,CS1_USneg,None,1,,,,,,,,,,,,,,,,,,22,f,12,n,2019_Nov_14_1517,ec_RRR,3.0.4,84.99059149956297,
Stahl Bading Aust Heycke and Thomasius,Das Zielwesen für diese Aufgabe ist Shelmet:,"Also sobald Shelmet (sein Name oder sein Bild) auf dem Bildschirm erscheint, drücken Sie so schnell wie möglich die Leertaste. Drücken Sie die Leertaste immer, wenn Sie ein Bild von Shelmet oder das Wort SHELMET sehen. 

Drücken Sie die Leertaste, um die Aufgabe zu starten.",target2,stimuli/t2.jpg,12,45,stimuli/filler29.jpg,filler,False,None,,,,,,,,,,,,,,0,0,0,0,,,,,0,0,0,1,0,44,44,44,,,,,,,,,,,,,,,,,,,,,,,,,,,,,,,,,,,,,,,,,,,,,,,,,,,,,CS1_USneg,None,1,,,,,,,,,,,,,,,,,,22,f,12,n,2019_Nov_14_1517,ec_RRR,3.0.4,84.99059149956297,
Stahl Bading Aust Heycke and Thomasius,Das Zielwesen für diese Aufgabe ist Shelmet:,"Also sobald Shelmet (sein Name oder sein Bild) auf dem Bildschirm erscheint, drücken Sie so schnell wie möglich die Leertaste. Drücken Sie die Leertaste immer, wenn Sie ein Bild von Shelmet oder das Wort SHELMET sehen. 

Drücken Sie die Leertaste, um die Aufgabe zu starten.",target2,stimuli/t2.jpg,12,46,stimuli/filler7.jpg,filler,False,None,,,,,,,,,,,,,,0,0,0,0,,,,,0,0,0,1,0,45,45,45,,,,,,,,,,,,,,,,,,,,,,,,,,,,,,,,,,,,,,,,,,,,,,,,,,,,,CS1_USneg,None,1,,,,,,,,,,,,,,,,,,22,f,12,n,2019_Nov_14_1517,ec_RRR,3.0.4,84.99059149956297,
Stahl Bading Aust Heycke and Thomasius,Das Zielwesen für diese Aufgabe ist Shelmet:,"Also sobald Shelmet (sein Name oder sein Bild) auf dem Bildschirm erscheint, drücken Sie so schnell wie möglich die Leertaste. Drücken Sie die Leertaste immer, wenn Sie ein Bild von Shelmet oder das Wort SHELMET sehen. 

Drücken Sie die Leertaste, um die Aufgabe zu starten.",target2,stimuli/t2.jpg,12,47,stimuli/filler37.jpg,filler,False,None,,,,,,,,,,,,,,0,0,0,0,,,,,0,0,0,1,0,46,46,46,,,,,,,,,,,,,,,,,,,,,,,,,,,,,,,,,,,,,,,,,,,,,,,,,,,,,CS1_USneg,None,1,,,,,,,,,,,,,,,,,,22,f,12,n,2019_Nov_14_1517,ec_RRR,3.0.4,84.99059149956297,
Stahl Bading Aust Heycke and Thomasius,Das Zielwesen für diese Aufgabe ist Shelmet:,"Also sobald Shelmet (sein Name oder sein Bild) auf dem Bildschirm erscheint, drücken Sie so schnell wie möglich die Leertaste. Drücken Sie die Leertaste immer, wenn Sie ein Bild von Shelmet oder das Wort SHELMET sehen. 

Drücken Sie die Leertaste, um die Aufgabe zu starten.",target2,stimuli/t2.jpg,12,48,stimuli/filler12.jpg,filler,False,None,,,,,,,,,,,,,,0,0,0,0,,,,,0,0,0,1,0,47,47,47,,,,,,,,,,,,,,,,,,,,,,,,,,,,,,,,,,,,,,,,,,,,,,,,,,,,,CS1_USneg,None,1,,,,,,,,,,,,,,,,,,22,f,12,n,2019_Nov_14_1517,ec_RRR,3.0.4,84.99059149956297,
Stahl Bading Aust Heycke and Thomasius,Das Zielwesen für diese Aufgabe ist Shelmet:,"Also sobald Shelmet (sein Name oder sein Bild) auf dem Bildschirm erscheint, drücken Sie so schnell wie möglich die Leertaste. Drücken Sie die Leertaste immer, wenn Sie ein Bild von Shelmet oder das Wort SHELMET sehen. 

Drücken Sie die Leertaste, um die Aufgabe zu starten.",target2,stimuli/t2.jpg,12,49,stimuli/filler10.jpg,filler,False,None,,,,,,,,,,,,,,0,0,0,0,,,,,0,0,0,1,0,48,48,48,,,,,,,,,,,,,,,,,,,,,,,,,,,,,,,,,,,,,,,,,,,,,,,,,,,,,CS1_USneg,None,1,,,,,,,,,,,,,,,,,,22,f,12,n,2019_Nov_14_1517,ec_RRR,3.0.4,84.99059149956297,
Stahl Bading Aust Heycke and Thomasius,Das Zielwesen für diese Aufgabe ist Shelmet:,"Also sobald Shelmet (sein Name oder sein Bild) auf dem Bildschirm erscheint, drücken Sie so schnell wie möglich die Leertaste. Drücken Sie die Leertaste immer, wenn Sie ein Bild von Shelmet oder das Wort SHELMET sehen. 

Drücken Sie die Leertaste, um die Aufgabe zu starten.",target2,stimuli/t2.jpg,12,50,stimuli/blank.jpg,blank,False,None,,,,,,,,,,,,,,0,0,0,0,,,,,0,0,0,1,0,49,49,49,,,,,,,,,,,,,,,,,,,,,,,,,,,,,,,,,,,,,,,,,,,,,,,,,,,,,CS1_USneg,None,1,,,,,,,,,,,,,,,,,,22,f,12,n,2019_Nov_14_1517,ec_RRR,3.0.4,84.99059149956297,
Stahl Bading Aust Heycke and Thomasius,Das Zielwesen für diese Aufgabe ist Shelmet:,"Also sobald Shelmet (sein Name oder sein Bild) auf dem Bildschirm erscheint, drücken Sie so schnell wie möglich die Leertaste. Drücken Sie die Leertaste immer, wenn Sie ein Bild von Shelmet oder das Wort SHELMET sehen. 

Drücken Sie die Leertaste, um die Aufgabe zu starten.",target2,stimuli/t2.jpg,12,51,stimuli/cs1_neg5.jpg,CSUS,False,None,,,,,,,,,,,,,,0,0,0,0,,,,,0,0,0,1,0,50,50,50,,,,,,,,,,,,,,,,,,,,,,,,,,,,,,,,,,,,,,,,,,,,,,,,,,,,,CS1_USneg,None,1,,,,,,,,,,,,,,,,,,22,f,12,n,2019_Nov_14_1517,ec_RRR,3.0.4,84.99059149956297,
Stahl Bading Aust Heycke and Thomasius,Das Zielwesen für diese Aufgabe ist Shelmet:,"Also sobald Shelmet (sein Name oder sein Bild) auf dem Bildschirm erscheint, drücken Sie so schnell wie möglich die Leertaste. Drücken Sie die Leertaste immer, wenn Sie ein Bild von Shelmet oder das Wort SHELMET sehen. 

Drücken Sie die Leertaste, um die Aufgabe zu starten.",target2,stimuli/t2.jpg,12,52,stimuli/blank.jpg,blank,False,None,,,,,,,,,,,,,,0,0,0,0,,,,,0,0,0,1,0,51,51,51,,,,,,,,,,,,,,,,,,,,,,,,,,,,,,,,,,,,,,,,,,,,,,,,,,,,,CS1_USneg,None,1,,,,,,,,,,,,,,,,,,22,f,12,n,2019_Nov_14_1517,ec_RRR,3.0.4,84.99059149956297,
Stahl Bading Aust Heycke and Thomasius,Das Zielwesen für diese Aufgabe ist Shelmet:,"Also sobald Shelmet (sein Name oder sein Bild) auf dem Bildschirm erscheint, drücken Sie so schnell wie möglich die Leertaste. Drücken Sie die Leertaste immer, wenn Sie ein Bild von Shelmet oder das Wort SHELMET sehen. 

Drücken Sie die Leertaste, um die Aufgabe zu starten.",target2,stimuli/t2.jpg,12,53,stimuli/filler38.jpg,filler,False,None,,,,,,,,,,,,,,0,0,0,0,,,,,0,0,0,1,0,52,52,52,,,,,,,,,,,,,,,,,,,,,,,,,,,,,,,,,,,,,,,,,,,,,,,,,,,,,CS1_USneg,None,1,,,,,,,,,,,,,,,,,,22,f,12,n,2019_Nov_14_1517,ec_RRR,3.0.4,84.99059149956297,
Stahl Bading Aust Heycke and Thomasius,Das Zielwesen für diese Aufgabe ist Shelmet:,"Also sobald Shelmet (sein Name oder sein Bild) auf dem Bildschirm erscheint, drücken Sie so schnell wie möglich die Leertaste. Drücken Sie die Leertaste immer, wenn Sie ein Bild von Shelmet oder das Wort SHELMET sehen. 

Drücken Sie die Leertaste, um die Aufgabe zu starten.",target2,stimuli/t2.jpg,12,54,stimuli/target2_5.jpg,target,True,space,,,,,,,,,,,,,,0,0,0,0,,,,,0,0,0,1,0,53,53,53,,,,,,,,,,,,,,,,,,,,,,,,,,,,,,,,,,,,,,,,,,,,,,,,,,,,,CS1_USneg,space,1,0.5061944889439474,,,,,,,,,,,,,,,,,22,f,12,n,2019_Nov_14_1517,ec_RRR,3.0.4,84.99059149956297,
Stahl Bading Aust Heycke and Thomasius,Das Zielwesen für diese Aufgabe ist Shelmet:,"Also sobald Shelmet (sein Name oder sein Bild) auf dem Bildschirm erscheint, drücken Sie so schnell wie möglich die Leertaste. Drücken Sie die Leertaste immer, wenn Sie ein Bild von Shelmet oder das Wort SHELMET sehen. 

Drücken Sie die Leertaste, um die Aufgabe zu starten.",target2,stimuli/t2.jpg,12,55,stimuli/filler50.jpg,filler,False,None,,,,,,,,,,,,,,0,0,0,0,,,,,0,0,0,1,0,54,54,54,,,,,,,,,,,,,,,,,,,,,,,,,,,,,,,,,,,,,,,,,,,,,,,,,,,,,CS1_USneg,None,1,,,,,,,,,,,,,,,,,,22,f,12,n,2019_Nov_14_1517,ec_RRR,3.0.4,84.99059149956297,
Stahl Bading Aust Heycke and Thomasius,Das Zielwesen für diese Aufgabe ist Shelmet:,"Also sobald Shelmet (sein Name oder sein Bild) auf dem Bildschirm erscheint, drücken Sie so schnell wie möglich die Leertaste. Drücken Sie die Leertaste immer, wenn Sie ein Bild von Shelmet oder das Wort SHELMET sehen. 

Drücken Sie die Leertaste, um die Aufgabe zu starten.",target2,stimuli/t2.jpg,12,56,stimuli/target2_1.jpg,target,True,space,,,,,,,,,,,,,,0,0,0,0,,,,,0,0,0,1,0,55,55,55,,,,,,,,,,,,,,,,,,,,,,,,,,,,,,,,,,,,,,,,,,,,,,,,,,,,,CS1_USneg,space,1,0.4591410182274558,,,,,,,,,,,,,,,,,22,f,12,n,2019_Nov_14_1517,ec_RRR,3.0.4,84.99059149956297,
Stahl Bading Aust Heycke and Thomasius,Das Zielwesen für diese Aufgabe ist Shelmet:,"Also sobald Shelmet (sein Name oder sein Bild) auf dem Bildschirm erscheint, drücken Sie so schnell wie möglich die Leertaste. Drücken Sie die Leertaste immer, wenn Sie ein Bild von Shelmet oder das Wort SHELMET sehen. 

Drücken Sie die Leertaste, um die Aufgabe zu starten.",target2,stimuli/t2.jpg,12,57,stimuli/filler19.jpg,filler,False,None,,,,,,,,,,,,,,0,0,0,0,,,,,0,0,0,1,0,56,56,56,,,,,,,,,,,,,,,,,,,,,,,,,,,,,,,,,,,,,,,,,,,,,,,,,,,,,CS1_USneg,None,1,,,,,,,,,,,,,,,,,,22,f,12,n,2019_Nov_14_1517,ec_RRR,3.0.4,84.99059149956297,
Stahl Bading Aust Heycke and Thomasius,Das Zielwesen für diese Aufgabe ist Shelmet:,"Also sobald Shelmet (sein Name oder sein Bild) auf dem Bildschirm erscheint, drücken Sie so schnell wie möglich die Leertaste. Drücken Sie die Leertaste immer, wenn Sie ein Bild von Shelmet oder das Wort SHELMET sehen. 

Drücken Sie die Leertaste, um die Aufgabe zu starten.",target2,stimuli/t2.jpg,12,58,stimuli/target2_9.jpg,target,True,space,,,,,,,,,,,,,,0,0,0,0,,,,,0,0,0,1,0,57,57,57,,,,,,,,,,,,,,,,,,,,,,,,,,,,,,,,,,,,,,,,,,,,,,,,,,,,,CS1_USneg,space,1,0.8709174533050827,,,,,,,,,,,,,,,,,22,f,12,n,2019_Nov_14_1517,ec_RRR,3.0.4,84.99059149956297,
Stahl Bading Aust Heycke and Thomasius,Das Zielwesen für diese Aufgabe ist Shelmet:,"Also sobald Shelmet (sein Name oder sein Bild) auf dem Bildschirm erscheint, drücken Sie so schnell wie möglich die Leertaste. Drücken Sie die Leertaste immer, wenn Sie ein Bild von Shelmet oder das Wort SHELMET sehen. 

Drücken Sie die Leertaste, um die Aufgabe zu starten.",target2,stimuli/t2.jpg,12,59,stimuli/filler16.jpg,filler,False,None,,,,,,,,,,,,,,0,0,0,0,,,,,0,0,0,1,0,58,58,58,,,,,,,,,,,,,,,,,,,,,,,,,,,,,,,,,,,,,,,,,,,,,,,,,,,,,CS1_USneg,None,1,,,,,,,,,,,,,,,,,,22,f,12,n,2019_Nov_14_1517,ec_RRR,3.0.4,84.99059149956297,
Stahl Bading Aust Heycke and Thomasius,Das Zielwesen für diese Aufgabe ist Shelmet:,"Also sobald Shelmet (sein Name oder sein Bild) auf dem Bildschirm erscheint, drücken Sie so schnell wie möglich die Leertaste. Drücken Sie die Leertaste immer, wenn Sie ein Bild von Shelmet oder das Wort SHELMET sehen. 

Drücken Sie die Leertaste, um die Aufgabe zu starten.",target2,stimuli/t2.jpg,12,60,stimuli/blank.jpg,blank,False,None,,,,,,,,,,,,,,0,0,0,0,,,,,0,0,0,1,0,59,59,59,,,,,,,,,,,,,,,,,,,,,,,,,,,,,,,,,,,,,,,,,,,,,,,,,,,,,CS1_USneg,None,1,,,,,,,,,,,,,,,,,,22,f,12,n,2019_Nov_14_1517,ec_RRR,3.0.4,84.99059149956297,
Stahl Bading Aust Heycke and Thomasius,Das Zielwesen für diese Aufgabe ist Shelmet:,"Also sobald Shelmet (sein Name oder sein Bild) auf dem Bildschirm erscheint, drücken Sie so schnell wie möglich die Leertaste. Drücken Sie die Leertaste immer, wenn Sie ein Bild von Shelmet oder das Wort SHELMET sehen. 

Drücken Sie die Leertaste, um die Aufgabe zu starten.",target2,stimuli/t2.jpg,12,61,stimuli/cs2_pos11.jpg,CSUS,False,None,,,,,,,,,,,,,,0,0,0,0,,,,,0,0,0,1,0,60,60,60,,,,,,,,,,,,,,,,,,,,,,,,,,,,,,,,,,,,,,,,,,,,,,,,,,,,,CS1_USneg,None,1,,,,,,,,,,,,,,,,,,22,f,12,n,2019_Nov_14_1517,ec_RRR,3.0.4,84.99059149956297,
Stahl Bading Aust Heycke and Thomasius,Das Zielwesen für diese Aufgabe ist Shelmet:,"Also sobald Shelmet (sein Name oder sein Bild) auf dem Bildschirm erscheint, drücken Sie so schnell wie möglich die Leertaste. Drücken Sie die Leertaste immer, wenn Sie ein Bild von Shelmet oder das Wort SHELMET sehen. 

Drücken Sie die Leertaste, um die Aufgabe zu starten.",target2,stimuli/t2.jpg,12,62,stimuli/blank.jpg,blank,False,None,,,,,,,,,,,,,,0,0,0,0,,,,,0,0,0,1,0,61,61,61,,,,,,,,,,,,,,,,,,,,,,,,,,,,,,,,,,,,,,,,,,,,,,,,,,,,,CS1_USneg,None,1,,,,,,,,,,,,,,,,,,22,f,12,n,2019_Nov_14_1517,ec_RRR,3.0.4,84.99059149956297,
Stahl Bading Aust Heycke and Thomasius,Das Zielwesen für diese Aufgabe ist Shelmet:,"Also sobald Shelmet (sein Name oder sein Bild) auf dem Bildschirm erscheint, drücken Sie so schnell wie möglich die Leertaste. Drücken Sie die Leertaste immer, wenn Sie ein Bild von Shelmet oder das Wort SHELMET sehen. 

Drücken Sie die Leertaste, um die Aufgabe zu starten.",target2,stimuli/t2.jpg,12,63,stimuli/filler39.jpg,filler,False,None,,,,,,,,,,,,,,0,0,0,0,,,,,0,0,0,1,0,62,62,62,,,,,,,,,,,,,,,,,,,,,,,,,,,,,,,,,,,,,,,,,,,,,,,,,,,,,CS1_USneg,None,1,,,,,,,,,,,,,,,,,,22,f,12,n,2019_Nov_14_1517,ec_RRR,3.0.4,84.99059149956297,
Stahl Bading Aust Heycke and Thomasius,Das Zielwesen für diese Aufgabe ist Shelmet:,"Also sobald Shelmet (sein Name oder sein Bild) auf dem Bildschirm erscheint, drücken Sie so schnell wie möglich die Leertaste. Drücken Sie die Leertaste immer, wenn Sie ein Bild von Shelmet oder das Wort SHELMET sehen. 

Drücken Sie die Leertaste, um die Aufgabe zu starten.",target2,stimuli/t2.jpg,12,64,stimuli/filler20.jpg,filler,False,None,,,,,,,,,,,,,,0,0,0,0,,,,,0,0,0,1,0,63,63,63,,,,,,,,,,,,,,,,,,,,,,,,,,,,,,,,,,,,,,,,,,,,,,,,,,,,,CS1_USneg,None,1,,,,,,,,,,,,,,,,,,22,f,12,n,2019_Nov_14_1517,ec_RRR,3.0.4,84.99059149956297,
Stahl Bading Aust Heycke and Thomasius,Das Zielwesen für diese Aufgabe ist Shelmet:,"Also sobald Shelmet (sein Name oder sein Bild) auf dem Bildschirm erscheint, drücken Sie so schnell wie möglich die Leertaste. Drücken Sie die Leertaste immer, wenn Sie ein Bild von Shelmet oder das Wort SHELMET sehen. 

Drücken Sie die Leertaste, um die Aufgabe zu starten.",target2,stimuli/t2.jpg,12,65,stimuli/target2_6.jpg,target,True,space,,,,,,,,,,,,,,0,0,0,0,,,,,0,0,0,1,0,64,64,64,,,,,,,,,,,,,,,,,,,,,,,,,,,,,,,,,,,,,,,,,,,,,,,,,,,,,CS1_USneg,space,1,0.6238447538798937,,,,,,,,,,,,,,,,,22,f,12,n,2019_Nov_14_1517,ec_RRR,3.0.4,84.99059149956297,
Stahl Bading Aust Heycke and Thomasius,Das Zielwesen für diese Aufgabe ist Shelmet:,"Also sobald Shelmet (sein Name oder sein Bild) auf dem Bildschirm erscheint, drücken Sie so schnell wie möglich die Leertaste. Drücken Sie die Leertaste immer, wenn Sie ein Bild von Shelmet oder das Wort SHELMET sehen. 

Drücken Sie die Leertaste, um die Aufgabe zu starten.",target2,stimuli/t2.jpg,12,66,stimuli/filler51.jpg,filler,False,None,,,,,,,,,,,,,,0,0,0,0,,,,,0,0,0,1,0,65,65,65,,,,,,,,,,,,,,,,,,,,,,,,,,,,,,,,,,,,,,,,,,,,,,,,,,,,,CS1_USneg,None,1,,,,,,,,,,,,,,,,,,22,f,12,n,2019_Nov_14_1517,ec_RRR,3.0.4,84.99059149956297,
Stahl Bading Aust Heycke and Thomasius,Das Zielwesen für diese Aufgabe ist Shelmet:,"Also sobald Shelmet (sein Name oder sein Bild) auf dem Bildschirm erscheint, drücken Sie so schnell wie möglich die Leertaste. Drücken Sie die Leertaste immer, wenn Sie ein Bild von Shelmet oder das Wort SHELMET sehen. 

Drücken Sie die Leertaste, um die Aufgabe zu starten.",target2,stimuli/t2.jpg,12,67,stimuli/filler25.jpg,filler,False,None,,,,,,,,,,,,,,0,0,0,0,,,,,0,0,0,1,0,66,66,66,,,,,,,,,,,,,,,,,,,,,,,,,,,,,,,,,,,,,,,,,,,,,,,,,,,,,CS1_USneg,None,1,,,,,,,,,,,,,,,,,,22,f,12,n,2019_Nov_14_1517,ec_RRR,3.0.4,84.99059149956297,
Stahl Bading Aust Heycke and Thomasius,Das Zielwesen für diese Aufgabe ist Shelmet:,"Also sobald Shelmet (sein Name oder sein Bild) auf dem Bildschirm erscheint, drücken Sie so schnell wie möglich die Leertaste. Drücken Sie die Leertaste immer, wenn Sie ein Bild von Shelmet oder das Wort SHELMET sehen. 

Drücken Sie die Leertaste, um die Aufgabe zu starten.",target2,stimuli/t2.jpg,12,68,stimuli/filler18.jpg,filler,False,None,,,,,,,,,,,,,,0,0,0,0,,,,,0,0,0,1,0,67,67,67,,,,,,,,,,,,,,,,,,,,,,,,,,,,,,,,,,,,,,,,,,,,,,,,,,,,,CS1_USneg,None,1,,,,,,,,,,,,,,,,,,22,f,12,n,2019_Nov_14_1517,ec_RRR,3.0.4,84.99059149956297,
Stahl Bading Aust Heycke and Thomasius,Das Zielwesen für diese Aufgabe ist Shelmet:,"Also sobald Shelmet (sein Name oder sein Bild) auf dem Bildschirm erscheint, drücken Sie so schnell wie möglich die Leertaste. Drücken Sie die Leertaste immer, wenn Sie ein Bild von Shelmet oder das Wort SHELMET sehen. 

Drücken Sie die Leertaste, um die Aufgabe zu starten.",target2,stimuli/t2.jpg,12,69,stimuli/filler32.jpg,filler,False,None,,,,,,,,,,,,,,0,0,0,0,,,,,0,0,0,1,0,68,68,68,,,,,,,,,,,,,,,,,,,,,,,,,,,,,,,,,,,,,,,,,,,,,,,,,,,,,CS1_USneg,None,1,,,,,,,,,,,,,,,,,,22,f,12,n,2019_Nov_14_1517,ec_RRR,3.0.4,84.99059149956297,
Stahl Bading Aust Heycke and Thomasius,Das Zielwesen für diese Aufgabe ist Shelmet:,"Also sobald Shelmet (sein Name oder sein Bild) auf dem Bildschirm erscheint, drücken Sie so schnell wie möglich die Leertaste. Drücken Sie die Leertaste immer, wenn Sie ein Bild von Shelmet oder das Wort SHELMET sehen. 

Drücken Sie die Leertaste, um die Aufgabe zu starten.",target2,stimuli/t2.jpg,12,70,stimuli/blank.jpg,blank,False,None,,,,,,,,,,,,,,0,0,0,0,,,,,0,0,0,1,0,69,69,69,,,,,,,,,,,,,,,,,,,,,,,,,,,,,,,,,,,,,,,,,,,,,,,,,,,,,CS1_USneg,None,1,,,,,,,,,,,,,,,,,,22,f,12,n,2019_Nov_14_1517,ec_RRR,3.0.4,84.99059149956297,
Stahl Bading Aust Heycke and Thomasius,Das Zielwesen für diese Aufgabe ist Shelmet:,"Also sobald Shelmet (sein Name oder sein Bild) auf dem Bildschirm erscheint, drücken Sie so schnell wie möglich die Leertaste. Drücken Sie die Leertaste immer, wenn Sie ein Bild von Shelmet oder das Wort SHELMET sehen. 

Drücken Sie die Leertaste, um die Aufgabe zu starten.",target2,stimuli/t2.jpg,12,71,stimuli/cs1_neg9.jpg,CSUS,False,None,,,,,,,,,,,,,,0,0,0,0,,,,,0,0,0,1,0,70,70,70,,,,,,,,,,,,,,,,,,,,,,,,,,,,,,,,,,,,,,,,,,,,,,,,,,,,,CS1_USneg,None,1,,,,,,,,,,,,,,,,,,22,f,12,n,2019_Nov_14_1517,ec_RRR,3.0.4,84.99059149956297,
Stahl Bading Aust Heycke and Thomasius,Das Zielwesen für diese Aufgabe ist Shelmet:,"Also sobald Shelmet (sein Name oder sein Bild) auf dem Bildschirm erscheint, drücken Sie so schnell wie möglich die Leertaste. Drücken Sie die Leertaste immer, wenn Sie ein Bild von Shelmet oder das Wort SHELMET sehen. 

Drücken Sie die Leertaste, um die Aufgabe zu starten.",target2,stimuli/t2.jpg,12,72,stimuli/blank.jpg,blank,False,None,,,,,,,,,,,,,,0,0,0,0,,,,,0,0,0,1,0,71,71,71,,,,,,,,,,,,,,,,,,,,,,,,,,,,,,,,,,,,,,,,,,,,,,,,,,,,,CS1_USneg,None,1,,,,,,,,,,,,,,,,,,22,f,12,n,2019_Nov_14_1517,ec_RRR,3.0.4,84.99059149956297,
Stahl Bading Aust Heycke and Thomasius,Das Zielwesen für diese Aufgabe ist Shelmet:,"Also sobald Shelmet (sein Name oder sein Bild) auf dem Bildschirm erscheint, drücken Sie so schnell wie möglich die Leertaste. Drücken Sie die Leertaste immer, wenn Sie ein Bild von Shelmet oder das Wort SHELMET sehen. 

Drücken Sie die Leertaste, um die Aufgabe zu starten.",target2,stimuli/t2.jpg,12,73,stimuli/filler23.jpg,filler,False,None,,,,,,,,,,,,,,0,0,0,0,,,,,0,0,0,1,0,72,72,72,,,,,,,,,,,,,,,,,,,,,,,,,,,,,,,,,,,,,,,,,,,,,,,,,,,,,CS1_USneg,None,1,,,,,,,,,,,,,,,,,,22,f,12,n,2019_Nov_14_1517,ec_RRR,3.0.4,84.99059149956297,
Stahl Bading Aust Heycke and Thomasius,Das Zielwesen für diese Aufgabe ist Shelmet:,"Also sobald Shelmet (sein Name oder sein Bild) auf dem Bildschirm erscheint, drücken Sie so schnell wie möglich die Leertaste. Drücken Sie die Leertaste immer, wenn Sie ein Bild von Shelmet oder das Wort SHELMET sehen. 

Drücken Sie die Leertaste, um die Aufgabe zu starten.",target2,stimuli/t2.jpg,12,74,stimuli/filler45.jpg,filler,False,None,,,,,,,,,,,,,,0,0,0,0,,,,,0,0,0,1,0,73,73,73,,,,,,,,,,,,,,,,,,,,,,,,,,,,,,,,,,,,,,,,,,,,,,,,,,,,,CS1_USneg,None,1,,,,,,,,,,,,,,,,,,22,f,12,n,2019_Nov_14_1517,ec_RRR,3.0.4,84.99059149956297,
Stahl Bading Aust Heycke and Thomasius,Das Zielwesen für diese Aufgabe ist Shelmet:,"Also sobald Shelmet (sein Name oder sein Bild) auf dem Bildschirm erscheint, drücken Sie so schnell wie möglich die Leertaste. Drücken Sie die Leertaste immer, wenn Sie ein Bild von Shelmet oder das Wort SHELMET sehen. 

Drücken Sie die Leertaste, um die Aufgabe zu starten.",target2,stimuli/t2.jpg,12,75,stimuli/target2_3.jpg,target,True,space,,,,,,,,,,,,,,0,0,0,0,,,,,0,0,0,1,0,74,74,74,,,,,,,,,,,,,,,,,,,,,,,,,,,,,,,,,,,,,,,,,,,,,,,,,,,,,CS1_USneg,space,1,0.6356003352830157,,,,,,,,,,,,,,,,,22,f,12,n,2019_Nov_14_1517,ec_RRR,3.0.4,84.99059149956297,
Stahl Bading Aust Heycke and Thomasius,Das Zielwesen für diese Aufgabe ist Shelmet:,"Also sobald Shelmet (sein Name oder sein Bild) auf dem Bildschirm erscheint, drücken Sie so schnell wie möglich die Leertaste. Drücken Sie die Leertaste immer, wenn Sie ein Bild von Shelmet oder das Wort SHELMET sehen. 

Drücken Sie die Leertaste, um die Aufgabe zu starten.",target2,stimuli/t2.jpg,12,76,stimuli/filler36.jpg,filler,False,None,,,,,,,,,,,,,,0,0,0,0,,,,,0,0,0,1,0,75,75,75,,,,,,,,,,,,,,,,,,,,,,,,,,,,,,,,,,,,,,,,,,,,,,,,,,,,,CS1_USneg,None,1,,,,,,,,,,,,,,,,,,22,f,12,n,2019_Nov_14_1517,ec_RRR,3.0.4,84.99059149956297,
Stahl Bading Aust Heycke and Thomasius,Das Zielwesen für diese Aufgabe ist Shelmet:,"Also sobald Shelmet (sein Name oder sein Bild) auf dem Bildschirm erscheint, drücken Sie so schnell wie möglich die Leertaste. Drücken Sie die Leertaste immer, wenn Sie ein Bild von Shelmet oder das Wort SHELMET sehen. 

Drücken Sie die Leertaste, um die Aufgabe zu starten.",target2,stimuli/t2.jpg,12,77,stimuli/filler4.jpg,filler,False,None,,,,,,,,,,,,,,0,0,0,0,,,,,0,0,0,1,0,76,76,76,,,,,,,,,,,,,,,,,,,,,,,,,,,,,,,,,,,,,,,,,,,,,,,,,,,,,CS1_USneg,None,1,,,,,,,,,,,,,,,,,,22,f,12,n,2019_Nov_14_1517,ec_RRR,3.0.4,84.99059149956297,
Stahl Bading Aust Heycke and Thomasius,Das Zielwesen für diese Aufgabe ist Shelmet:,"Also sobald Shelmet (sein Name oder sein Bild) auf dem Bildschirm erscheint, drücken Sie so schnell wie möglich die Leertaste. Drücken Sie die Leertaste immer, wenn Sie ein Bild von Shelmet oder das Wort SHELMET sehen. 

Drücken Sie die Leertaste, um die Aufgabe zu starten.",target2,stimuli/t2.jpg,12,78,stimuli/filler30.jpg,filler,False,None,,,,,,,,,,,,,,0,0,0,0,,,,,0,0,0,1,0,77,77,77,,,,,,,,,,,,,,,,,,,,,,,,,,,,,,,,,,,,,,,,,,,,,,,,,,,,,CS1_USneg,None,1,,,,,,,,,,,,,,,,,,22,f,12,n,2019_Nov_14_1517,ec_RRR,3.0.4,84.99059149956297,
Stahl Bading Aust Heycke and Thomasius,Das Zielwesen für diese Aufgabe ist Shelmet:,"Also sobald Shelmet (sein Name oder sein Bild) auf dem Bildschirm erscheint, drücken Sie so schnell wie möglich die Leertaste. Drücken Sie die Leertaste immer, wenn Sie ein Bild von Shelmet oder das Wort SHELMET sehen. 

Drücken Sie die Leertaste, um die Aufgabe zu starten.",target2,stimuli/t2.jpg,12,79,stimuli/filler21.jpg,filler,False,None,,,,,,,,,,,,,,0,0,0,0,,,,,0,0,0,1,0,78,78,78,,,,,,,,,,,,,,,,,,,,,,,,,,,,,,,,,,,,,,,,,,,,,,,,,,,,,CS1_USneg,None,1,,,,,,,,,,,,,,,,,,22,f,12,n,2019_Nov_14_1517,ec_RRR,3.0.4,84.99059149956297,
Stahl Bading Aust Heycke and Thomasius,Das Zielwesen für diese Aufgabe ist Shelmet:,"Also sobald Shelmet (sein Name oder sein Bild) auf dem Bildschirm erscheint, drücken Sie so schnell wie möglich die Leertaste. Drücken Sie die Leertaste immer, wenn Sie ein Bild von Shelmet oder das Wort SHELMET sehen. 

Drücken Sie die Leertaste, um die Aufgabe zu starten.",target2,stimuli/t2.jpg,12,80,stimuli/blank.jpg,blank,False,None,,,,,,,,,,,,,,0,0,0,0,,,,,0,0,0,1,0,79,79,79,,,,,,,,,,,,,,,,,,,,,,,,,,,,,,,,,,,,,,,,,,,,,,,,,,,,,CS1_USneg,None,1,,,,,,,,,,,,,,,,,,22,f,12,n,2019_Nov_14_1517,ec_RRR,3.0.4,84.99059149956297,
Stahl Bading Aust Heycke and Thomasius,Das Zielwesen für diese Aufgabe ist Shelmet:,"Also sobald Shelmet (sein Name oder sein Bild) auf dem Bildschirm erscheint, drücken Sie so schnell wie möglich die Leertaste. Drücken Sie die Leertaste immer, wenn Sie ein Bild von Shelmet oder das Wort SHELMET sehen. 

Drücken Sie die Leertaste, um die Aufgabe zu starten.",target2,stimuli/t2.jpg,12,81,stimuli/cs2_pos1.jpg,CSUS,False,None,,,,,,,,,,,,,,0,0,0,0,,,,,0,0,0,1,0,80,80,80,,,,,,,,,,,,,,,,,,,,,,,,,,,,,,,,,,,,,,,,,,,,,,,,,,,,,CS1_USneg,None,1,,,,,,,,,,,,,,,,,,22,f,12,n,2019_Nov_14_1517,ec_RRR,3.0.4,84.99059149956297,
Stahl Bading Aust Heycke and Thomasius,Das Zielwesen für diese Aufgabe ist Shelmet:,"Also sobald Shelmet (sein Name oder sein Bild) auf dem Bildschirm erscheint, drücken Sie so schnell wie möglich die Leertaste. Drücken Sie die Leertaste immer, wenn Sie ein Bild von Shelmet oder das Wort SHELMET sehen. 

Drücken Sie die Leertaste, um die Aufgabe zu starten.",target2,stimuli/t2.jpg,12,82,stimuli/blank.jpg,blank,False,None,,,,,,,,,,,,,,0,0,0,0,,,,,0,0,0,1,0,81,81,81,,,,,,,,,,,,,,,,,,,,,,,,,,,,,,,,,,,,,,,,,,,,,,,,,,,,,CS1_USneg,None,1,,,,,,,,,,,,,,,,,,22,f,12,n,2019_Nov_14_1517,ec_RRR,3.0.4,84.99059149956297,
Stahl Bading Aust Heycke and Thomasius,Das Zielwesen für diese Aufgabe ist Shelmet:,"Also sobald Shelmet (sein Name oder sein Bild) auf dem Bildschirm erscheint, drücken Sie so schnell wie möglich die Leertaste. Drücken Sie die Leertaste immer, wenn Sie ein Bild von Shelmet oder das Wort SHELMET sehen. 

Drücken Sie die Leertaste, um die Aufgabe zu starten.",target2,stimuli/t2.jpg,12,83,stimuli/filler8.jpg,filler,False,None,,,,,,,,,,,,,,0,0,0,0,,,,,0,0,0,1,0,82,82,82,,,,,,,,,,,,,,,,,,,,,,,,,,,,,,,,,,,,,,,,,,,,,,,,,,,,,CS1_USneg,None,1,,,,,,,,,,,,,,,,,,22,f,12,n,2019_Nov_14_1517,ec_RRR,3.0.4,84.99059149956297,
Stahl Bading Aust Heycke and Thomasius,Das Zielwesen für diese Aufgabe ist Shelmet:,"Also sobald Shelmet (sein Name oder sein Bild) auf dem Bildschirm erscheint, drücken Sie so schnell wie möglich die Leertaste. Drücken Sie die Leertaste immer, wenn Sie ein Bild von Shelmet oder das Wort SHELMET sehen. 

Drücken Sie die Leertaste, um die Aufgabe zu starten.",target2,stimuli/t2.jpg,12,84,stimuli/filler3.jpg,filler,False,None,,,,,,,,,,,,,,0,0,0,0,,,,,0,0,0,1,0,83,83,83,,,,,,,,,,,,,,,,,,,,,,,,,,,,,,,,,,,,,,,,,,,,,,,,,,,,,CS1_USneg,None,1,,,,,,,,,,,,,,,,,,22,f,12,n,2019_Nov_14_1517,ec_RRR,3.0.4,84.99059149956297,
Stahl Bading Aust Heycke and Thomasius,Das Zielwesen für diese Aufgabe ist Shelmet:,"Also sobald Shelmet (sein Name oder sein Bild) auf dem Bildschirm erscheint, drücken Sie so schnell wie möglich die Leertaste. Drücken Sie die Leertaste immer, wenn Sie ein Bild von Shelmet oder das Wort SHELMET sehen. 

Drücken Sie die Leertaste, um die Aufgabe zu starten.",target2,stimuli/t2.jpg,12,85,stimuli/filler42.jpg,filler,False,None,,,,,,,,,,,,,,0,0,0,0,,,,,0,0,0,1,0,84,84,84,,,,,,,,,,,,,,,,,,,,,,,,,,,,,,,,,,,,,,,,,,,,,,,,,,,,,CS1_USneg,None,1,,,,,,,,,,,,,,,,,,22,f,12,n,2019_Nov_14_1517,ec_RRR,3.0.4,84.99059149956297,
Stahl Bading Aust Heycke and Thomasius,Das Zielwesen für diese Aufgabe ist Shelmet:,"Also sobald Shelmet (sein Name oder sein Bild) auf dem Bildschirm erscheint, drücken Sie so schnell wie möglich die Leertaste. Drücken Sie die Leertaste immer, wenn Sie ein Bild von Shelmet oder das Wort SHELMET sehen. 

Drücken Sie die Leertaste, um die Aufgabe zu starten.",target2,stimuli/t2.jpg,12,86,stimuli/target2_4.jpg,target,True,space,,,,,,,,,,,,,,0,0,0,0,,,,,0,0,0,1,0,85,85,85,,,,,,,,,,,,,,,,,,,,,,,,,,,,,,,,,,,,,,,,,,,,,,,,,,,,,CS1_USneg,space,1,0.6238444153459568,,,,,,,,,,,,,,,,,22,f,12,n,2019_Nov_14_1517,ec_RRR,3.0.4,84.99059149956297,
Stahl Bading Aust Heycke and Thomasius,Das Zielwesen für diese Aufgabe ist Gourgeist:,"Also sobald Gourgeist (sein Name oder sein Bild) auf dem Bildschirm erscheint, drücken Sie so schnell wie möglich die Leertaste. Drücken Sie die Leertaste immer, wenn Sie ein Bild von Gourgeist oder das Wort GOURGEIST sehen. 

Drücken Sie die Leertaste, um die Aufgabe zu starten.",target5,stimuli/t5.jpg,12,1,stimuli/filler37.jpg,filler,False,None,,,,,,,,,,,,,,0,0,0,0,,,,,0,1,1,4,0,0,0,0,,,,,,,,,,,,,,,,,,,,,,,,,,,,,,,,,,,,,,,,,,,,,,,,,,,,,CS1_USneg,None,1,,,,,,,,,,,,,,,,,,22,f,12,n,2019_Nov_14_1517,ec_RRR,3.0.4,84.99059149956297,
Stahl Bading Aust Heycke and Thomasius,Das Zielwesen für diese Aufgabe ist Gourgeist:,"Also sobald Gourgeist (sein Name oder sein Bild) auf dem Bildschirm erscheint, drücken Sie so schnell wie möglich die Leertaste. Drücken Sie die Leertaste immer, wenn Sie ein Bild von Gourgeist oder das Wort GOURGEIST sehen. 

Drücken Sie die Leertaste, um die Aufgabe zu starten.",target5,stimuli/t5.jpg,12,2,stimuli/filler47.jpg,filler,False,None,,,,,,,,,,,,,,0,0,0,0,,,,,0,1,1,4,0,1,1,1,,,,,,,,,,,,,,,,,,,,,,,,,,,,,,,,,,,,,,,,,,,,,,,,,,,,,CS1_USneg,None,1,,,,,,,,,,,,,,,,,,22,f,12,n,2019_Nov_14_1517,ec_RRR,3.0.4,84.99059149956297,
Stahl Bading Aust Heycke and Thomasius,Das Zielwesen für diese Aufgabe ist Gourgeist:,"Also sobald Gourgeist (sein Name oder sein Bild) auf dem Bildschirm erscheint, drücken Sie so schnell wie möglich die Leertaste. Drücken Sie die Leertaste immer, wenn Sie ein Bild von Gourgeist oder das Wort GOURGEIST sehen. 

Drücken Sie die Leertaste, um die Aufgabe zu starten.",target5,stimuli/t5.jpg,12,3,stimuli/filler40.jpg,filler,False,None,,,,,,,,,,,,,,0,0,0,0,,,,,0,1,1,4,0,2,2,2,,,,,,,,,,,,,,,,,,,,,,,,,,,,,,,,,,,,,,,,,,,,,,,,,,,,,CS1_USneg,None,1,,,,,,,,,,,,,,,,,,22,f,12,n,2019_Nov_14_1517,ec_RRR,3.0.4,84.99059149956297,
Stahl Bading Aust Heycke and Thomasius,Das Zielwesen für diese Aufgabe ist Gourgeist:,"Also sobald Gourgeist (sein Name oder sein Bild) auf dem Bildschirm erscheint, drücken Sie so schnell wie möglich die Leertaste. Drücken Sie die Leertaste immer, wenn Sie ein Bild von Gourgeist oder das Wort GOURGEIST sehen. 

Drücken Sie die Leertaste, um die Aufgabe zu starten.",target5,stimuli/t5.jpg,12,4,stimuli/filler19.jpg,filler,False,None,,,,,,,,,,,,,,0,0,0,0,,,,,0,1,1,4,0,3,3,3,,,,,,,,,,,,,,,,,,,,,,,,,,,,,,,,,,,,,,,,,,,,,,,,,,,,,CS1_USneg,None,1,,,,,,,,,,,,,,,,,,22,f,12,n,2019_Nov_14_1517,ec_RRR,3.0.4,84.99059149956297,
Stahl Bading Aust Heycke and Thomasius,Das Zielwesen für diese Aufgabe ist Gourgeist:,"Also sobald Gourgeist (sein Name oder sein Bild) auf dem Bildschirm erscheint, drücken Sie so schnell wie möglich die Leertaste. Drücken Sie die Leertaste immer, wenn Sie ein Bild von Gourgeist oder das Wort GOURGEIST sehen. 

Drücken Sie die Leertaste, um die Aufgabe zu starten.",target5,stimuli/t5.jpg,12,5,stimuli/target5_10.jpg,target,True,space,,,,,,,,,,,,,,0,0,0,0,,,,,0,1,1,4,0,4,4,4,,,,,,,,,,,,,,,,,,,,,,,,,,,,,,,,,,,,,,,,,,,,,,,,,,,,,CS1_USneg,space,1,0.6369592094033578,,,,,,,,,,,,,,,,,22,f,12,n,2019_Nov_14_1517,ec_RRR,3.0.4,84.99059149956297,
Stahl Bading Aust Heycke and Thomasius,Das Zielwesen für diese Aufgabe ist Gourgeist:,"Also sobald Gourgeist (sein Name oder sein Bild) auf dem Bildschirm erscheint, drücken Sie so schnell wie möglich die Leertaste. Drücken Sie die Leertaste immer, wenn Sie ein Bild von Gourgeist oder das Wort GOURGEIST sehen. 

Drücken Sie die Leertaste, um die Aufgabe zu starten.",target5,stimuli/t5.jpg,12,6,stimuli/filler22.jpg,filler,False,None,,,,,,,,,,,,,,0,0,0,0,,,,,0,1,1,4,0,5,5,5,,,,,,,,,,,,,,,,,,,,,,,,,,,,,,,,,,,,,,,,,,,,,,,,,,,,,CS1_USneg,None,1,,,,,,,,,,,,,,,,,,22,f,12,n,2019_Nov_14_1517,ec_RRR,3.0.4,84.99059149956297,
Stahl Bading Aust Heycke and Thomasius,Das Zielwesen für diese Aufgabe ist Gourgeist:,"Also sobald Gourgeist (sein Name oder sein Bild) auf dem Bildschirm erscheint, drücken Sie so schnell wie möglich die Leertaste. Drücken Sie die Leertaste immer, wenn Sie ein Bild von Gourgeist oder das Wort GOURGEIST sehen. 

Drücken Sie die Leertaste, um die Aufgabe zu starten.",target5,stimuli/t5.jpg,12,7,stimuli/target5_6.jpg,target,True,space,,,,,,,,,,,,,,0,0,0,0,,,,,0,1,1,4,0,6,6,6,,,,,,,,,,,,,,,,,,,,,,,,,,,,,,,,,,,,,,,,,,,,,,,,,,,,,CS1_USneg,space,1,0.6003329140039568,,,,,,,,,,,,,,,,,22,f,12,n,2019_Nov_14_1517,ec_RRR,3.0.4,84.99059149956297,
Stahl Bading Aust Heycke and Thomasius,Das Zielwesen für diese Aufgabe ist Gourgeist:,"Also sobald Gourgeist (sein Name oder sein Bild) auf dem Bildschirm erscheint, drücken Sie so schnell wie möglich die Leertaste. Drücken Sie die Leertaste immer, wenn Sie ein Bild von Gourgeist oder das Wort GOURGEIST sehen. 

Drücken Sie die Leertaste, um die Aufgabe zu starten.",target5,stimuli/t5.jpg,12,8,stimuli/filler17.jpg,filler,False,None,,,,,,,,,,,,,,0,0,0,0,,,,,0,1,1,4,0,7,7,7,,,,,,,,,,,,,,,,,,,,,,,,,,,,,,,,,,,,,,,,,,,,,,,,,,,,,CS1_USneg,None,1,,,,,,,,,,,,,,,,,,22,f,12,n,2019_Nov_14_1517,ec_RRR,3.0.4,84.99059149956297,
Stahl Bading Aust Heycke and Thomasius,Das Zielwesen für diese Aufgabe ist Gourgeist:,"Also sobald Gourgeist (sein Name oder sein Bild) auf dem Bildschirm erscheint, drücken Sie so schnell wie möglich die Leertaste. Drücken Sie die Leertaste immer, wenn Sie ein Bild von Gourgeist oder das Wort GOURGEIST sehen. 

Drücken Sie die Leertaste, um die Aufgabe zu starten.",target5,stimuli/t5.jpg,12,9,stimuli/filler27.jpg,filler,False,None,,,,,,,,,,,,,,0,0,0,0,,,,,0,1,1,4,0,8,8,8,,,,,,,,,,,,,,,,,,,,,,,,,,,,,,,,,,,,,,,,,,,,,,,,,,,,,CS1_USneg,None,1,,,,,,,,,,,,,,,,,,22,f,12,n,2019_Nov_14_1517,ec_RRR,3.0.4,84.99059149956297,
Stahl Bading Aust Heycke and Thomasius,Das Zielwesen für diese Aufgabe ist Gourgeist:,"Also sobald Gourgeist (sein Name oder sein Bild) auf dem Bildschirm erscheint, drücken Sie so schnell wie möglich die Leertaste. Drücken Sie die Leertaste immer, wenn Sie ein Bild von Gourgeist oder das Wort GOURGEIST sehen. 

Drücken Sie die Leertaste, um die Aufgabe zu starten.",target5,stimuli/t5.jpg,12,10,stimuli/blank.jpg,blank,False,None,,,,,,,,,,,,,,0,0,0,0,,,,,0,1,1,4,0,9,9,9,,,,,,,,,,,,,,,,,,,,,,,,,,,,,,,,,,,,,,,,,,,,,,,,,,,,,CS1_USneg,None,1,,,,,,,,,,,,,,,,,,22,f,12,n,2019_Nov_14_1517,ec_RRR,3.0.4,84.99059149956297,
Stahl Bading Aust Heycke and Thomasius,Das Zielwesen für diese Aufgabe ist Gourgeist:,"Also sobald Gourgeist (sein Name oder sein Bild) auf dem Bildschirm erscheint, drücken Sie so schnell wie möglich die Leertaste. Drücken Sie die Leertaste immer, wenn Sie ein Bild von Gourgeist oder das Wort GOURGEIST sehen. 

Drücken Sie die Leertaste, um die Aufgabe zu starten.",target5,stimuli/t5.jpg,12,11,stimuli/cs1_neg12.jpg,CSUS,False,None,,,,,,,,,,,,,,0,0,0,0,,,,,0,1,1,4,0,10,10,10,,,,,,,,,,,,,,,,,,,,,,,,,,,,,,,,,,,,,,,,,,,,,,,,,,,,,CS1_USneg,None,1,,,,,,,,,,,,,,,,,,22,f,12,n,2019_Nov_14_1517,ec_RRR,3.0.4,84.99059149956297,
Stahl Bading Aust Heycke and Thomasius,Das Zielwesen für diese Aufgabe ist Gourgeist:,"Also sobald Gourgeist (sein Name oder sein Bild) auf dem Bildschirm erscheint, drücken Sie so schnell wie möglich die Leertaste. Drücken Sie die Leertaste immer, wenn Sie ein Bild von Gourgeist oder das Wort GOURGEIST sehen. 

Drücken Sie die Leertaste, um die Aufgabe zu starten.",target5,stimuli/t5.jpg,12,12,stimuli/blank.jpg,blank,False,None,,,,,,,,,,,,,,0,0,0,0,,,,,0,1,1,4,0,11,11,11,,,,,,,,,,,,,,,,,,,,,,,,,,,,,,,,,,,,,,,,,,,,,,,,,,,,,CS1_USneg,None,1,,,,,,,,,,,,,,,,,,22,f,12,n,2019_Nov_14_1517,ec_RRR,3.0.4,84.99059149956297,
Stahl Bading Aust Heycke and Thomasius,Das Zielwesen für diese Aufgabe ist Gourgeist:,"Also sobald Gourgeist (sein Name oder sein Bild) auf dem Bildschirm erscheint, drücken Sie so schnell wie möglich die Leertaste. Drücken Sie die Leertaste immer, wenn Sie ein Bild von Gourgeist oder das Wort GOURGEIST sehen. 

Drücken Sie die Leertaste, um die Aufgabe zu starten.",target5,stimuli/t5.jpg,12,13,stimuli/filler44.jpg,filler,False,None,,,,,,,,,,,,,,0,0,0,0,,,,,0,1,1,4,0,12,12,12,,,,,,,,,,,,,,,,,,,,,,,,,,,,,,,,,,,,,,,,,,,,,,,,,,,,,CS1_USneg,None,1,,,,,,,,,,,,,,,,,,22,f,12,n,2019_Nov_14_1517,ec_RRR,3.0.4,84.99059149956297,
Stahl Bading Aust Heycke and Thomasius,Das Zielwesen für diese Aufgabe ist Gourgeist:,"Also sobald Gourgeist (sein Name oder sein Bild) auf dem Bildschirm erscheint, drücken Sie so schnell wie möglich die Leertaste. Drücken Sie die Leertaste immer, wenn Sie ein Bild von Gourgeist oder das Wort GOURGEIST sehen. 

Drücken Sie die Leertaste, um die Aufgabe zu starten.",target5,stimuli/t5.jpg,12,14,stimuli/filler50.jpg,filler,False,None,,,,,,,,,,,,,,0,0,0,0,,,,,0,1,1,4,0,13,13,13,,,,,,,,,,,,,,,,,,,,,,,,,,,,,,,,,,,,,,,,,,,,,,,,,,,,,CS1_USneg,None,1,,,,,,,,,,,,,,,,,,22,f,12,n,2019_Nov_14_1517,ec_RRR,3.0.4,84.99059149956297,
Stahl Bading Aust Heycke and Thomasius,Das Zielwesen für diese Aufgabe ist Gourgeist:,"Also sobald Gourgeist (sein Name oder sein Bild) auf dem Bildschirm erscheint, drücken Sie so schnell wie möglich die Leertaste. Drücken Sie die Leertaste immer, wenn Sie ein Bild von Gourgeist oder das Wort GOURGEIST sehen. 

Drücken Sie die Leertaste, um die Aufgabe zu starten.",target5,stimuli/t5.jpg,12,15,stimuli/filler45.jpg,filler,False,None,,,,,,,,,,,,,,0,0,0,0,,,,,0,1,1,4,0,14,14,14,,,,,,,,,,,,,,,,,,,,,,,,,,,,,,,,,,,,,,,,,,,,,,,,,,,,,CS1_USneg,None,1,,,,,,,,,,,,,,,,,,22,f,12,n,2019_Nov_14_1517,ec_RRR,3.0.4,84.99059149956297,
Stahl Bading Aust Heycke and Thomasius,Das Zielwesen für diese Aufgabe ist Gourgeist:,"Also sobald Gourgeist (sein Name oder sein Bild) auf dem Bildschirm erscheint, drücken Sie so schnell wie möglich die Leertaste. Drücken Sie die Leertaste immer, wenn Sie ein Bild von Gourgeist oder das Wort GOURGEIST sehen. 

Drücken Sie die Leertaste, um die Aufgabe zu starten.",target5,stimuli/t5.jpg,12,16,stimuli/filler38.jpg,filler,False,None,,,,,,,,,,,,,,0,0,0,0,,,,,0,1,1,4,0,15,15,15,,,,,,,,,,,,,,,,,,,,,,,,,,,,,,,,,,,,,,,,,,,,,,,,,,,,,CS1_USneg,None,1,,,,,,,,,,,,,,,,,,22,f,12,n,2019_Nov_14_1517,ec_RRR,3.0.4,84.99059149956297,
Stahl Bading Aust Heycke and Thomasius,Das Zielwesen für diese Aufgabe ist Gourgeist:,"Also sobald Gourgeist (sein Name oder sein Bild) auf dem Bildschirm erscheint, drücken Sie so schnell wie möglich die Leertaste. Drücken Sie die Leertaste immer, wenn Sie ein Bild von Gourgeist oder das Wort GOURGEIST sehen. 

Drücken Sie die Leertaste, um die Aufgabe zu starten.",target5,stimuli/t5.jpg,12,17,stimuli/filler7.jpg,filler,False,None,,,,,,,,,,,,,,0,0,0,0,,,,,0,1,1,4,0,16,16,16,,,,,,,,,,,,,,,,,,,,,,,,,,,,,,,,,,,,,,,,,,,,,,,,,,,,,CS1_USneg,None,1,,,,,,,,,,,,,,,,,,22,f,12,n,2019_Nov_14_1517,ec_RRR,3.0.4,84.99059149956297,
Stahl Bading Aust Heycke and Thomasius,Das Zielwesen für diese Aufgabe ist Gourgeist:,"Also sobald Gourgeist (sein Name oder sein Bild) auf dem Bildschirm erscheint, drücken Sie so schnell wie möglich die Leertaste. Drücken Sie die Leertaste immer, wenn Sie ein Bild von Gourgeist oder das Wort GOURGEIST sehen. 

Drücken Sie die Leertaste, um die Aufgabe zu starten.",target5,stimuli/t5.jpg,12,18,stimuli/filler15.jpg,filler,False,None,,,,,,,,,,,,,,0,0,0,0,,,,,0,1,1,4,0,17,17,17,,,,,,,,,,,,,,,,,,,,,,,,,,,,,,,,,,,,,,,,,,,,,,,,,,,,,CS1_USneg,None,1,,,,,,,,,,,,,,,,,,22,f,12,n,2019_Nov_14_1517,ec_RRR,3.0.4,84.99059149956297,
Stahl Bading Aust Heycke and Thomasius,Das Zielwesen für diese Aufgabe ist Gourgeist:,"Also sobald Gourgeist (sein Name oder sein Bild) auf dem Bildschirm erscheint, drücken Sie so schnell wie möglich die Leertaste. Drücken Sie die Leertaste immer, wenn Sie ein Bild von Gourgeist oder das Wort GOURGEIST sehen. 

Drücken Sie die Leertaste, um die Aufgabe zu starten.",target5,stimuli/t5.jpg,12,19,stimuli/filler39.jpg,filler,False,None,,,,,,,,,,,,,,0,0,0,0,,,,,0,1,1,4,0,18,18,18,,,,,,,,,,,,,,,,,,,,,,,,,,,,,,,,,,,,,,,,,,,,,,,,,,,,,CS1_USneg,None,1,,,,,,,,,,,,,,,,,,22,f,12,n,2019_Nov_14_1517,ec_RRR,3.0.4,84.99059149956297,
Stahl Bading Aust Heycke and Thomasius,Das Zielwesen für diese Aufgabe ist Gourgeist:,"Also sobald Gourgeist (sein Name oder sein Bild) auf dem Bildschirm erscheint, drücken Sie so schnell wie möglich die Leertaste. Drücken Sie die Leertaste immer, wenn Sie ein Bild von Gourgeist oder das Wort GOURGEIST sehen. 

Drücken Sie die Leertaste, um die Aufgabe zu starten.",target5,stimuli/t5.jpg,12,20,stimuli/blank.jpg,blank,False,None,,,,,,,,,,,,,,0,0,0,0,,,,,0,1,1,4,0,19,19,19,,,,,,,,,,,,,,,,,,,,,,,,,,,,,,,,,,,,,,,,,,,,,,,,,,,,,CS1_USneg,None,1,,,,,,,,,,,,,,,,,,22,f,12,n,2019_Nov_14_1517,ec_RRR,3.0.4,84.99059149956297,
Stahl Bading Aust Heycke and Thomasius,Das Zielwesen für diese Aufgabe ist Gourgeist:,"Also sobald Gourgeist (sein Name oder sein Bild) auf dem Bildschirm erscheint, drücken Sie so schnell wie möglich die Leertaste. Drücken Sie die Leertaste immer, wenn Sie ein Bild von Gourgeist oder das Wort GOURGEIST sehen. 

Drücken Sie die Leertaste, um die Aufgabe zu starten.",target5,stimuli/t5.jpg,12,21,stimuli/cs2_pos12.jpg,CSUS,False,None,,,,,,,,,,,,,,0,0,0,0,,,,,0,1,1,4,0,20,20,20,,,,,,,,,,,,,,,,,,,,,,,,,,,,,,,,,,,,,,,,,,,,,,,,,,,,,CS1_USneg,None,1,,,,,,,,,,,,,,,,,,22,f,12,n,2019_Nov_14_1517,ec_RRR,3.0.4,84.99059149956297,
Stahl Bading Aust Heycke and Thomasius,Das Zielwesen für diese Aufgabe ist Gourgeist:,"Also sobald Gourgeist (sein Name oder sein Bild) auf dem Bildschirm erscheint, drücken Sie so schnell wie möglich die Leertaste. Drücken Sie die Leertaste immer, wenn Sie ein Bild von Gourgeist oder das Wort GOURGEIST sehen. 

Drücken Sie die Leertaste, um die Aufgabe zu starten.",target5,stimuli/t5.jpg,12,22,stimuli/blank.jpg,blank,False,None,,,,,,,,,,,,,,0,0,0,0,,,,,0,1,1,4,0,21,21,21,,,,,,,,,,,,,,,,,,,,,,,,,,,,,,,,,,,,,,,,,,,,,,,,,,,,,CS1_USneg,None,1,,,,,,,,,,,,,,,,,,22,f,12,n,2019_Nov_14_1517,ec_RRR,3.0.4,84.99059149956297,
Stahl Bading Aust Heycke and Thomasius,Das Zielwesen für diese Aufgabe ist Gourgeist:,"Also sobald Gourgeist (sein Name oder sein Bild) auf dem Bildschirm erscheint, drücken Sie so schnell wie möglich die Leertaste. Drücken Sie die Leertaste immer, wenn Sie ein Bild von Gourgeist oder das Wort GOURGEIST sehen. 

Drücken Sie die Leertaste, um die Aufgabe zu starten.",target5,stimuli/t5.jpg,12,23,stimuli/filler3.jpg,filler,False,None,,,,,,,,,,,,,,0,0,0,0,,,,,0,1,1,4,0,22,22,22,,,,,,,,,,,,,,,,,,,,,,,,,,,,,,,,,,,,,,,,,,,,,,,,,,,,,CS1_USneg,None,1,,,,,,,,,,,,,,,,,,22,f,12,n,2019_Nov_14_1517,ec_RRR,3.0.4,84.99059149956297,
Stahl Bading Aust Heycke and Thomasius,Das Zielwesen für diese Aufgabe ist Gourgeist:,"Also sobald Gourgeist (sein Name oder sein Bild) auf dem Bildschirm erscheint, drücken Sie so schnell wie möglich die Leertaste. Drücken Sie die Leertaste immer, wenn Sie ein Bild von Gourgeist oder das Wort GOURGEIST sehen. 

Drücken Sie die Leertaste, um die Aufgabe zu starten.",target5,stimuli/t5.jpg,12,24,stimuli/target5_9.jpg,target,True,space,,,,,,,,,,,,,,0,0,0,0,,,,,0,1,1,4,0,23,23,23,,,,,,,,,,,,,,,,,,,,,,,,,,,,,,,,,,,,,,,,,,,,,,,,,,,,,CS1_USneg,space,1,1.0120964848028962,,,,,,,,,,,,,,,,,22,f,12,n,2019_Nov_14_1517,ec_RRR,3.0.4,84.99059149956297,
Stahl Bading Aust Heycke and Thomasius,Das Zielwesen für diese Aufgabe ist Gourgeist:,"Also sobald Gourgeist (sein Name oder sein Bild) auf dem Bildschirm erscheint, drücken Sie so schnell wie möglich die Leertaste. Drücken Sie die Leertaste immer, wenn Sie ein Bild von Gourgeist oder das Wort GOURGEIST sehen. 

Drücken Sie die Leertaste, um die Aufgabe zu starten.",target5,stimuli/t5.jpg,12,25,stimuli/filler16.jpg,filler,False,None,,,,,,,,,,,,,,0,0,0,0,,,,,0,1,1,4,0,24,24,24,,,,,,,,,,,,,,,,,,,,,,,,,,,,,,,,,,,,,,,,,,,,,,,,,,,,,CS1_USneg,None,1,,,,,,,,,,,,,,,,,,22,f,12,n,2019_Nov_14_1517,ec_RRR,3.0.4,84.99059149956297,
Stahl Bading Aust Heycke and Thomasius,Das Zielwesen für diese Aufgabe ist Gourgeist:,"Also sobald Gourgeist (sein Name oder sein Bild) auf dem Bildschirm erscheint, drücken Sie so schnell wie möglich die Leertaste. Drücken Sie die Leertaste immer, wenn Sie ein Bild von Gourgeist oder das Wort GOURGEIST sehen. 

Drücken Sie die Leertaste, um die Aufgabe zu starten.",target5,stimuli/t5.jpg,12,26,stimuli/filler1.jpg,filler,False,None,,,,,,,,,,,,,,0,0,0,0,,,,,0,1,1,4,0,25,25,25,,,,,,,,,,,,,,,,,,,,,,,,,,,,,,,,,,,,,,,,,,,,,,,,,,,,,CS1_USneg,None,1,,,,,,,,,,,,,,,,,,22,f,12,n,2019_Nov_14_1517,ec_RRR,3.0.4,84.99059149956297,
Stahl Bading Aust Heycke and Thomasius,Das Zielwesen für diese Aufgabe ist Gourgeist:,"Also sobald Gourgeist (sein Name oder sein Bild) auf dem Bildschirm erscheint, drücken Sie so schnell wie möglich die Leertaste. Drücken Sie die Leertaste immer, wenn Sie ein Bild von Gourgeist oder das Wort GOURGEIST sehen. 

Drücken Sie die Leertaste, um die Aufgabe zu starten.",target5,stimuli/t5.jpg,12,27,stimuli/filler30.jpg,filler,False,None,,,,,,,,,,,,,,0,0,0,0,,,,,0,1,1,4,0,26,26,26,,,,,,,,,,,,,,,,,,,,,,,,,,,,,,,,,,,,,,,,,,,,,,,,,,,,,CS1_USneg,None,1,,,,,,,,,,,,,,,,,,22,f,12,n,2019_Nov_14_1517,ec_RRR,3.0.4,84.99059149956297,
Stahl Bading Aust Heycke and Thomasius,Das Zielwesen für diese Aufgabe ist Gourgeist:,"Also sobald Gourgeist (sein Name oder sein Bild) auf dem Bildschirm erscheint, drücken Sie so schnell wie möglich die Leertaste. Drücken Sie die Leertaste immer, wenn Sie ein Bild von Gourgeist oder das Wort GOURGEIST sehen. 

Drücken Sie die Leertaste, um die Aufgabe zu starten.",target5,stimuli/t5.jpg,12,28,stimuli/target5_4.jpg,target,True,space,,,,,,,,,,,,,,0,0,0,0,,,,,0,1,1,4,0,27,27,27,,,,,,,,,,,,,,,,,,,,,,,,,,,,,,,,,,,,,,,,,,,,,,,,,,,,,CS1_USneg,space,1,0.6709144742108037,,,,,,,,,,,,,,,,,22,f,12,n,2019_Nov_14_1517,ec_RRR,3.0.4,84.99059149956297,
Stahl Bading Aust Heycke and Thomasius,Das Zielwesen für diese Aufgabe ist Gourgeist:,"Also sobald Gourgeist (sein Name oder sein Bild) auf dem Bildschirm erscheint, drücken Sie so schnell wie möglich die Leertaste. Drücken Sie die Leertaste immer, wenn Sie ein Bild von Gourgeist oder das Wort GOURGEIST sehen. 

Drücken Sie die Leertaste, um die Aufgabe zu starten.",target5,stimuli/t5.jpg,12,29,stimuli/filler5.jpg,filler,False,None,,,,,,,,,,,,,,0,0,0,0,,,,,0,1,1,4,0,28,28,28,,,,,,,,,,,,,,,,,,,,,,,,,,,,,,,,,,,,,,,,,,,,,,,,,,,,,CS1_USneg,None,1,,,,,,,,,,,,,,,,,,22,f,12,n,2019_Nov_14_1517,ec_RRR,3.0.4,84.99059149956297,
Stahl Bading Aust Heycke and Thomasius,Das Zielwesen für diese Aufgabe ist Gourgeist:,"Also sobald Gourgeist (sein Name oder sein Bild) auf dem Bildschirm erscheint, drücken Sie so schnell wie möglich die Leertaste. Drücken Sie die Leertaste immer, wenn Sie ein Bild von Gourgeist oder das Wort GOURGEIST sehen. 

Drücken Sie die Leertaste, um die Aufgabe zu starten.",target5,stimuli/t5.jpg,12,30,stimuli/blank.jpg,blank,False,None,,,,,,,,,,,,,,0,0,0,0,,,,,0,1,1,4,0,29,29,29,,,,,,,,,,,,,,,,,,,,,,,,,,,,,,,,,,,,,,,,,,,,,,,,,,,,,CS1_USneg,None,1,,,,,,,,,,,,,,,,,,22,f,12,n,2019_Nov_14_1517,ec_RRR,3.0.4,84.99059149956297,
Stahl Bading Aust Heycke and Thomasius,Das Zielwesen für diese Aufgabe ist Gourgeist:,"Also sobald Gourgeist (sein Name oder sein Bild) auf dem Bildschirm erscheint, drücken Sie so schnell wie möglich die Leertaste. Drücken Sie die Leertaste immer, wenn Sie ein Bild von Gourgeist oder das Wort GOURGEIST sehen. 

Drücken Sie die Leertaste, um die Aufgabe zu starten.",target5,stimuli/t5.jpg,12,31,stimuli/cs1_neg4.jpg,CSUS,False,None,,,,,,,,,,,,,,0,0,0,0,,,,,0,1,1,4,0,30,30,30,,,,,,,,,,,,,,,,,,,,,,,,,,,,,,,,,,,,,,,,,,,,,,,,,,,,,CS1_USneg,None,1,,,,,,,,,,,,,,,,,,22,f,12,n,2019_Nov_14_1517,ec_RRR,3.0.4,84.99059149956297,
Stahl Bading Aust Heycke and Thomasius,Das Zielwesen für diese Aufgabe ist Gourgeist:,"Also sobald Gourgeist (sein Name oder sein Bild) auf dem Bildschirm erscheint, drücken Sie so schnell wie möglich die Leertaste. Drücken Sie die Leertaste immer, wenn Sie ein Bild von Gourgeist oder das Wort GOURGEIST sehen. 

Drücken Sie die Leertaste, um die Aufgabe zu starten.",target5,stimuli/t5.jpg,12,32,stimuli/blank.jpg,blank,False,None,,,,,,,,,,,,,,0,0,0,0,,,,,0,1,1,4,0,31,31,31,,,,,,,,,,,,,,,,,,,,,,,,,,,,,,,,,,,,,,,,,,,,,,,,,,,,,CS1_USneg,None,1,,,,,,,,,,,,,,,,,,22,f,12,n,2019_Nov_14_1517,ec_RRR,3.0.4,84.99059149956297,
Stahl Bading Aust Heycke and Thomasius,Das Zielwesen für diese Aufgabe ist Gourgeist:,"Also sobald Gourgeist (sein Name oder sein Bild) auf dem Bildschirm erscheint, drücken Sie so schnell wie möglich die Leertaste. Drücken Sie die Leertaste immer, wenn Sie ein Bild von Gourgeist oder das Wort GOURGEIST sehen. 

Drücken Sie die Leertaste, um die Aufgabe zu starten.",target5,stimuli/t5.jpg,12,33,stimuli/filler31.jpg,filler,False,None,,,,,,,,,,,,,,0,0,0,0,,,,,0,1,1,4,0,32,32,32,,,,,,,,,,,,,,,,,,,,,,,,,,,,,,,,,,,,,,,,,,,,,,,,,,,,,CS1_USneg,None,1,,,,,,,,,,,,,,,,,,22,f,12,n,2019_Nov_14_1517,ec_RRR,3.0.4,84.99059149956297,
Stahl Bading Aust Heycke and Thomasius,Das Zielwesen für diese Aufgabe ist Gourgeist:,"Also sobald Gourgeist (sein Name oder sein Bild) auf dem Bildschirm erscheint, drücken Sie so schnell wie möglich die Leertaste. Drücken Sie die Leertaste immer, wenn Sie ein Bild von Gourgeist oder das Wort GOURGEIST sehen. 

Drücken Sie die Leertaste, um die Aufgabe zu starten.",target5,stimuli/t5.jpg,12,34,stimuli/filler29.jpg,filler,False,None,,,,,,,,,,,,,,0,0,0,0,,,,,0,1,1,4,0,33,33,33,,,,,,,,,,,,,,,,,,,,,,,,,,,,,,,,,,,,,,,,,,,,,,,,,,,,,CS1_USneg,None,1,,,,,,,,,,,,,,,,,,22,f,12,n,2019_Nov_14_1517,ec_RRR,3.0.4,84.99059149956297,
Stahl Bading Aust Heycke and Thomasius,Das Zielwesen für diese Aufgabe ist Gourgeist:,"Also sobald Gourgeist (sein Name oder sein Bild) auf dem Bildschirm erscheint, drücken Sie so schnell wie möglich die Leertaste. Drücken Sie die Leertaste immer, wenn Sie ein Bild von Gourgeist oder das Wort GOURGEIST sehen. 

Drücken Sie die Leertaste, um die Aufgabe zu starten.",target5,stimuli/t5.jpg,12,35,stimuli/target5_1.jpg,target,True,space,,,,,,,,,,,,,,0,0,0,0,,,,,0,1,1,4,0,34,34,34,,,,,,,,,,,,,,,,,,,,,,,,,,,,,,,,,,,,,,,,,,,,,,,,,,,,,CS1_USneg,space,1,0.553277412085663,,,,,,,,,,,,,,,,,22,f,12,n,2019_Nov_14_1517,ec_RRR,3.0.4,84.99059149956297,
Stahl Bading Aust Heycke and Thomasius,Das Zielwesen für diese Aufgabe ist Gourgeist:,"Also sobald Gourgeist (sein Name oder sein Bild) auf dem Bildschirm erscheint, drücken Sie so schnell wie möglich die Leertaste. Drücken Sie die Leertaste immer, wenn Sie ein Bild von Gourgeist oder das Wort GOURGEIST sehen. 

Drücken Sie die Leertaste, um die Aufgabe zu starten.",target5,stimuli/t5.jpg,12,36,stimuli/filler24.jpg,filler,False,None,,,,,,,,,,,,,,0,0,0,0,,,,,0,1,1,4,0,35,35,35,,,,,,,,,,,,,,,,,,,,,,,,,,,,,,,,,,,,,,,,,,,,,,,,,,,,,CS1_USneg,None,1,,,,,,,,,,,,,,,,,,22,f,12,n,2019_Nov_14_1517,ec_RRR,3.0.4,84.99059149956297,
Stahl Bading Aust Heycke and Thomasius,Das Zielwesen für diese Aufgabe ist Gourgeist:,"Also sobald Gourgeist (sein Name oder sein Bild) auf dem Bildschirm erscheint, drücken Sie so schnell wie möglich die Leertaste. Drücken Sie die Leertaste immer, wenn Sie ein Bild von Gourgeist oder das Wort GOURGEIST sehen. 

Drücken Sie die Leertaste, um die Aufgabe zu starten.",target5,stimuli/t5.jpg,12,37,stimuli/filler20.jpg,filler,False,None,,,,,,,,,,,,,,0,0,0,0,,,,,0,1,1,4,0,36,36,36,,,,,,,,,,,,,,,,,,,,,,,,,,,,,,,,,,,,,,,,,,,,,,,,,,,,,CS1_USneg,None,1,,,,,,,,,,,,,,,,,,22,f,12,n,2019_Nov_14_1517,ec_RRR,3.0.4,84.99059149956297,
Stahl Bading Aust Heycke and Thomasius,Das Zielwesen für diese Aufgabe ist Gourgeist:,"Also sobald Gourgeist (sein Name oder sein Bild) auf dem Bildschirm erscheint, drücken Sie so schnell wie möglich die Leertaste. Drücken Sie die Leertaste immer, wenn Sie ein Bild von Gourgeist oder das Wort GOURGEIST sehen. 

Drücken Sie die Leertaste, um die Aufgabe zu starten.",target5,stimuli/t5.jpg,12,38,stimuli/filler41.jpg,filler,False,None,,,,,,,,,,,,,,0,0,0,0,,,,,0,1,1,4,0,37,37,37,,,,,,,,,,,,,,,,,,,,,,,,,,,,,,,,,,,,,,,,,,,,,,,,,,,,,CS1_USneg,None,1,,,,,,,,,,,,,,,,,,22,f,12,n,2019_Nov_14_1517,ec_RRR,3.0.4,84.99059149956297,
Stahl Bading Aust Heycke and Thomasius,Das Zielwesen für diese Aufgabe ist Gourgeist:,"Also sobald Gourgeist (sein Name oder sein Bild) auf dem Bildschirm erscheint, drücken Sie so schnell wie möglich die Leertaste. Drücken Sie die Leertaste immer, wenn Sie ein Bild von Gourgeist oder das Wort GOURGEIST sehen. 

Drücken Sie die Leertaste, um die Aufgabe zu starten.",target5,stimuli/t5.jpg,12,39,stimuli/filler48.jpg,filler,False,None,,,,,,,,,,,,,,0,0,0,0,,,,,0,1,1,4,0,38,38,38,,,,,,,,,,,,,,,,,,,,,,,,,,,,,,,,,,,,,,,,,,,,,,,,,,,,,CS1_USneg,None,1,,,,,,,,,,,,,,,,,,22,f,12,n,2019_Nov_14_1517,ec_RRR,3.0.4,84.99059149956297,
Stahl Bading Aust Heycke and Thomasius,Das Zielwesen für diese Aufgabe ist Gourgeist:,"Also sobald Gourgeist (sein Name oder sein Bild) auf dem Bildschirm erscheint, drücken Sie so schnell wie möglich die Leertaste. Drücken Sie die Leertaste immer, wenn Sie ein Bild von Gourgeist oder das Wort GOURGEIST sehen. 

Drücken Sie die Leertaste, um die Aufgabe zu starten.",target5,stimuli/t5.jpg,12,40,stimuli/blank.jpg,blank,False,None,,,,,,,,,,,,,,0,0,0,0,,,,,0,1,1,4,0,39,39,39,,,,,,,,,,,,,,,,,,,,,,,,,,,,,,,,,,,,,,,,,,,,,,,,,,,,,CS1_USneg,None,1,,,,,,,,,,,,,,,,,,22,f,12,n,2019_Nov_14_1517,ec_RRR,3.0.4,84.99059149956297,
Stahl Bading Aust Heycke and Thomasius,Das Zielwesen für diese Aufgabe ist Gourgeist:,"Also sobald Gourgeist (sein Name oder sein Bild) auf dem Bildschirm erscheint, drücken Sie so schnell wie möglich die Leertaste. Drücken Sie die Leertaste immer, wenn Sie ein Bild von Gourgeist oder das Wort GOURGEIST sehen. 

Drücken Sie die Leertaste, um die Aufgabe zu starten.",target5,stimuli/t5.jpg,12,41,stimuli/cs2_pos20.jpg,CSUS,False,None,,,,,,,,,,,,,,0,0,0,0,,,,,0,1,1,4,0,40,40,40,,,,,,,,,,,,,,,,,,,,,,,,,,,,,,,,,,,,,,,,,,,,,,,,,,,,,CS1_USneg,None,1,,,,,,,,,,,,,,,,,,22,f,12,n,2019_Nov_14_1517,ec_RRR,3.0.4,84.99059149956297,
Stahl Bading Aust Heycke and Thomasius,Das Zielwesen für diese Aufgabe ist Gourgeist:,"Also sobald Gourgeist (sein Name oder sein Bild) auf dem Bildschirm erscheint, drücken Sie so schnell wie möglich die Leertaste. Drücken Sie die Leertaste immer, wenn Sie ein Bild von Gourgeist oder das Wort GOURGEIST sehen. 

Drücken Sie die Leertaste, um die Aufgabe zu starten.",target5,stimuli/t5.jpg,12,42,stimuli/blank.jpg,blank,False,None,,,,,,,,,,,,,,0,0,0,0,,,,,0,1,1,4,0,41,41,41,,,,,,,,,,,,,,,,,,,,,,,,,,,,,,,,,,,,,,,,,,,,,,,,,,,,,CS1_USneg,None,1,,,,,,,,,,,,,,,,,,22,f,12,n,2019_Nov_14_1517,ec_RRR,3.0.4,84.99059149956297,
Stahl Bading Aust Heycke and Thomasius,Das Zielwesen für diese Aufgabe ist Gourgeist:,"Also sobald Gourgeist (sein Name oder sein Bild) auf dem Bildschirm erscheint, drücken Sie so schnell wie möglich die Leertaste. Drücken Sie die Leertaste immer, wenn Sie ein Bild von Gourgeist oder das Wort GOURGEIST sehen. 

Drücken Sie die Leertaste, um die Aufgabe zu starten.",target5,stimuli/t5.jpg,12,43,stimuli/filler11.jpg,filler,False,None,,,,,,,,,,,,,,0,0,0,0,,,,,0,1,1,4,0,42,42,42,,,,,,,,,,,,,,,,,,,,,,,,,,,,,,,,,,,,,,,,,,,,,,,,,,,,,CS1_USneg,None,1,,,,,,,,,,,,,,,,,,22,f,12,n,2019_Nov_14_1517,ec_RRR,3.0.4,84.99059149956297,
Stahl Bading Aust Heycke and Thomasius,Das Zielwesen für diese Aufgabe ist Gourgeist:,"Also sobald Gourgeist (sein Name oder sein Bild) auf dem Bildschirm erscheint, drücken Sie so schnell wie möglich die Leertaste. Drücken Sie die Leertaste immer, wenn Sie ein Bild von Gourgeist oder das Wort GOURGEIST sehen. 

Drücken Sie die Leertaste, um die Aufgabe zu starten.",target5,stimuli/t5.jpg,12,44,stimuli/filler32.jpg,filler,False,None,,,,,,,,,,,,,,0,0,0,0,,,,,0,1,1,4,0,43,43,43,,,,,,,,,,,,,,,,,,,,,,,,,,,,,,,,,,,,,,,,,,,,,,,,,,,,,CS1_USneg,None,1,,,,,,,,,,,,,,,,,,22,f,12,n,2019_Nov_14_1517,ec_RRR,3.0.4,84.99059149956297,
Stahl Bading Aust Heycke and Thomasius,Das Zielwesen für diese Aufgabe ist Gourgeist:,"Also sobald Gourgeist (sein Name oder sein Bild) auf dem Bildschirm erscheint, drücken Sie so schnell wie möglich die Leertaste. Drücken Sie die Leertaste immer, wenn Sie ein Bild von Gourgeist oder das Wort GOURGEIST sehen. 

Drücken Sie die Leertaste, um die Aufgabe zu starten.",target5,stimuli/t5.jpg,12,45,stimuli/target5_7.jpg,target,True,space,,,,,,,,,,,,,,0,0,0,0,,,,,0,1,1,4,0,44,44,44,,,,,,,,,,,,,,,,,,,,,,,,,,,,,,,,,,,,,,,,,,,,,,,,,,,,,CS1_USneg,space,1,0.7415061904266622,,,,,,,,,,,,,,,,,22,f,12,n,2019_Nov_14_1517,ec_RRR,3.0.4,84.99059149956297,
Stahl Bading Aust Heycke and Thomasius,Das Zielwesen für diese Aufgabe ist Gourgeist:,"Also sobald Gourgeist (sein Name oder sein Bild) auf dem Bildschirm erscheint, drücken Sie so schnell wie möglich die Leertaste. Drücken Sie die Leertaste immer, wenn Sie ein Bild von Gourgeist oder das Wort GOURGEIST sehen. 

Drücken Sie die Leertaste, um die Aufgabe zu starten.",target5,stimuli/t5.jpg,12,46,stimuli/filler26.jpg,filler,False,None,,,,,,,,,,,,,,0,0,0,0,,,,,0,1,1,4,0,45,45,45,,,,,,,,,,,,,,,,,,,,,,,,,,,,,,,,,,,,,,,,,,,,,,,,,,,,,CS1_USneg,None,1,,,,,,,,,,,,,,,,,,22,f,12,n,2019_Nov_14_1517,ec_RRR,3.0.4,84.99059149956297,
Stahl Bading Aust Heycke and Thomasius,Das Zielwesen für diese Aufgabe ist Gourgeist:,"Also sobald Gourgeist (sein Name oder sein Bild) auf dem Bildschirm erscheint, drücken Sie so schnell wie möglich die Leertaste. Drücken Sie die Leertaste immer, wenn Sie ein Bild von Gourgeist oder das Wort GOURGEIST sehen. 

Drücken Sie die Leertaste, um die Aufgabe zu starten.",target5,stimuli/t5.jpg,12,47,stimuli/filler8.jpg,filler,False,None,,,,,,,,,,,,,,0,0,0,0,,,,,0,1,1,4,0,46,46,46,,,,,,,,,,,,,,,,,,,,,,,,,,,,,,,,,,,,,,,,,,,,,,,,,,,,,CS1_USneg,None,1,,,,,,,,,,,,,,,,,,22,f,12,n,2019_Nov_14_1517,ec_RRR,3.0.4,84.99059149956297,
Stahl Bading Aust Heycke and Thomasius,Das Zielwesen für diese Aufgabe ist Gourgeist:,"Also sobald Gourgeist (sein Name oder sein Bild) auf dem Bildschirm erscheint, drücken Sie so schnell wie möglich die Leertaste. Drücken Sie die Leertaste immer, wenn Sie ein Bild von Gourgeist oder das Wort GOURGEIST sehen. 

Drücken Sie die Leertaste, um die Aufgabe zu starten.",target5,stimuli/t5.jpg,12,48,stimuli/target5_2.jpg,target,True,space,,,,,,,,,,,,,,0,0,0,0,,,,,0,1,1,4,0,47,47,47,,,,,,,,,,,,,,,,,,,,,,,,,,,,,,,,,,,,,,,,,,,,,,,,,,,,,CS1_USneg,space,1,0.5414889929161291,,,,,,,,,,,,,,,,,22,f,12,n,2019_Nov_14_1517,ec_RRR,3.0.4,84.99059149956297,
Stahl Bading Aust Heycke and Thomasius,Das Zielwesen für diese Aufgabe ist Gourgeist:,"Also sobald Gourgeist (sein Name oder sein Bild) auf dem Bildschirm erscheint, drücken Sie so schnell wie möglich die Leertaste. Drücken Sie die Leertaste immer, wenn Sie ein Bild von Gourgeist oder das Wort GOURGEIST sehen. 

Drücken Sie die Leertaste, um die Aufgabe zu starten.",target5,stimuli/t5.jpg,12,49,stimuli/filler6.jpg,filler,False,None,,,,,,,,,,,,,,0,0,0,0,,,,,0,1,1,4,0,48,48,48,,,,,,,,,,,,,,,,,,,,,,,,,,,,,,,,,,,,,,,,,,,,,,,,,,,,,CS1_USneg,None,1,,,,,,,,,,,,,,,,,,22,f,12,n,2019_Nov_14_1517,ec_RRR,3.0.4,84.99059149956297,
Stahl Bading Aust Heycke and Thomasius,Das Zielwesen für diese Aufgabe ist Gourgeist:,"Also sobald Gourgeist (sein Name oder sein Bild) auf dem Bildschirm erscheint, drücken Sie so schnell wie möglich die Leertaste. Drücken Sie die Leertaste immer, wenn Sie ein Bild von Gourgeist oder das Wort GOURGEIST sehen. 

Drücken Sie die Leertaste, um die Aufgabe zu starten.",target5,stimuli/t5.jpg,12,50,stimuli/blank.jpg,blank,False,None,,,,,,,,,,,,,,0,0,0,0,,,,,0,1,1,4,0,49,49,49,,,,,,,,,,,,,,,,,,,,,,,,,,,,,,,,,,,,,,,,,,,,,,,,,,,,,CS1_USneg,None,1,,,,,,,,,,,,,,,,,,22,f,12,n,2019_Nov_14_1517,ec_RRR,3.0.4,84.99059149956297,
Stahl Bading Aust Heycke and Thomasius,Das Zielwesen für diese Aufgabe ist Gourgeist:,"Also sobald Gourgeist (sein Name oder sein Bild) auf dem Bildschirm erscheint, drücken Sie so schnell wie möglich die Leertaste. Drücken Sie die Leertaste immer, wenn Sie ein Bild von Gourgeist oder das Wort GOURGEIST sehen. 

Drücken Sie die Leertaste, um die Aufgabe zu starten.",target5,stimuli/t5.jpg,12,51,stimuli/cs1_neg19.jpg,CSUS,False,None,,,,,,,,,,,,,,0,0,0,0,,,,,0,1,1,4,0,50,50,50,,,,,,,,,,,,,,,,,,,,,,,,,,,,,,,,,,,,,,,,,,,,,,,,,,,,,CS1_USneg,None,1,,,,,,,,,,,,,,,,,,22,f,12,n,2019_Nov_14_1517,ec_RRR,3.0.4,84.99059149956297,
Stahl Bading Aust Heycke and Thomasius,Das Zielwesen für diese Aufgabe ist Gourgeist:,"Also sobald Gourgeist (sein Name oder sein Bild) auf dem Bildschirm erscheint, drücken Sie so schnell wie möglich die Leertaste. Drücken Sie die Leertaste immer, wenn Sie ein Bild von Gourgeist oder das Wort GOURGEIST sehen. 

Drücken Sie die Leertaste, um die Aufgabe zu starten.",target5,stimuli/t5.jpg,12,52,stimuli/blank.jpg,blank,False,None,,,,,,,,,,,,,,0,0,0,0,,,,,0,1,1,4,0,51,51,51,,,,,,,,,,,,,,,,,,,,,,,,,,,,,,,,,,,,,,,,,,,,,,,,,,,,,CS1_USneg,None,1,,,,,,,,,,,,,,,,,,22,f,12,n,2019_Nov_14_1517,ec_RRR,3.0.4,84.99059149956297,
Stahl Bading Aust Heycke and Thomasius,Das Zielwesen für diese Aufgabe ist Gourgeist:,"Also sobald Gourgeist (sein Name oder sein Bild) auf dem Bildschirm erscheint, drücken Sie so schnell wie möglich die Leertaste. Drücken Sie die Leertaste immer, wenn Sie ein Bild von Gourgeist oder das Wort GOURGEIST sehen. 

Drücken Sie die Leertaste, um die Aufgabe zu starten.",target5,stimuli/t5.jpg,12,53,stimuli/filler33.jpg,filler,False,None,,,,,,,,,,,,,,0,0,0,0,,,,,0,1,1,4,0,52,52,52,,,,,,,,,,,,,,,,,,,,,,,,,,,,,,,,,,,,,,,,,,,,,,,,,,,,,CS1_USneg,None,1,,,,,,,,,,,,,,,,,,22,f,12,n,2019_Nov_14_1517,ec_RRR,3.0.4,84.99059149956297,
Stahl Bading Aust Heycke and Thomasius,Das Zielwesen für diese Aufgabe ist Gourgeist:,"Also sobald Gourgeist (sein Name oder sein Bild) auf dem Bildschirm erscheint, drücken Sie so schnell wie möglich die Leertaste. Drücken Sie die Leertaste immer, wenn Sie ein Bild von Gourgeist oder das Wort GOURGEIST sehen. 

Drücken Sie die Leertaste, um die Aufgabe zu starten.",target5,stimuli/t5.jpg,12,54,stimuli/filler35.jpg,filler,False,None,,,,,,,,,,,,,,0,0,0,0,,,,,0,1,1,4,0,53,53,53,,,,,,,,,,,,,,,,,,,,,,,,,,,,,,,,,,,,,,,,,,,,,,,,,,,,,CS1_USneg,None,1,,,,,,,,,,,,,,,,,,22,f,12,n,2019_Nov_14_1517,ec_RRR,3.0.4,84.99059149956297,
Stahl Bading Aust Heycke and Thomasius,Das Zielwesen für diese Aufgabe ist Gourgeist:,"Also sobald Gourgeist (sein Name oder sein Bild) auf dem Bildschirm erscheint, drücken Sie so schnell wie möglich die Leertaste. Drücken Sie die Leertaste immer, wenn Sie ein Bild von Gourgeist oder das Wort GOURGEIST sehen. 

Drücken Sie die Leertaste, um die Aufgabe zu starten.",target5,stimuli/t5.jpg,12,55,stimuli/target5_8.jpg,target,True,space,,,,,,,,,,,,,,0,0,0,0,,,,,0,1,1,4,0,54,54,54,,,,,,,,,,,,,,,,,,,,,,,,,,,,,,,,,,,,,,,,,,,,,,,,,,,,,CS1_USneg,space,1,0.6120952660803596,,,,,,,,,,,,,,,,,22,f,12,n,2019_Nov_14_1517,ec_RRR,3.0.4,84.99059149956297,
Stahl Bading Aust Heycke and Thomasius,Das Zielwesen für diese Aufgabe ist Gourgeist:,"Also sobald Gourgeist (sein Name oder sein Bild) auf dem Bildschirm erscheint, drücken Sie so schnell wie möglich die Leertaste. Drücken Sie die Leertaste immer, wenn Sie ein Bild von Gourgeist oder das Wort GOURGEIST sehen. 

Drücken Sie die Leertaste, um die Aufgabe zu starten.",target5,stimuli/t5.jpg,12,56,stimuli/filler13.jpg,filler,False,None,,,,,,,,,,,,,,0,0,0,0,,,,,0,1,1,4,0,55,55,55,,,,,,,,,,,,,,,,,,,,,,,,,,,,,,,,,,,,,,,,,,,,,,,,,,,,,CS1_USneg,space,0,0.18849452726499294,,,,,,,,,,,,,,,,,22,f,12,n,2019_Nov_14_1517,ec_RRR,3.0.4,84.99059149956297,
Stahl Bading Aust Heycke and Thomasius,Das Zielwesen für diese Aufgabe ist Gourgeist:,"Also sobald Gourgeist (sein Name oder sein Bild) auf dem Bildschirm erscheint, drücken Sie so schnell wie möglich die Leertaste. Drücken Sie die Leertaste immer, wenn Sie ein Bild von Gourgeist oder das Wort GOURGEIST sehen. 

Drücken Sie die Leertaste, um die Aufgabe zu starten.",target5,stimuli/t5.jpg,12,57,stimuli/filler18.jpg,filler,False,None,,,,,,,,,,,,,,0,0,0,0,,,,,0,1,1,4,0,56,56,56,,,,,,,,,,,,,,,,,,,,,,,,,,,,,,,,,,,,,,,,,,,,,,,,,,,,,CS1_USneg,None,1,,,,,,,,,,,,,,,,,,22,f,12,n,2019_Nov_14_1517,ec_RRR,3.0.4,84.99059149956297,
Stahl Bading Aust Heycke and Thomasius,Das Zielwesen für diese Aufgabe ist Gourgeist:,"Also sobald Gourgeist (sein Name oder sein Bild) auf dem Bildschirm erscheint, drücken Sie so schnell wie möglich die Leertaste. Drücken Sie die Leertaste immer, wenn Sie ein Bild von Gourgeist oder das Wort GOURGEIST sehen. 

Drücken Sie die Leertaste, um die Aufgabe zu starten.",target5,stimuli/t5.jpg,12,58,stimuli/filler34.jpg,filler,False,None,,,,,,,,,,,,,,0,0,0,0,,,,,0,1,1,4,0,57,57,57,,,,,,,,,,,,,,,,,,,,,,,,,,,,,,,,,,,,,,,,,,,,,,,,,,,,,CS1_USneg,None,1,,,,,,,,,,,,,,,,,,22,f,12,n,2019_Nov_14_1517,ec_RRR,3.0.4,84.99059149956297,
Stahl Bading Aust Heycke and Thomasius,Das Zielwesen für diese Aufgabe ist Gourgeist:,"Also sobald Gourgeist (sein Name oder sein Bild) auf dem Bildschirm erscheint, drücken Sie so schnell wie möglich die Leertaste. Drücken Sie die Leertaste immer, wenn Sie ein Bild von Gourgeist oder das Wort GOURGEIST sehen. 

Drücken Sie die Leertaste, um die Aufgabe zu starten.",target5,stimuli/t5.jpg,12,59,stimuli/filler12.jpg,filler,False,None,,,,,,,,,,,,,,0,0,0,0,,,,,0,1,1,4,0,58,58,58,,,,,,,,,,,,,,,,,,,,,,,,,,,,,,,,,,,,,,,,,,,,,,,,,,,,,CS1_USneg,None,1,,,,,,,,,,,,,,,,,,22,f,12,n,2019_Nov_14_1517,ec_RRR,3.0.4,84.99059149956297,
Stahl Bading Aust Heycke and Thomasius,Das Zielwesen für diese Aufgabe ist Gourgeist:,"Also sobald Gourgeist (sein Name oder sein Bild) auf dem Bildschirm erscheint, drücken Sie so schnell wie möglich die Leertaste. Drücken Sie die Leertaste immer, wenn Sie ein Bild von Gourgeist oder das Wort GOURGEIST sehen. 

Drücken Sie die Leertaste, um die Aufgabe zu starten.",target5,stimuli/t5.jpg,12,60,stimuli/blank.jpg,blank,False,None,,,,,,,,,,,,,,0,0,0,0,,,,,0,1,1,4,0,59,59,59,,,,,,,,,,,,,,,,,,,,,,,,,,,,,,,,,,,,,,,,,,,,,,,,,,,,,CS1_USneg,None,1,,,,,,,,,,,,,,,,,,22,f,12,n,2019_Nov_14_1517,ec_RRR,3.0.4,84.99059149956297,
Stahl Bading Aust Heycke and Thomasius,Das Zielwesen für diese Aufgabe ist Gourgeist:,"Also sobald Gourgeist (sein Name oder sein Bild) auf dem Bildschirm erscheint, drücken Sie so schnell wie möglich die Leertaste. Drücken Sie die Leertaste immer, wenn Sie ein Bild von Gourgeist oder das Wort GOURGEIST sehen. 

Drücken Sie die Leertaste, um die Aufgabe zu starten.",target5,stimuli/t5.jpg,12,61,stimuli/cs2_pos13.jpg,CSUS,False,None,,,,,,,,,,,,,,0,0,0,0,,,,,0,1,1,4,0,60,60,60,,,,,,,,,,,,,,,,,,,,,,,,,,,,,,,,,,,,,,,,,,,,,,,,,,,,,CS1_USneg,None,1,,,,,,,,,,,,,,,,,,22,f,12,n,2019_Nov_14_1517,ec_RRR,3.0.4,84.99059149956297,
Stahl Bading Aust Heycke and Thomasius,Das Zielwesen für diese Aufgabe ist Gourgeist:,"Also sobald Gourgeist (sein Name oder sein Bild) auf dem Bildschirm erscheint, drücken Sie so schnell wie möglich die Leertaste. Drücken Sie die Leertaste immer, wenn Sie ein Bild von Gourgeist oder das Wort GOURGEIST sehen. 

Drücken Sie die Leertaste, um die Aufgabe zu starten.",target5,stimuli/t5.jpg,12,62,stimuli/blank.jpg,blank,False,None,,,,,,,,,,,,,,0,0,0,0,,,,,0,1,1,4,0,61,61,61,,,,,,,,,,,,,,,,,,,,,,,,,,,,,,,,,,,,,,,,,,,,,,,,,,,,,CS1_USneg,None,1,,,,,,,,,,,,,,,,,,22,f,12,n,2019_Nov_14_1517,ec_RRR,3.0.4,84.99059149956297,
Stahl Bading Aust Heycke and Thomasius,Das Zielwesen für diese Aufgabe ist Gourgeist:,"Also sobald Gourgeist (sein Name oder sein Bild) auf dem Bildschirm erscheint, drücken Sie so schnell wie möglich die Leertaste. Drücken Sie die Leertaste immer, wenn Sie ein Bild von Gourgeist oder das Wort GOURGEIST sehen. 

Drücken Sie die Leertaste, um die Aufgabe zu starten.",target5,stimuli/t5.jpg,12,63,stimuli/filler49.jpg,filler,False,None,,,,,,,,,,,,,,0,0,0,0,,,,,0,1,1,4,0,62,62,62,,,,,,,,,,,,,,,,,,,,,,,,,,,,,,,,,,,,,,,,,,,,,,,,,,,,,CS1_USneg,None,1,,,,,,,,,,,,,,,,,,22,f,12,n,2019_Nov_14_1517,ec_RRR,3.0.4,84.99059149956297,
Stahl Bading Aust Heycke and Thomasius,Das Zielwesen für diese Aufgabe ist Gourgeist:,"Also sobald Gourgeist (sein Name oder sein Bild) auf dem Bildschirm erscheint, drücken Sie so schnell wie möglich die Leertaste. Drücken Sie die Leertaste immer, wenn Sie ein Bild von Gourgeist oder das Wort GOURGEIST sehen. 

Drücken Sie die Leertaste, um die Aufgabe zu starten.",target5,stimuli/t5.jpg,12,64,stimuli/filler42.jpg,filler,False,None,,,,,,,,,,,,,,0,0,0,0,,,,,0,1,1,4,0,63,63,63,,,,,,,,,,,,,,,,,,,,,,,,,,,,,,,,,,,,,,,,,,,,,,,,,,,,,CS1_USneg,None,1,,,,,,,,,,,,,,,,,,22,f,12,n,2019_Nov_14_1517,ec_RRR,3.0.4,84.99059149956297,
Stahl Bading Aust Heycke and Thomasius,Das Zielwesen für diese Aufgabe ist Gourgeist:,"Also sobald Gourgeist (sein Name oder sein Bild) auf dem Bildschirm erscheint, drücken Sie so schnell wie möglich die Leertaste. Drücken Sie die Leertaste immer, wenn Sie ein Bild von Gourgeist oder das Wort GOURGEIST sehen. 

Drücken Sie die Leertaste, um die Aufgabe zu starten.",target5,stimuli/t5.jpg,12,65,stimuli/filler4.jpg,filler,False,None,,,,,,,,,,,,,,0,0,0,0,,,,,0,1,1,4,0,64,64,64,,,,,,,,,,,,,,,,,,,,,,,,,,,,,,,,,,,,,,,,,,,,,,,,,,,,,CS1_USneg,None,1,,,,,,,,,,,,,,,,,,22,f,12,n,2019_Nov_14_1517,ec_RRR,3.0.4,84.99059149956297,
Stahl Bading Aust Heycke and Thomasius,Das Zielwesen für diese Aufgabe ist Gourgeist:,"Also sobald Gourgeist (sein Name oder sein Bild) auf dem Bildschirm erscheint, drücken Sie so schnell wie möglich die Leertaste. Drücken Sie die Leertaste immer, wenn Sie ein Bild von Gourgeist oder das Wort GOURGEIST sehen. 

Drücken Sie die Leertaste, um die Aufgabe zu starten.",target5,stimuli/t5.jpg,12,66,stimuli/filler28.jpg,filler,False,None,,,,,,,,,,,,,,0,0,0,0,,,,,0,1,1,4,0,65,65,65,,,,,,,,,,,,,,,,,,,,,,,,,,,,,,,,,,,,,,,,,,,,,,,,,,,,,CS1_USneg,None,1,,,,,,,,,,,,,,,,,,22,f,12,n,2019_Nov_14_1517,ec_RRR,3.0.4,84.99059149956297,
Stahl Bading Aust Heycke and Thomasius,Das Zielwesen für diese Aufgabe ist Gourgeist:,"Also sobald Gourgeist (sein Name oder sein Bild) auf dem Bildschirm erscheint, drücken Sie so schnell wie möglich die Leertaste. Drücken Sie die Leertaste immer, wenn Sie ein Bild von Gourgeist oder das Wort GOURGEIST sehen. 

Drücken Sie die Leertaste, um die Aufgabe zu starten.",target5,stimuli/t5.jpg,12,67,stimuli/filler52.jpg,filler,False,None,,,,,,,,,,,,,,0,0,0,0,,,,,0,1,1,4,0,66,66,66,,,,,,,,,,,,,,,,,,,,,,,,,,,,,,,,,,,,,,,,,,,,,,,,,,,,,CS1_USneg,None,1,,,,,,,,,,,,,,,,,,22,f,12,n,2019_Nov_14_1517,ec_RRR,3.0.4,84.99059149956297,
Stahl Bading Aust Heycke and Thomasius,Das Zielwesen für diese Aufgabe ist Gourgeist:,"Also sobald Gourgeist (sein Name oder sein Bild) auf dem Bildschirm erscheint, drücken Sie so schnell wie möglich die Leertaste. Drücken Sie die Leertaste immer, wenn Sie ein Bild von Gourgeist oder das Wort GOURGEIST sehen. 

Drücken Sie die Leertaste, um die Aufgabe zu starten.",target5,stimuli/t5.jpg,12,68,stimuli/filler46.jpg,filler,False,None,,,,,,,,,,,,,,0,0,0,0,,,,,0,1,1,4,0,67,67,67,,,,,,,,,,,,,,,,,,,,,,,,,,,,,,,,,,,,,,,,,,,,,,,,,,,,,CS1_USneg,None,1,,,,,,,,,,,,,,,,,,22,f,12,n,2019_Nov_14_1517,ec_RRR,3.0.4,84.99059149956297,
Stahl Bading Aust Heycke and Thomasius,Das Zielwesen für diese Aufgabe ist Gourgeist:,"Also sobald Gourgeist (sein Name oder sein Bild) auf dem Bildschirm erscheint, drücken Sie so schnell wie möglich die Leertaste. Drücken Sie die Leertaste immer, wenn Sie ein Bild von Gourgeist oder das Wort GOURGEIST sehen. 

Drücken Sie die Leertaste, um die Aufgabe zu starten.",target5,stimuli/t5.jpg,12,69,stimuli/filler25.jpg,filler,False,None,,,,,,,,,,,,,,0,0,0,0,,,,,0,1,1,4,0,68,68,68,,,,,,,,,,,,,,,,,,,,,,,,,,,,,,,,,,,,,,,,,,,,,,,,,,,,,CS1_USneg,None,1,,,,,,,,,,,,,,,,,,22,f,12,n,2019_Nov_14_1517,ec_RRR,3.0.4,84.99059149956297,
