data_collection_site,instructions_text_top,instructions_text_bottom,block_id,example_image,participant,trial_number,stimulus,trial_type,target_trial,surveillance_correct_response,filler_1_items,filler_2_items,middle_text,left_text,right_text,evaluation_stimulus,left_stimulus,right_stimulus,evaluation_response_indicating_CS1_preferred,awareness_1_question_text,awareness_2a_question_text,awareness_2b_question_text,awareness_2_question_text,record_data_collection_site_variable.thisRepN,record_data_collection_site_variable.thisTrialN,record_data_collection_site_variable.thisN,record_data_collection_site_variable.thisIndex,surveillance_instructions_loop.thisRepN,surveillance_instructions_loop.thisTrialN,surveillance_instructions_loop.thisN,surveillance_instructions_loop.thisIndex,surveillance_blocks_loop.thisRepN,surveillance_blocks_loop.thisTrialN,surveillance_blocks_loop.thisN,surveillance_blocks_loop.thisIndex,surveillance_trials_loop.thisRepN,surveillance_trials_loop.thisTrialN,surveillance_trials_loop.thisN,surveillance_trials_loop.thisIndex,filler_1_instructions_loop.thisRepN,filler_1_instructions_loop.thisTrialN,filler_1_instructions_loop.thisN,filler_1_instructions_loop.thisIndex,filler_1_loop.thisRepN,filler_1_loop.thisTrialN,filler_1_loop.thisN,filler_1_loop.thisIndex,filler_2_instructions_loop.thisRepN,filler_2_instructions_loop.thisTrialN,filler_2_instructions_loop.thisN,filler_2_instructions_loop.thisIndex,filler_2_loop.thisRepN,filler_2_loop.thisTrialN,filler_2_loop.thisN,filler_2_loop.thisIndex,evaluation_instructions_loop.thisRepN,evaluation_instructions_loop.thisTrialN,evaluation_instructions_loop.thisN,evaluation_instructions_loop.thisIndex,evaluation_loop.thisRepN,evaluation_loop.thisTrialN,evaluation_loop.thisN,evaluation_loop.thisIndex,evaluation_trials.thisRepN,evaluation_trials.thisTrialN,evaluation_trials.thisN,evaluation_trials.thisIndex,awareness_instructions_loop.thisRepN,awareness_instructions_loop.thisTrialN,awareness_instructions_loop.thisN,awareness_instructions_loop.thisIndex,awareness_1_trials_loop.thisRepN,awareness_1_trials_loop.thisTrialN,awareness_1_trials_loop.thisN,awareness_1_trials_loop.thisIndex,awareness_2a_trials_loop.thisRepN,awareness_2a_trials_loop.thisTrialN,awareness_2a_trials_loop.thisN,awareness_2a_trials_loop.thisIndex,awareness_2b_trials_loop.thisRepN,awareness_2b_trials_loop.thisTrialN,awareness_2b_trials_loop.thisN,awareness_2b_trials_loop.thisIndex,awareness_2c_trials_loop.thisRepN,awareness_2c_trials_loop.thisTrialN,awareness_2c_trials_loop.thisN,awareness_2c_trials_loop.thisIndex,end_message_loop.thisRepN,end_message_loop.thisTrialN,end_message_loop.thisN,end_message_loop.thisIndex,condition,surveillance_response.keys,surveillance_response.corr,surveillance_response.rt,filler_1_rating.response,filler_1_rating.rt,filler_2_rating.response,filler_2_rating.rt,evaluation_response.keys,evaluation_response.corr,evaluation_response.rt,inputText,awareness_1_response.keys,awareness_1_response.rt,awareness_type_2a_rating.response,awareness_type_2a_rating.rt,awareness_type_2b_rating.response,awareness_type_2b_rating.rt,awareness_type_2c_rating.response,awareness_type_2c_rating.rt,age,gender,participant,UseMonkey,date,expName,psychopyVersion,frameRate,
Stahl Bading Aust Heycke and Thomasius,Das Zielwesen für diese Aufgabe ist Magearna:,"Also sobald Magearna (sein Name oder sein Bild) auf dem Bildschirm erscheint, drücken Sie so schnell wie möglich die Leertaste. Drücken Sie die Leertaste immer, wenn Sie ein Bild von Magearna oder das Wort MAGEARNA sehen. 

Drücken Sie die Leertaste, um die Aufgabe zu starten.",target4,stimuli/t4.jpg,75,1,stimuli/filler24.jpg,filler,False,None,,,,,,,,,,,,,,0,0,0,0,,,,,0,0,0,3,0,0,0,0,,,,,,,,,,,,,,,,,,,,,,,,,,,,,,,,,,,,,,,,,,,,,,,,,,,,,CS1_USpos,None,1,,,,,,,,,,,,,,,,,,19,m,75,n,2019_Nov_21_1437,ec_RRR,3.0.4,85.00428774557605,
Stahl Bading Aust Heycke and Thomasius,Das Zielwesen für diese Aufgabe ist Magearna:,"Also sobald Magearna (sein Name oder sein Bild) auf dem Bildschirm erscheint, drücken Sie so schnell wie möglich die Leertaste. Drücken Sie die Leertaste immer, wenn Sie ein Bild von Magearna oder das Wort MAGEARNA sehen. 

Drücken Sie die Leertaste, um die Aufgabe zu starten.",target4,stimuli/t4.jpg,75,2,stimuli/filler33.jpg,filler,False,None,,,,,,,,,,,,,,0,0,0,0,,,,,0,0,0,3,0,1,1,1,,,,,,,,,,,,,,,,,,,,,,,,,,,,,,,,,,,,,,,,,,,,,,,,,,,,,CS1_USpos,None,1,,,,,,,,,,,,,,,,,,19,m,75,n,2019_Nov_21_1437,ec_RRR,3.0.4,85.00428774557605,
Stahl Bading Aust Heycke and Thomasius,Das Zielwesen für diese Aufgabe ist Magearna:,"Also sobald Magearna (sein Name oder sein Bild) auf dem Bildschirm erscheint, drücken Sie so schnell wie möglich die Leertaste. Drücken Sie die Leertaste immer, wenn Sie ein Bild von Magearna oder das Wort MAGEARNA sehen. 

Drücken Sie die Leertaste, um die Aufgabe zu starten.",target4,stimuli/t4.jpg,75,3,stimuli/filler23.jpg,filler,False,None,,,,,,,,,,,,,,0,0,0,0,,,,,0,0,0,3,0,2,2,2,,,,,,,,,,,,,,,,,,,,,,,,,,,,,,,,,,,,,,,,,,,,,,,,,,,,,CS1_USpos,None,1,,,,,,,,,,,,,,,,,,19,m,75,n,2019_Nov_21_1437,ec_RRR,3.0.4,85.00428774557605,
Stahl Bading Aust Heycke and Thomasius,Das Zielwesen für diese Aufgabe ist Magearna:,"Also sobald Magearna (sein Name oder sein Bild) auf dem Bildschirm erscheint, drücken Sie so schnell wie möglich die Leertaste. Drücken Sie die Leertaste immer, wenn Sie ein Bild von Magearna oder das Wort MAGEARNA sehen. 

Drücken Sie die Leertaste, um die Aufgabe zu starten.",target4,stimuli/t4.jpg,75,4,stimuli/target4_9.jpg,target,True,space,,,,,,,,,,,,,,0,0,0,0,,,,,0,0,0,3,0,3,3,3,,,,,,,,,,,,,,,,,,,,,,,,,,,,,,,,,,,,,,,,,,,,,,,,,,,,,CS1_USpos,space,1,0.5532503293934496,,,,,,,,,,,,,,,,,19,m,75,n,2019_Nov_21_1437,ec_RRR,3.0.4,85.00428774557605,
Stahl Bading Aust Heycke and Thomasius,Das Zielwesen für diese Aufgabe ist Magearna:,"Also sobald Magearna (sein Name oder sein Bild) auf dem Bildschirm erscheint, drücken Sie so schnell wie möglich die Leertaste. Drücken Sie die Leertaste immer, wenn Sie ein Bild von Magearna oder das Wort MAGEARNA sehen. 

Drücken Sie die Leertaste, um die Aufgabe zu starten.",target4,stimuli/t4.jpg,75,5,stimuli/filler10.jpg,filler,False,None,,,,,,,,,,,,,,0,0,0,0,,,,,0,0,0,3,0,4,4,4,,,,,,,,,,,,,,,,,,,,,,,,,,,,,,,,,,,,,,,,,,,,,,,,,,,,,CS1_USpos,None,1,,,,,,,,,,,,,,,,,,19,m,75,n,2019_Nov_21_1437,ec_RRR,3.0.4,85.00428774557605,
Stahl Bading Aust Heycke and Thomasius,Das Zielwesen für diese Aufgabe ist Magearna:,"Also sobald Magearna (sein Name oder sein Bild) auf dem Bildschirm erscheint, drücken Sie so schnell wie möglich die Leertaste. Drücken Sie die Leertaste immer, wenn Sie ein Bild von Magearna oder das Wort MAGEARNA sehen. 

Drücken Sie die Leertaste, um die Aufgabe zu starten.",target4,stimuli/t4.jpg,75,6,stimuli/filler43.jpg,filler,False,None,,,,,,,,,,,,,,0,0,0,0,,,,,0,0,0,3,0,5,5,5,,,,,,,,,,,,,,,,,,,,,,,,,,,,,,,,,,,,,,,,,,,,,,,,,,,,,CS1_USpos,None,1,,,,,,,,,,,,,,,,,,19,m,75,n,2019_Nov_21_1437,ec_RRR,3.0.4,85.00428774557605,
Stahl Bading Aust Heycke and Thomasius,Das Zielwesen für diese Aufgabe ist Magearna:,"Also sobald Magearna (sein Name oder sein Bild) auf dem Bildschirm erscheint, drücken Sie so schnell wie möglich die Leertaste. Drücken Sie die Leertaste immer, wenn Sie ein Bild von Magearna oder das Wort MAGEARNA sehen. 

Drücken Sie die Leertaste, um die Aufgabe zu starten.",target4,stimuli/t4.jpg,75,7,stimuli/filler9.jpg,filler,False,None,,,,,,,,,,,,,,0,0,0,0,,,,,0,0,0,3,0,6,6,6,,,,,,,,,,,,,,,,,,,,,,,,,,,,,,,,,,,,,,,,,,,,,,,,,,,,,CS1_USpos,None,1,,,,,,,,,,,,,,,,,,19,m,75,n,2019_Nov_21_1437,ec_RRR,3.0.4,85.00428774557605,
Stahl Bading Aust Heycke and Thomasius,Das Zielwesen für diese Aufgabe ist Magearna:,"Also sobald Magearna (sein Name oder sein Bild) auf dem Bildschirm erscheint, drücken Sie so schnell wie möglich die Leertaste. Drücken Sie die Leertaste immer, wenn Sie ein Bild von Magearna oder das Wort MAGEARNA sehen. 

Drücken Sie die Leertaste, um die Aufgabe zu starten.",target4,stimuli/t4.jpg,75,8,stimuli/filler30.jpg,filler,False,None,,,,,,,,,,,,,,0,0,0,0,,,,,0,0,0,3,0,7,7,7,,,,,,,,,,,,,,,,,,,,,,,,,,,,,,,,,,,,,,,,,,,,,,,,,,,,,CS1_USpos,None,1,,,,,,,,,,,,,,,,,,19,m,75,n,2019_Nov_21_1437,ec_RRR,3.0.4,85.00428774557605,
Stahl Bading Aust Heycke and Thomasius,Das Zielwesen für diese Aufgabe ist Magearna:,"Also sobald Magearna (sein Name oder sein Bild) auf dem Bildschirm erscheint, drücken Sie so schnell wie möglich die Leertaste. Drücken Sie die Leertaste immer, wenn Sie ein Bild von Magearna oder das Wort MAGEARNA sehen. 

Drücken Sie die Leertaste, um die Aufgabe zu starten.",target4,stimuli/t4.jpg,75,9,stimuli/filler16.jpg,filler,False,None,,,,,,,,,,,,,,0,0,0,0,,,,,0,0,0,3,0,8,8,8,,,,,,,,,,,,,,,,,,,,,,,,,,,,,,,,,,,,,,,,,,,,,,,,,,,,,CS1_USpos,None,1,,,,,,,,,,,,,,,,,,19,m,75,n,2019_Nov_21_1437,ec_RRR,3.0.4,85.00428774557605,
Stahl Bading Aust Heycke and Thomasius,Das Zielwesen für diese Aufgabe ist Magearna:,"Also sobald Magearna (sein Name oder sein Bild) auf dem Bildschirm erscheint, drücken Sie so schnell wie möglich die Leertaste. Drücken Sie die Leertaste immer, wenn Sie ein Bild von Magearna oder das Wort MAGEARNA sehen. 

Drücken Sie die Leertaste, um die Aufgabe zu starten.",target4,stimuli/t4.jpg,75,10,stimuli/blank.jpg,blank,False,None,,,,,,,,,,,,,,0,0,0,0,,,,,0,0,0,3,0,9,9,9,,,,,,,,,,,,,,,,,,,,,,,,,,,,,,,,,,,,,,,,,,,,,,,,,,,,,CS1_USpos,None,1,,,,,,,,,,,,,,,,,,19,m,75,n,2019_Nov_21_1437,ec_RRR,3.0.4,85.00428774557605,
Stahl Bading Aust Heycke and Thomasius,Das Zielwesen für diese Aufgabe ist Magearna:,"Also sobald Magearna (sein Name oder sein Bild) auf dem Bildschirm erscheint, drücken Sie so schnell wie möglich die Leertaste. Drücken Sie die Leertaste immer, wenn Sie ein Bild von Magearna oder das Wort MAGEARNA sehen. 

Drücken Sie die Leertaste, um die Aufgabe zu starten.",target4,stimuli/t4.jpg,75,11,stimuli/cs1_pos18.jpg,CSUS,False,None,,,,,,,,,,,,,,0,0,0,0,,,,,0,0,0,3,0,10,10,10,,,,,,,,,,,,,,,,,,,,,,,,,,,,,,,,,,,,,,,,,,,,,,,,,,,,,CS1_USpos,None,1,,,,,,,,,,,,,,,,,,19,m,75,n,2019_Nov_21_1437,ec_RRR,3.0.4,85.00428774557605,
Stahl Bading Aust Heycke and Thomasius,Das Zielwesen für diese Aufgabe ist Magearna:,"Also sobald Magearna (sein Name oder sein Bild) auf dem Bildschirm erscheint, drücken Sie so schnell wie möglich die Leertaste. Drücken Sie die Leertaste immer, wenn Sie ein Bild von Magearna oder das Wort MAGEARNA sehen. 

Drücken Sie die Leertaste, um die Aufgabe zu starten.",target4,stimuli/t4.jpg,75,12,stimuli/blank.jpg,blank,False,None,,,,,,,,,,,,,,0,0,0,0,,,,,0,0,0,3,0,11,11,11,,,,,,,,,,,,,,,,,,,,,,,,,,,,,,,,,,,,,,,,,,,,,,,,,,,,,CS1_USpos,None,1,,,,,,,,,,,,,,,,,,19,m,75,n,2019_Nov_21_1437,ec_RRR,3.0.4,85.00428774557605,
Stahl Bading Aust Heycke and Thomasius,Das Zielwesen für diese Aufgabe ist Magearna:,"Also sobald Magearna (sein Name oder sein Bild) auf dem Bildschirm erscheint, drücken Sie so schnell wie möglich die Leertaste. Drücken Sie die Leertaste immer, wenn Sie ein Bild von Magearna oder das Wort MAGEARNA sehen. 

Drücken Sie die Leertaste, um die Aufgabe zu starten.",target4,stimuli/t4.jpg,75,13,stimuli/filler49.jpg,filler,False,None,,,,,,,,,,,,,,0,0,0,0,,,,,0,0,0,3,0,12,12,12,,,,,,,,,,,,,,,,,,,,,,,,,,,,,,,,,,,,,,,,,,,,,,,,,,,,,CS1_USpos,None,1,,,,,,,,,,,,,,,,,,19,m,75,n,2019_Nov_21_1437,ec_RRR,3.0.4,85.00428774557605,
Stahl Bading Aust Heycke and Thomasius,Das Zielwesen für diese Aufgabe ist Magearna:,"Also sobald Magearna (sein Name oder sein Bild) auf dem Bildschirm erscheint, drücken Sie so schnell wie möglich die Leertaste. Drücken Sie die Leertaste immer, wenn Sie ein Bild von Magearna oder das Wort MAGEARNA sehen. 

Drücken Sie die Leertaste, um die Aufgabe zu starten.",target4,stimuli/t4.jpg,75,14,stimuli/target4_7.jpg,target,True,space,,,,,,,,,,,,,,0,0,0,0,,,,,0,0,0,3,0,13,13,13,,,,,,,,,,,,,,,,,,,,,,,,,,,,,,,,,,,,,,,,,,,,,,,,,,,,,CS1_USpos,space,1,0.659152122132582,,,,,,,,,,,,,,,,,19,m,75,n,2019_Nov_21_1437,ec_RRR,3.0.4,85.00428774557605,
Stahl Bading Aust Heycke and Thomasius,Das Zielwesen für diese Aufgabe ist Magearna:,"Also sobald Magearna (sein Name oder sein Bild) auf dem Bildschirm erscheint, drücken Sie so schnell wie möglich die Leertaste. Drücken Sie die Leertaste immer, wenn Sie ein Bild von Magearna oder das Wort MAGEARNA sehen. 

Drücken Sie die Leertaste, um die Aufgabe zu starten.",target4,stimuli/t4.jpg,75,15,stimuli/filler12.jpg,filler,False,None,,,,,,,,,,,,,,0,0,0,0,,,,,0,0,0,3,0,14,14,14,,,,,,,,,,,,,,,,,,,,,,,,,,,,,,,,,,,,,,,,,,,,,,,,,,,,,CS1_USpos,None,1,,,,,,,,,,,,,,,,,,19,m,75,n,2019_Nov_21_1437,ec_RRR,3.0.4,85.00428774557605,
Stahl Bading Aust Heycke and Thomasius,Das Zielwesen für diese Aufgabe ist Magearna:,"Also sobald Magearna (sein Name oder sein Bild) auf dem Bildschirm erscheint, drücken Sie so schnell wie möglich die Leertaste. Drücken Sie die Leertaste immer, wenn Sie ein Bild von Magearna oder das Wort MAGEARNA sehen. 

Drücken Sie die Leertaste, um die Aufgabe zu starten.",target4,stimuli/t4.jpg,75,16,stimuli/filler37.jpg,filler,False,None,,,,,,,,,,,,,,0,0,0,0,,,,,0,0,0,3,0,15,15,15,,,,,,,,,,,,,,,,,,,,,,,,,,,,,,,,,,,,,,,,,,,,,,,,,,,,,CS1_USpos,None,1,,,,,,,,,,,,,,,,,,19,m,75,n,2019_Nov_21_1437,ec_RRR,3.0.4,85.00428774557605,
Stahl Bading Aust Heycke and Thomasius,Das Zielwesen für diese Aufgabe ist Magearna:,"Also sobald Magearna (sein Name oder sein Bild) auf dem Bildschirm erscheint, drücken Sie so schnell wie möglich die Leertaste. Drücken Sie die Leertaste immer, wenn Sie ein Bild von Magearna oder das Wort MAGEARNA sehen. 

Drücken Sie die Leertaste, um die Aufgabe zu starten.",target4,stimuli/t4.jpg,75,17,stimuli/filler32.jpg,filler,False,None,,,,,,,,,,,,,,0,0,0,0,,,,,0,0,0,3,0,16,16,16,,,,,,,,,,,,,,,,,,,,,,,,,,,,,,,,,,,,,,,,,,,,,,,,,,,,,CS1_USpos,None,1,,,,,,,,,,,,,,,,,,19,m,75,n,2019_Nov_21_1437,ec_RRR,3.0.4,85.00428774557605,
Stahl Bading Aust Heycke and Thomasius,Das Zielwesen für diese Aufgabe ist Magearna:,"Also sobald Magearna (sein Name oder sein Bild) auf dem Bildschirm erscheint, drücken Sie so schnell wie möglich die Leertaste. Drücken Sie die Leertaste immer, wenn Sie ein Bild von Magearna oder das Wort MAGEARNA sehen. 

Drücken Sie die Leertaste, um die Aufgabe zu starten.",target4,stimuli/t4.jpg,75,18,stimuli/filler52.jpg,filler,False,None,,,,,,,,,,,,,,0,0,0,0,,,,,0,0,0,3,0,17,17,17,,,,,,,,,,,,,,,,,,,,,,,,,,,,,,,,,,,,,,,,,,,,,,,,,,,,,CS1_USpos,None,1,,,,,,,,,,,,,,,,,,19,m,75,n,2019_Nov_21_1437,ec_RRR,3.0.4,85.00428774557605,
Stahl Bading Aust Heycke and Thomasius,Das Zielwesen für diese Aufgabe ist Magearna:,"Also sobald Magearna (sein Name oder sein Bild) auf dem Bildschirm erscheint, drücken Sie so schnell wie möglich die Leertaste. Drücken Sie die Leertaste immer, wenn Sie ein Bild von Magearna oder das Wort MAGEARNA sehen. 

Drücken Sie die Leertaste, um die Aufgabe zu starten.",target4,stimuli/t4.jpg,75,19,stimuli/filler39.jpg,filler,False,None,,,,,,,,,,,,,,0,0,0,0,,,,,0,0,0,3,0,18,18,18,,,,,,,,,,,,,,,,,,,,,,,,,,,,,,,,,,,,,,,,,,,,,,,,,,,,,CS1_USpos,None,1,,,,,,,,,,,,,,,,,,19,m,75,n,2019_Nov_21_1437,ec_RRR,3.0.4,85.00428774557605,
Stahl Bading Aust Heycke and Thomasius,Das Zielwesen für diese Aufgabe ist Magearna:,"Also sobald Magearna (sein Name oder sein Bild) auf dem Bildschirm erscheint, drücken Sie so schnell wie möglich die Leertaste. Drücken Sie die Leertaste immer, wenn Sie ein Bild von Magearna oder das Wort MAGEARNA sehen. 

Drücken Sie die Leertaste, um die Aufgabe zu starten.",target4,stimuli/t4.jpg,75,20,stimuli/blank.jpg,blank,False,None,,,,,,,,,,,,,,0,0,0,0,,,,,0,0,0,3,0,19,19,19,,,,,,,,,,,,,,,,,,,,,,,,,,,,,,,,,,,,,,,,,,,,,,,,,,,,,CS1_USpos,None,1,,,,,,,,,,,,,,,,,,19,m,75,n,2019_Nov_21_1437,ec_RRR,3.0.4,85.00428774557605,
Stahl Bading Aust Heycke and Thomasius,Das Zielwesen für diese Aufgabe ist Magearna:,"Also sobald Magearna (sein Name oder sein Bild) auf dem Bildschirm erscheint, drücken Sie so schnell wie möglich die Leertaste. Drücken Sie die Leertaste immer, wenn Sie ein Bild von Magearna oder das Wort MAGEARNA sehen. 

Drücken Sie die Leertaste, um die Aufgabe zu starten.",target4,stimuli/t4.jpg,75,21,stimuli/cs2_neg20.jpg,CSUS,False,None,,,,,,,,,,,,,,0,0,0,0,,,,,0,0,0,3,0,20,20,20,,,,,,,,,,,,,,,,,,,,,,,,,,,,,,,,,,,,,,,,,,,,,,,,,,,,,CS1_USpos,None,1,,,,,,,,,,,,,,,,,,19,m,75,n,2019_Nov_21_1437,ec_RRR,3.0.4,85.00428774557605,
Stahl Bading Aust Heycke and Thomasius,Das Zielwesen für diese Aufgabe ist Magearna:,"Also sobald Magearna (sein Name oder sein Bild) auf dem Bildschirm erscheint, drücken Sie so schnell wie möglich die Leertaste. Drücken Sie die Leertaste immer, wenn Sie ein Bild von Magearna oder das Wort MAGEARNA sehen. 

Drücken Sie die Leertaste, um die Aufgabe zu starten.",target4,stimuli/t4.jpg,75,22,stimuli/blank.jpg,blank,False,None,,,,,,,,,,,,,,0,0,0,0,,,,,0,0,0,3,0,21,21,21,,,,,,,,,,,,,,,,,,,,,,,,,,,,,,,,,,,,,,,,,,,,,,,,,,,,,CS1_USpos,None,1,,,,,,,,,,,,,,,,,,19,m,75,n,2019_Nov_21_1437,ec_RRR,3.0.4,85.00428774557605,
Stahl Bading Aust Heycke and Thomasius,Das Zielwesen für diese Aufgabe ist Magearna:,"Also sobald Magearna (sein Name oder sein Bild) auf dem Bildschirm erscheint, drücken Sie so schnell wie möglich die Leertaste. Drücken Sie die Leertaste immer, wenn Sie ein Bild von Magearna oder das Wort MAGEARNA sehen. 

Drücken Sie die Leertaste, um die Aufgabe zu starten.",target4,stimuli/t4.jpg,75,23,stimuli/filler1.jpg,filler,False,None,,,,,,,,,,,,,,0,0,0,0,,,,,0,0,0,3,0,22,22,22,,,,,,,,,,,,,,,,,,,,,,,,,,,,,,,,,,,,,,,,,,,,,,,,,,,,,CS1_USpos,None,1,,,,,,,,,,,,,,,,,,19,m,75,n,2019_Nov_21_1437,ec_RRR,3.0.4,85.00428774557605,
Stahl Bading Aust Heycke and Thomasius,Das Zielwesen für diese Aufgabe ist Magearna:,"Also sobald Magearna (sein Name oder sein Bild) auf dem Bildschirm erscheint, drücken Sie so schnell wie möglich die Leertaste. Drücken Sie die Leertaste immer, wenn Sie ein Bild von Magearna oder das Wort MAGEARNA sehen. 

Drücken Sie die Leertaste, um die Aufgabe zu starten.",target4,stimuli/t4.jpg,75,24,stimuli/filler20.jpg,filler,False,None,,,,,,,,,,,,,,0,0,0,0,,,,,0,0,0,3,0,23,23,23,,,,,,,,,,,,,,,,,,,,,,,,,,,,,,,,,,,,,,,,,,,,,,,,,,,,,CS1_USpos,None,1,,,,,,,,,,,,,,,,,,19,m,75,n,2019_Nov_21_1437,ec_RRR,3.0.4,85.00428774557605,
Stahl Bading Aust Heycke and Thomasius,Das Zielwesen für diese Aufgabe ist Magearna:,"Also sobald Magearna (sein Name oder sein Bild) auf dem Bildschirm erscheint, drücken Sie so schnell wie möglich die Leertaste. Drücken Sie die Leertaste immer, wenn Sie ein Bild von Magearna oder das Wort MAGEARNA sehen. 

Drücken Sie die Leertaste, um die Aufgabe zu starten.",target4,stimuli/t4.jpg,75,25,stimuli/target4_1.jpg,target,True,space,,,,,,,,,,,,,,0,0,0,0,,,,,0,0,0,3,0,24,24,24,,,,,,,,,,,,,,,,,,,,,,,,,,,,,,,,,,,,,,,,,,,,,,,,,,,,,CS1_USpos,space,1,0.659159569872827,,,,,,,,,,,,,,,,,19,m,75,n,2019_Nov_21_1437,ec_RRR,3.0.4,85.00428774557605,
Stahl Bading Aust Heycke and Thomasius,Das Zielwesen für diese Aufgabe ist Magearna:,"Also sobald Magearna (sein Name oder sein Bild) auf dem Bildschirm erscheint, drücken Sie so schnell wie möglich die Leertaste. Drücken Sie die Leertaste immer, wenn Sie ein Bild von Magearna oder das Wort MAGEARNA sehen. 

Drücken Sie die Leertaste, um die Aufgabe zu starten.",target4,stimuli/t4.jpg,75,26,stimuli/filler21.jpg,filler,False,None,,,,,,,,,,,,,,0,0,0,0,,,,,0,0,0,3,0,25,25,25,,,,,,,,,,,,,,,,,,,,,,,,,,,,,,,,,,,,,,,,,,,,,,,,,,,,,CS1_USpos,None,1,,,,,,,,,,,,,,,,,,19,m,75,n,2019_Nov_21_1437,ec_RRR,3.0.4,85.00428774557605,
Stahl Bading Aust Heycke and Thomasius,Das Zielwesen für diese Aufgabe ist Magearna:,"Also sobald Magearna (sein Name oder sein Bild) auf dem Bildschirm erscheint, drücken Sie so schnell wie möglich die Leertaste. Drücken Sie die Leertaste immer, wenn Sie ein Bild von Magearna oder das Wort MAGEARNA sehen. 

Drücken Sie die Leertaste, um die Aufgabe zu starten.",target4,stimuli/t4.jpg,75,27,stimuli/filler25.jpg,filler,False,None,,,,,,,,,,,,,,0,0,0,0,,,,,0,0,0,3,0,26,26,26,,,,,,,,,,,,,,,,,,,,,,,,,,,,,,,,,,,,,,,,,,,,,,,,,,,,,CS1_USpos,None,1,,,,,,,,,,,,,,,,,,19,m,75,n,2019_Nov_21_1437,ec_RRR,3.0.4,85.00428774557605,
Stahl Bading Aust Heycke and Thomasius,Das Zielwesen für diese Aufgabe ist Magearna:,"Also sobald Magearna (sein Name oder sein Bild) auf dem Bildschirm erscheint, drücken Sie so schnell wie möglich die Leertaste. Drücken Sie die Leertaste immer, wenn Sie ein Bild von Magearna oder das Wort MAGEARNA sehen. 

Drücken Sie die Leertaste, um die Aufgabe zu starten.",target4,stimuli/t4.jpg,75,28,stimuli/filler42.jpg,filler,False,None,,,,,,,,,,,,,,0,0,0,0,,,,,0,0,0,3,0,27,27,27,,,,,,,,,,,,,,,,,,,,,,,,,,,,,,,,,,,,,,,,,,,,,,,,,,,,,CS1_USpos,None,1,,,,,,,,,,,,,,,,,,19,m,75,n,2019_Nov_21_1437,ec_RRR,3.0.4,85.00428774557605,
Stahl Bading Aust Heycke and Thomasius,Das Zielwesen für diese Aufgabe ist Magearna:,"Also sobald Magearna (sein Name oder sein Bild) auf dem Bildschirm erscheint, drücken Sie so schnell wie möglich die Leertaste. Drücken Sie die Leertaste immer, wenn Sie ein Bild von Magearna oder das Wort MAGEARNA sehen. 

Drücken Sie die Leertaste, um die Aufgabe zu starten.",target4,stimuli/t4.jpg,75,29,stimuli/filler27.jpg,filler,False,None,,,,,,,,,,,,,,0,0,0,0,,,,,0,0,0,3,0,28,28,28,,,,,,,,,,,,,,,,,,,,,,,,,,,,,,,,,,,,,,,,,,,,,,,,,,,,,CS1_USpos,None,1,,,,,,,,,,,,,,,,,,19,m,75,n,2019_Nov_21_1437,ec_RRR,3.0.4,85.00428774557605,
Stahl Bading Aust Heycke and Thomasius,Das Zielwesen für diese Aufgabe ist Magearna:,"Also sobald Magearna (sein Name oder sein Bild) auf dem Bildschirm erscheint, drücken Sie so schnell wie möglich die Leertaste. Drücken Sie die Leertaste immer, wenn Sie ein Bild von Magearna oder das Wort MAGEARNA sehen. 

Drücken Sie die Leertaste, um die Aufgabe zu starten.",target4,stimuli/t4.jpg,75,30,stimuli/blank.jpg,blank,False,None,,,,,,,,,,,,,,0,0,0,0,,,,,0,0,0,3,0,29,29,29,,,,,,,,,,,,,,,,,,,,,,,,,,,,,,,,,,,,,,,,,,,,,,,,,,,,,CS1_USpos,None,1,,,,,,,,,,,,,,,,,,19,m,75,n,2019_Nov_21_1437,ec_RRR,3.0.4,85.00428774557605,
Stahl Bading Aust Heycke and Thomasius,Das Zielwesen für diese Aufgabe ist Magearna:,"Also sobald Magearna (sein Name oder sein Bild) auf dem Bildschirm erscheint, drücken Sie so schnell wie möglich die Leertaste. Drücken Sie die Leertaste immer, wenn Sie ein Bild von Magearna oder das Wort MAGEARNA sehen. 

Drücken Sie die Leertaste, um die Aufgabe zu starten.",target4,stimuli/t4.jpg,75,31,stimuli/cs1_pos1.jpg,CSUS,False,None,,,,,,,,,,,,,,0,0,0,0,,,,,0,0,0,3,0,30,30,30,,,,,,,,,,,,,,,,,,,,,,,,,,,,,,,,,,,,,,,,,,,,,,,,,,,,,CS1_USpos,None,1,,,,,,,,,,,,,,,,,,19,m,75,n,2019_Nov_21_1437,ec_RRR,3.0.4,85.00428774557605,
Stahl Bading Aust Heycke and Thomasius,Das Zielwesen für diese Aufgabe ist Magearna:,"Also sobald Magearna (sein Name oder sein Bild) auf dem Bildschirm erscheint, drücken Sie so schnell wie möglich die Leertaste. Drücken Sie die Leertaste immer, wenn Sie ein Bild von Magearna oder das Wort MAGEARNA sehen. 

Drücken Sie die Leertaste, um die Aufgabe zu starten.",target4,stimuli/t4.jpg,75,32,stimuli/blank.jpg,blank,False,None,,,,,,,,,,,,,,0,0,0,0,,,,,0,0,0,3,0,31,31,31,,,,,,,,,,,,,,,,,,,,,,,,,,,,,,,,,,,,,,,,,,,,,,,,,,,,,CS1_USpos,None,1,,,,,,,,,,,,,,,,,,19,m,75,n,2019_Nov_21_1437,ec_RRR,3.0.4,85.00428774557605,
Stahl Bading Aust Heycke and Thomasius,Das Zielwesen für diese Aufgabe ist Magearna:,"Also sobald Magearna (sein Name oder sein Bild) auf dem Bildschirm erscheint, drücken Sie so schnell wie möglich die Leertaste. Drücken Sie die Leertaste immer, wenn Sie ein Bild von Magearna oder das Wort MAGEARNA sehen. 

Drücken Sie die Leertaste, um die Aufgabe zu starten.",target4,stimuli/t4.jpg,75,33,stimuli/filler38.jpg,filler,False,None,,,,,,,,,,,,,,0,0,0,0,,,,,0,0,0,3,0,32,32,32,,,,,,,,,,,,,,,,,,,,,,,,,,,,,,,,,,,,,,,,,,,,,,,,,,,,,CS1_USpos,None,1,,,,,,,,,,,,,,,,,,19,m,75,n,2019_Nov_21_1437,ec_RRR,3.0.4,85.00428774557605,
Stahl Bading Aust Heycke and Thomasius,Das Zielwesen für diese Aufgabe ist Magearna:,"Also sobald Magearna (sein Name oder sein Bild) auf dem Bildschirm erscheint, drücken Sie so schnell wie möglich die Leertaste. Drücken Sie die Leertaste immer, wenn Sie ein Bild von Magearna oder das Wort MAGEARNA sehen. 

Drücken Sie die Leertaste, um die Aufgabe zu starten.",target4,stimuli/t4.jpg,75,34,stimuli/target4_3.jpg,target,True,space,,,,,,,,,,,,,,0,0,0,0,,,,,0,0,0,3,0,33,33,33,,,,,,,,,,,,,,,,,,,,,,,,,,,,,,,,,,,,,,,,,,,,,,,,,,,,,CS1_USpos,space,1,0.5179595492900262,,,,,,,,,,,,,,,,,19,m,75,n,2019_Nov_21_1437,ec_RRR,3.0.4,85.00428774557605,
Stahl Bading Aust Heycke and Thomasius,Das Zielwesen für diese Aufgabe ist Magearna:,"Also sobald Magearna (sein Name oder sein Bild) auf dem Bildschirm erscheint, drücken Sie so schnell wie möglich die Leertaste. Drücken Sie die Leertaste immer, wenn Sie ein Bild von Magearna oder das Wort MAGEARNA sehen. 

Drücken Sie die Leertaste, um die Aufgabe zu starten.",target4,stimuli/t4.jpg,75,35,stimuli/filler47.jpg,filler,False,None,,,,,,,,,,,,,,0,0,0,0,,,,,0,0,0,3,0,34,34,34,,,,,,,,,,,,,,,,,,,,,,,,,,,,,,,,,,,,,,,,,,,,,,,,,,,,,CS1_USpos,None,1,,,,,,,,,,,,,,,,,,19,m,75,n,2019_Nov_21_1437,ec_RRR,3.0.4,85.00428774557605,
Stahl Bading Aust Heycke and Thomasius,Das Zielwesen für diese Aufgabe ist Magearna:,"Also sobald Magearna (sein Name oder sein Bild) auf dem Bildschirm erscheint, drücken Sie so schnell wie möglich die Leertaste. Drücken Sie die Leertaste immer, wenn Sie ein Bild von Magearna oder das Wort MAGEARNA sehen. 

Drücken Sie die Leertaste, um die Aufgabe zu starten.",target4,stimuli/t4.jpg,75,36,stimuli/filler3.jpg,filler,False,None,,,,,,,,,,,,,,0,0,0,0,,,,,0,0,0,3,0,35,35,35,,,,,,,,,,,,,,,,,,,,,,,,,,,,,,,,,,,,,,,,,,,,,,,,,,,,,CS1_USpos,None,1,,,,,,,,,,,,,,,,,,19,m,75,n,2019_Nov_21_1437,ec_RRR,3.0.4,85.00428774557605,
Stahl Bading Aust Heycke and Thomasius,Das Zielwesen für diese Aufgabe ist Magearna:,"Also sobald Magearna (sein Name oder sein Bild) auf dem Bildschirm erscheint, drücken Sie so schnell wie möglich die Leertaste. Drücken Sie die Leertaste immer, wenn Sie ein Bild von Magearna oder das Wort MAGEARNA sehen. 

Drücken Sie die Leertaste, um die Aufgabe zu starten.",target4,stimuli/t4.jpg,75,37,stimuli/filler28.jpg,filler,False,None,,,,,,,,,,,,,,0,0,0,0,,,,,0,0,0,3,0,36,36,36,,,,,,,,,,,,,,,,,,,,,,,,,,,,,,,,,,,,,,,,,,,,,,,,,,,,,CS1_USpos,None,1,,,,,,,,,,,,,,,,,,19,m,75,n,2019_Nov_21_1437,ec_RRR,3.0.4,85.00428774557605,
Stahl Bading Aust Heycke and Thomasius,Das Zielwesen für diese Aufgabe ist Magearna:,"Also sobald Magearna (sein Name oder sein Bild) auf dem Bildschirm erscheint, drücken Sie so schnell wie möglich die Leertaste. Drücken Sie die Leertaste immer, wenn Sie ein Bild von Magearna oder das Wort MAGEARNA sehen. 

Drücken Sie die Leertaste, um die Aufgabe zu starten.",target4,stimuli/t4.jpg,75,38,stimuli/filler26.jpg,filler,False,None,,,,,,,,,,,,,,0,0,0,0,,,,,0,0,0,3,0,37,37,37,,,,,,,,,,,,,,,,,,,,,,,,,,,,,,,,,,,,,,,,,,,,,,,,,,,,,CS1_USpos,None,1,,,,,,,,,,,,,,,,,,19,m,75,n,2019_Nov_21_1437,ec_RRR,3.0.4,85.00428774557605,
Stahl Bading Aust Heycke and Thomasius,Das Zielwesen für diese Aufgabe ist Magearna:,"Also sobald Magearna (sein Name oder sein Bild) auf dem Bildschirm erscheint, drücken Sie so schnell wie möglich die Leertaste. Drücken Sie die Leertaste immer, wenn Sie ein Bild von Magearna oder das Wort MAGEARNA sehen. 

Drücken Sie die Leertaste, um die Aufgabe zu starten.",target4,stimuli/t4.jpg,75,39,stimuli/target4_4.jpg,target,True,space,,,,,,,,,,,,,,0,0,0,0,,,,,0,0,0,3,0,38,38,38,,,,,,,,,,,,,,,,,,,,,,,,,,,,,,,,,,,,,,,,,,,,,,,,,,,,,CS1_USpos,space,1,0.45914135676139267,,,,,,,,,,,,,,,,,19,m,75,n,2019_Nov_21_1437,ec_RRR,3.0.4,85.00428774557605,
Stahl Bading Aust Heycke and Thomasius,Das Zielwesen für diese Aufgabe ist Magearna:,"Also sobald Magearna (sein Name oder sein Bild) auf dem Bildschirm erscheint, drücken Sie so schnell wie möglich die Leertaste. Drücken Sie die Leertaste immer, wenn Sie ein Bild von Magearna oder das Wort MAGEARNA sehen. 

Drücken Sie die Leertaste, um die Aufgabe zu starten.",target4,stimuli/t4.jpg,75,40,stimuli/blank.jpg,blank,False,None,,,,,,,,,,,,,,0,0,0,0,,,,,0,0,0,3,0,39,39,39,,,,,,,,,,,,,,,,,,,,,,,,,,,,,,,,,,,,,,,,,,,,,,,,,,,,,CS1_USpos,None,1,,,,,,,,,,,,,,,,,,19,m,75,n,2019_Nov_21_1437,ec_RRR,3.0.4,85.00428774557605,
Stahl Bading Aust Heycke and Thomasius,Das Zielwesen für diese Aufgabe ist Magearna:,"Also sobald Magearna (sein Name oder sein Bild) auf dem Bildschirm erscheint, drücken Sie so schnell wie möglich die Leertaste. Drücken Sie die Leertaste immer, wenn Sie ein Bild von Magearna oder das Wort MAGEARNA sehen. 

Drücken Sie die Leertaste, um die Aufgabe zu starten.",target4,stimuli/t4.jpg,75,41,stimuli/cs2_neg4.jpg,CSUS,False,None,,,,,,,,,,,,,,0,0,0,0,,,,,0,0,0,3,0,40,40,40,,,,,,,,,,,,,,,,,,,,,,,,,,,,,,,,,,,,,,,,,,,,,,,,,,,,,CS1_USpos,None,1,,,,,,,,,,,,,,,,,,19,m,75,n,2019_Nov_21_1437,ec_RRR,3.0.4,85.00428774557605,
Stahl Bading Aust Heycke and Thomasius,Das Zielwesen für diese Aufgabe ist Magearna:,"Also sobald Magearna (sein Name oder sein Bild) auf dem Bildschirm erscheint, drücken Sie so schnell wie möglich die Leertaste. Drücken Sie die Leertaste immer, wenn Sie ein Bild von Magearna oder das Wort MAGEARNA sehen. 

Drücken Sie die Leertaste, um die Aufgabe zu starten.",target4,stimuli/t4.jpg,75,42,stimuli/blank.jpg,blank,False,None,,,,,,,,,,,,,,0,0,0,0,,,,,0,0,0,3,0,41,41,41,,,,,,,,,,,,,,,,,,,,,,,,,,,,,,,,,,,,,,,,,,,,,,,,,,,,,CS1_USpos,None,1,,,,,,,,,,,,,,,,,,19,m,75,n,2019_Nov_21_1437,ec_RRR,3.0.4,85.00428774557605,
Stahl Bading Aust Heycke and Thomasius,Das Zielwesen für diese Aufgabe ist Magearna:,"Also sobald Magearna (sein Name oder sein Bild) auf dem Bildschirm erscheint, drücken Sie so schnell wie möglich die Leertaste. Drücken Sie die Leertaste immer, wenn Sie ein Bild von Magearna oder das Wort MAGEARNA sehen. 

Drücken Sie die Leertaste, um die Aufgabe zu starten.",target4,stimuli/t4.jpg,75,43,stimuli/filler51.jpg,filler,False,None,,,,,,,,,,,,,,0,0,0,0,,,,,0,0,0,3,0,42,42,42,,,,,,,,,,,,,,,,,,,,,,,,,,,,,,,,,,,,,,,,,,,,,,,,,,,,,CS1_USpos,None,1,,,,,,,,,,,,,,,,,,19,m,75,n,2019_Nov_21_1437,ec_RRR,3.0.4,85.00428774557605,
Stahl Bading Aust Heycke and Thomasius,Das Zielwesen für diese Aufgabe ist Magearna:,"Also sobald Magearna (sein Name oder sein Bild) auf dem Bildschirm erscheint, drücken Sie so schnell wie möglich die Leertaste. Drücken Sie die Leertaste immer, wenn Sie ein Bild von Magearna oder das Wort MAGEARNA sehen. 

Drücken Sie die Leertaste, um die Aufgabe zu starten.",target4,stimuli/t4.jpg,75,44,stimuli/filler6.jpg,filler,False,None,,,,,,,,,,,,,,0,0,0,0,,,,,0,0,0,3,0,43,43,43,,,,,,,,,,,,,,,,,,,,,,,,,,,,,,,,,,,,,,,,,,,,,,,,,,,,,CS1_USpos,None,1,,,,,,,,,,,,,,,,,,19,m,75,n,2019_Nov_21_1437,ec_RRR,3.0.4,85.00428774557605,
Stahl Bading Aust Heycke and Thomasius,Das Zielwesen für diese Aufgabe ist Magearna:,"Also sobald Magearna (sein Name oder sein Bild) auf dem Bildschirm erscheint, drücken Sie so schnell wie möglich die Leertaste. Drücken Sie die Leertaste immer, wenn Sie ein Bild von Magearna oder das Wort MAGEARNA sehen. 

Drücken Sie die Leertaste, um die Aufgabe zu starten.",target4,stimuli/t4.jpg,75,45,stimuli/filler18.jpg,filler,False,None,,,,,,,,,,,,,,0,0,0,0,,,,,0,0,0,3,0,44,44,44,,,,,,,,,,,,,,,,,,,,,,,,,,,,,,,,,,,,,,,,,,,,,,,,,,,,,CS1_USpos,None,1,,,,,,,,,,,,,,,,,,19,m,75,n,2019_Nov_21_1437,ec_RRR,3.0.4,85.00428774557605,
Stahl Bading Aust Heycke and Thomasius,Das Zielwesen für diese Aufgabe ist Magearna:,"Also sobald Magearna (sein Name oder sein Bild) auf dem Bildschirm erscheint, drücken Sie so schnell wie möglich die Leertaste. Drücken Sie die Leertaste immer, wenn Sie ein Bild von Magearna oder das Wort MAGEARNA sehen. 

Drücken Sie die Leertaste, um die Aufgabe zu starten.",target4,stimuli/t4.jpg,75,46,stimuli/filler46.jpg,filler,False,None,,,,,,,,,,,,,,0,0,0,0,,,,,0,0,0,3,0,45,45,45,,,,,,,,,,,,,,,,,,,,,,,,,,,,,,,,,,,,,,,,,,,,,,,,,,,,,CS1_USpos,None,1,,,,,,,,,,,,,,,,,,19,m,75,n,2019_Nov_21_1437,ec_RRR,3.0.4,85.00428774557605,
Stahl Bading Aust Heycke and Thomasius,Das Zielwesen für diese Aufgabe ist Magearna:,"Also sobald Magearna (sein Name oder sein Bild) auf dem Bildschirm erscheint, drücken Sie so schnell wie möglich die Leertaste. Drücken Sie die Leertaste immer, wenn Sie ein Bild von Magearna oder das Wort MAGEARNA sehen. 

Drücken Sie die Leertaste, um die Aufgabe zu starten.",target4,stimuli/t4.jpg,75,47,stimuli/target4_8.jpg,target,True,space,,,,,,,,,,,,,,0,0,0,0,,,,,0,0,0,3,0,46,46,46,,,,,,,,,,,,,,,,,,,,,,,,,,,,,,,,,,,,,,,,,,,,,,,,,,,,,CS1_USpos,space,1,0.5061789163937647,,,,,,,,,,,,,,,,,19,m,75,n,2019_Nov_21_1437,ec_RRR,3.0.4,85.00428774557605,
Stahl Bading Aust Heycke and Thomasius,Das Zielwesen für diese Aufgabe ist Magearna:,"Also sobald Magearna (sein Name oder sein Bild) auf dem Bildschirm erscheint, drücken Sie so schnell wie möglich die Leertaste. Drücken Sie die Leertaste immer, wenn Sie ein Bild von Magearna oder das Wort MAGEARNA sehen. 

Drücken Sie die Leertaste, um die Aufgabe zu starten.",target4,stimuli/t4.jpg,75,48,stimuli/filler41.jpg,filler,False,None,,,,,,,,,,,,,,0,0,0,0,,,,,0,0,0,3,0,47,47,47,,,,,,,,,,,,,,,,,,,,,,,,,,,,,,,,,,,,,,,,,,,,,,,,,,,,,CS1_USpos,None,1,,,,,,,,,,,,,,,,,,19,m,75,n,2019_Nov_21_1437,ec_RRR,3.0.4,85.00428774557605,
Stahl Bading Aust Heycke and Thomasius,Das Zielwesen für diese Aufgabe ist Magearna:,"Also sobald Magearna (sein Name oder sein Bild) auf dem Bildschirm erscheint, drücken Sie so schnell wie möglich die Leertaste. Drücken Sie die Leertaste immer, wenn Sie ein Bild von Magearna oder das Wort MAGEARNA sehen. 

Drücken Sie die Leertaste, um die Aufgabe zu starten.",target4,stimuli/t4.jpg,75,49,stimuli/filler31.jpg,filler,False,None,,,,,,,,,,,,,,0,0,0,0,,,,,0,0,0,3,0,48,48,48,,,,,,,,,,,,,,,,,,,,,,,,,,,,,,,,,,,,,,,,,,,,,,,,,,,,,CS1_USpos,None,1,,,,,,,,,,,,,,,,,,19,m,75,n,2019_Nov_21_1437,ec_RRR,3.0.4,85.00428774557605,
Stahl Bading Aust Heycke and Thomasius,Das Zielwesen für diese Aufgabe ist Magearna:,"Also sobald Magearna (sein Name oder sein Bild) auf dem Bildschirm erscheint, drücken Sie so schnell wie möglich die Leertaste. Drücken Sie die Leertaste immer, wenn Sie ein Bild von Magearna oder das Wort MAGEARNA sehen. 

Drücken Sie die Leertaste, um die Aufgabe zu starten.",target4,stimuli/t4.jpg,75,50,stimuli/blank.jpg,blank,False,None,,,,,,,,,,,,,,0,0,0,0,,,,,0,0,0,3,0,49,49,49,,,,,,,,,,,,,,,,,,,,,,,,,,,,,,,,,,,,,,,,,,,,,,,,,,,,,CS1_USpos,None,1,,,,,,,,,,,,,,,,,,19,m,75,n,2019_Nov_21_1437,ec_RRR,3.0.4,85.00428774557605,
Stahl Bading Aust Heycke and Thomasius,Das Zielwesen für diese Aufgabe ist Magearna:,"Also sobald Magearna (sein Name oder sein Bild) auf dem Bildschirm erscheint, drücken Sie so schnell wie möglich die Leertaste. Drücken Sie die Leertaste immer, wenn Sie ein Bild von Magearna oder das Wort MAGEARNA sehen. 

Drücken Sie die Leertaste, um die Aufgabe zu starten.",target4,stimuli/t4.jpg,75,51,stimuli/cs1_pos7.jpg,CSUS,False,None,,,,,,,,,,,,,,0,0,0,0,,,,,0,0,0,3,0,50,50,50,,,,,,,,,,,,,,,,,,,,,,,,,,,,,,,,,,,,,,,,,,,,,,,,,,,,,CS1_USpos,None,1,,,,,,,,,,,,,,,,,,19,m,75,n,2019_Nov_21_1437,ec_RRR,3.0.4,85.00428774557605,
Stahl Bading Aust Heycke and Thomasius,Das Zielwesen für diese Aufgabe ist Magearna:,"Also sobald Magearna (sein Name oder sein Bild) auf dem Bildschirm erscheint, drücken Sie so schnell wie möglich die Leertaste. Drücken Sie die Leertaste immer, wenn Sie ein Bild von Magearna oder das Wort MAGEARNA sehen. 

Drücken Sie die Leertaste, um die Aufgabe zu starten.",target4,stimuli/t4.jpg,75,52,stimuli/blank.jpg,blank,False,None,,,,,,,,,,,,,,0,0,0,0,,,,,0,0,0,3,0,51,51,51,,,,,,,,,,,,,,,,,,,,,,,,,,,,,,,,,,,,,,,,,,,,,,,,,,,,,CS1_USpos,None,1,,,,,,,,,,,,,,,,,,19,m,75,n,2019_Nov_21_1437,ec_RRR,3.0.4,85.00428774557605,
Stahl Bading Aust Heycke and Thomasius,Das Zielwesen für diese Aufgabe ist Magearna:,"Also sobald Magearna (sein Name oder sein Bild) auf dem Bildschirm erscheint, drücken Sie so schnell wie möglich die Leertaste. Drücken Sie die Leertaste immer, wenn Sie ein Bild von Magearna oder das Wort MAGEARNA sehen. 

Drücken Sie die Leertaste, um die Aufgabe zu starten.",target4,stimuli/t4.jpg,75,53,stimuli/filler35.jpg,filler,False,None,,,,,,,,,,,,,,0,0,0,0,,,,,0,0,0,3,0,52,52,52,,,,,,,,,,,,,,,,,,,,,,,,,,,,,,,,,,,,,,,,,,,,,,,,,,,,,CS1_USpos,None,1,,,,,,,,,,,,,,,,,,19,m,75,n,2019_Nov_21_1437,ec_RRR,3.0.4,85.00428774557605,
Stahl Bading Aust Heycke and Thomasius,Das Zielwesen für diese Aufgabe ist Magearna:,"Also sobald Magearna (sein Name oder sein Bild) auf dem Bildschirm erscheint, drücken Sie so schnell wie möglich die Leertaste. Drücken Sie die Leertaste immer, wenn Sie ein Bild von Magearna oder das Wort MAGEARNA sehen. 

Drücken Sie die Leertaste, um die Aufgabe zu starten.",target4,stimuli/t4.jpg,75,54,stimuli/filler36.jpg,filler,False,None,,,,,,,,,,,,,,0,0,0,0,,,,,0,0,0,3,0,53,53,53,,,,,,,,,,,,,,,,,,,,,,,,,,,,,,,,,,,,,,,,,,,,,,,,,,,,,CS1_USpos,None,1,,,,,,,,,,,,,,,,,,19,m,75,n,2019_Nov_21_1437,ec_RRR,3.0.4,85.00428774557605,
Stahl Bading Aust Heycke and Thomasius,Das Zielwesen für diese Aufgabe ist Magearna:,"Also sobald Magearna (sein Name oder sein Bild) auf dem Bildschirm erscheint, drücken Sie so schnell wie möglich die Leertaste. Drücken Sie die Leertaste immer, wenn Sie ein Bild von Magearna oder das Wort MAGEARNA sehen. 

Drücken Sie die Leertaste, um die Aufgabe zu starten.",target4,stimuli/t4.jpg,75,55,stimuli/filler13.jpg,filler,False,None,,,,,,,,,,,,,,0,0,0,0,,,,,0,0,0,3,0,54,54,54,,,,,,,,,,,,,,,,,,,,,,,,,,,,,,,,,,,,,,,,,,,,,,,,,,,,,CS1_USpos,None,1,,,,,,,,,,,,,,,,,,19,m,75,n,2019_Nov_21_1437,ec_RRR,3.0.4,85.00428774557605,
Stahl Bading Aust Heycke and Thomasius,Das Zielwesen für diese Aufgabe ist Magearna:,"Also sobald Magearna (sein Name oder sein Bild) auf dem Bildschirm erscheint, drücken Sie so schnell wie möglich die Leertaste. Drücken Sie die Leertaste immer, wenn Sie ein Bild von Magearna oder das Wort MAGEARNA sehen. 

Drücken Sie die Leertaste, um die Aufgabe zu starten.",target4,stimuli/t4.jpg,75,56,stimuli/filler11.jpg,filler,False,None,,,,,,,,,,,,,,0,0,0,0,,,,,0,0,0,3,0,55,55,55,,,,,,,,,,,,,,,,,,,,,,,,,,,,,,,,,,,,,,,,,,,,,,,,,,,,,CS1_USpos,None,1,,,,,,,,,,,,,,,,,,19,m,75,n,2019_Nov_21_1437,ec_RRR,3.0.4,85.00428774557605,
Stahl Bading Aust Heycke and Thomasius,Das Zielwesen für diese Aufgabe ist Magearna:,"Also sobald Magearna (sein Name oder sein Bild) auf dem Bildschirm erscheint, drücken Sie so schnell wie möglich die Leertaste. Drücken Sie die Leertaste immer, wenn Sie ein Bild von Magearna oder das Wort MAGEARNA sehen. 

Drücken Sie die Leertaste, um die Aufgabe zu starten.",target4,stimuli/t4.jpg,75,57,stimuli/filler22.jpg,filler,False,None,,,,,,,,,,,,,,0,0,0,0,,,,,0,0,0,3,0,56,56,56,,,,,,,,,,,,,,,,,,,,,,,,,,,,,,,,,,,,,,,,,,,,,,,,,,,,,CS1_USpos,None,1,,,,,,,,,,,,,,,,,,19,m,75,n,2019_Nov_21_1437,ec_RRR,3.0.4,85.00428774557605,
Stahl Bading Aust Heycke and Thomasius,Das Zielwesen für diese Aufgabe ist Magearna:,"Also sobald Magearna (sein Name oder sein Bild) auf dem Bildschirm erscheint, drücken Sie so schnell wie möglich die Leertaste. Drücken Sie die Leertaste immer, wenn Sie ein Bild von Magearna oder das Wort MAGEARNA sehen. 

Drücken Sie die Leertaste, um die Aufgabe zu starten.",target4,stimuli/t4.jpg,75,58,stimuli/target4_10.jpg,target,True,space,,,,,,,,,,,,,,0,0,0,0,,,,,0,0,0,3,0,57,57,57,,,,,,,,,,,,,,,,,,,,,,,,,,,,,,,,,,,,,,,,,,,,,,,,,,,,,CS1_USpos,space,1,0.3765760434616823,,,,,,,,,,,,,,,,,19,m,75,n,2019_Nov_21_1437,ec_RRR,3.0.4,85.00428774557605,
Stahl Bading Aust Heycke and Thomasius,Das Zielwesen für diese Aufgabe ist Magearna:,"Also sobald Magearna (sein Name oder sein Bild) auf dem Bildschirm erscheint, drücken Sie so schnell wie möglich die Leertaste. Drücken Sie die Leertaste immer, wenn Sie ein Bild von Magearna oder das Wort MAGEARNA sehen. 

Drücken Sie die Leertaste, um die Aufgabe zu starten.",target4,stimuli/t4.jpg,75,59,stimuli/filler45.jpg,filler,False,None,,,,,,,,,,,,,,0,0,0,0,,,,,0,0,0,3,0,58,58,58,,,,,,,,,,,,,,,,,,,,,,,,,,,,,,,,,,,,,,,,,,,,,,,,,,,,,CS1_USpos,None,1,,,,,,,,,,,,,,,,,,19,m,75,n,2019_Nov_21_1437,ec_RRR,3.0.4,85.00428774557605,
Stahl Bading Aust Heycke and Thomasius,Das Zielwesen für diese Aufgabe ist Magearna:,"Also sobald Magearna (sein Name oder sein Bild) auf dem Bildschirm erscheint, drücken Sie so schnell wie möglich die Leertaste. Drücken Sie die Leertaste immer, wenn Sie ein Bild von Magearna oder das Wort MAGEARNA sehen. 

Drücken Sie die Leertaste, um die Aufgabe zu starten.",target4,stimuli/t4.jpg,75,60,stimuli/blank.jpg,blank,False,None,,,,,,,,,,,,,,0,0,0,0,,,,,0,0,0,3,0,59,59,59,,,,,,,,,,,,,,,,,,,,,,,,,,,,,,,,,,,,,,,,,,,,,,,,,,,,,CS1_USpos,None,1,,,,,,,,,,,,,,,,,,19,m,75,n,2019_Nov_21_1437,ec_RRR,3.0.4,85.00428774557605,
Stahl Bading Aust Heycke and Thomasius,Das Zielwesen für diese Aufgabe ist Magearna:,"Also sobald Magearna (sein Name oder sein Bild) auf dem Bildschirm erscheint, drücken Sie so schnell wie möglich die Leertaste. Drücken Sie die Leertaste immer, wenn Sie ein Bild von Magearna oder das Wort MAGEARNA sehen. 

Drücken Sie die Leertaste, um die Aufgabe zu starten.",target4,stimuli/t4.jpg,75,61,stimuli/cs2_neg19.jpg,CSUS,False,None,,,,,,,,,,,,,,0,0,0,0,,,,,0,0,0,3,0,60,60,60,,,,,,,,,,,,,,,,,,,,,,,,,,,,,,,,,,,,,,,,,,,,,,,,,,,,,CS1_USpos,None,1,,,,,,,,,,,,,,,,,,19,m,75,n,2019_Nov_21_1437,ec_RRR,3.0.4,85.00428774557605,
Stahl Bading Aust Heycke and Thomasius,Das Zielwesen für diese Aufgabe ist Magearna:,"Also sobald Magearna (sein Name oder sein Bild) auf dem Bildschirm erscheint, drücken Sie so schnell wie möglich die Leertaste. Drücken Sie die Leertaste immer, wenn Sie ein Bild von Magearna oder das Wort MAGEARNA sehen. 

Drücken Sie die Leertaste, um die Aufgabe zu starten.",target4,stimuli/t4.jpg,75,62,stimuli/blank.jpg,blank,False,None,,,,,,,,,,,,,,0,0,0,0,,,,,0,0,0,3,0,61,61,61,,,,,,,,,,,,,,,,,,,,,,,,,,,,,,,,,,,,,,,,,,,,,,,,,,,,,CS1_USpos,None,1,,,,,,,,,,,,,,,,,,19,m,75,n,2019_Nov_21_1437,ec_RRR,3.0.4,85.00428774557605,
Stahl Bading Aust Heycke and Thomasius,Das Zielwesen für diese Aufgabe ist Magearna:,"Also sobald Magearna (sein Name oder sein Bild) auf dem Bildschirm erscheint, drücken Sie so schnell wie möglich die Leertaste. Drücken Sie die Leertaste immer, wenn Sie ein Bild von Magearna oder das Wort MAGEARNA sehen. 

Drücken Sie die Leertaste, um die Aufgabe zu starten.",target4,stimuli/t4.jpg,75,63,stimuli/filler8.jpg,filler,False,None,,,,,,,,,,,,,,0,0,0,0,,,,,0,0,0,3,0,62,62,62,,,,,,,,,,,,,,,,,,,,,,,,,,,,,,,,,,,,,,,,,,,,,,,,,,,,,CS1_USpos,None,1,,,,,,,,,,,,,,,,,,19,m,75,n,2019_Nov_21_1437,ec_RRR,3.0.4,85.00428774557605,
Stahl Bading Aust Heycke and Thomasius,Das Zielwesen für diese Aufgabe ist Magearna:,"Also sobald Magearna (sein Name oder sein Bild) auf dem Bildschirm erscheint, drücken Sie so schnell wie möglich die Leertaste. Drücken Sie die Leertaste immer, wenn Sie ein Bild von Magearna oder das Wort MAGEARNA sehen. 

Drücken Sie die Leertaste, um die Aufgabe zu starten.",target4,stimuli/t4.jpg,75,64,stimuli/filler34.jpg,filler,False,None,,,,,,,,,,,,,,0,0,0,0,,,,,0,0,0,3,0,63,63,63,,,,,,,,,,,,,,,,,,,,,,,,,,,,,,,,,,,,,,,,,,,,,,,,,,,,,CS1_USpos,None,1,,,,,,,,,,,,,,,,,,19,m,75,n,2019_Nov_21_1437,ec_RRR,3.0.4,85.00428774557605,
Stahl Bading Aust Heycke and Thomasius,Das Zielwesen für diese Aufgabe ist Magearna:,"Also sobald Magearna (sein Name oder sein Bild) auf dem Bildschirm erscheint, drücken Sie so schnell wie möglich die Leertaste. Drücken Sie die Leertaste immer, wenn Sie ein Bild von Magearna oder das Wort MAGEARNA sehen. 

Drücken Sie die Leertaste, um die Aufgabe zu starten.",target4,stimuli/t4.jpg,75,65,stimuli/filler44.jpg,filler,False,None,,,,,,,,,,,,,,0,0,0,0,,,,,0,0,0,3,0,64,64,64,,,,,,,,,,,,,,,,,,,,,,,,,,,,,,,,,,,,,,,,,,,,,,,,,,,,,CS1_USpos,None,1,,,,,,,,,,,,,,,,,,19,m,75,n,2019_Nov_21_1437,ec_RRR,3.0.4,85.00428774557605,
Stahl Bading Aust Heycke and Thomasius,Das Zielwesen für diese Aufgabe ist Magearna:,"Also sobald Magearna (sein Name oder sein Bild) auf dem Bildschirm erscheint, drücken Sie so schnell wie möglich die Leertaste. Drücken Sie die Leertaste immer, wenn Sie ein Bild von Magearna oder das Wort MAGEARNA sehen. 

Drücken Sie die Leertaste, um die Aufgabe zu starten.",target4,stimuli/t4.jpg,75,66,stimuli/filler19.jpg,filler,False,None,,,,,,,,,,,,,,0,0,0,0,,,,,0,0,0,3,0,65,65,65,,,,,,,,,,,,,,,,,,,,,,,,,,,,,,,,,,,,,,,,,,,,,,,,,,,,,CS1_USpos,None,1,,,,,,,,,,,,,,,,,,19,m,75,n,2019_Nov_21_1437,ec_RRR,3.0.4,85.00428774557605,
Stahl Bading Aust Heycke and Thomasius,Das Zielwesen für diese Aufgabe ist Magearna:,"Also sobald Magearna (sein Name oder sein Bild) auf dem Bildschirm erscheint, drücken Sie so schnell wie möglich die Leertaste. Drücken Sie die Leertaste immer, wenn Sie ein Bild von Magearna oder das Wort MAGEARNA sehen. 

Drücken Sie die Leertaste, um die Aufgabe zu starten.",target4,stimuli/t4.jpg,75,67,stimuli/filler29.jpg,filler,False,None,,,,,,,,,,,,,,0,0,0,0,,,,,0,0,0,3,0,66,66,66,,,,,,,,,,,,,,,,,,,,,,,,,,,,,,,,,,,,,,,,,,,,,,,,,,,,,CS1_USpos,None,1,,,,,,,,,,,,,,,,,,19,m,75,n,2019_Nov_21_1437,ec_RRR,3.0.4,85.00428774557605,
Stahl Bading Aust Heycke and Thomasius,Das Zielwesen für diese Aufgabe ist Magearna:,"Also sobald Magearna (sein Name oder sein Bild) auf dem Bildschirm erscheint, drücken Sie so schnell wie möglich die Leertaste. Drücken Sie die Leertaste immer, wenn Sie ein Bild von Magearna oder das Wort MAGEARNA sehen. 

Drücken Sie die Leertaste, um die Aufgabe zu starten.",target4,stimuli/t4.jpg,75,68,stimuli/filler14.jpg,filler,False,None,,,,,,,,,,,,,,0,0,0,0,,,,,0,0,0,3,0,67,67,67,,,,,,,,,,,,,,,,,,,,,,,,,,,,,,,,,,,,,,,,,,,,,,,,,,,,,CS1_USpos,None,1,,,,,,,,,,,,,,,,,,19,m,75,n,2019_Nov_21_1437,ec_RRR,3.0.4,85.00428774557605,
Stahl Bading Aust Heycke and Thomasius,Das Zielwesen für diese Aufgabe ist Magearna:,"Also sobald Magearna (sein Name oder sein Bild) auf dem Bildschirm erscheint, drücken Sie so schnell wie möglich die Leertaste. Drücken Sie die Leertaste immer, wenn Sie ein Bild von Magearna oder das Wort MAGEARNA sehen. 

Drücken Sie die Leertaste, um die Aufgabe zu starten.",target4,stimuli/t4.jpg,75,69,stimuli/filler48.jpg,filler,False,None,,,,,,,,,,,,,,0,0,0,0,,,,,0,0,0,3,0,68,68,68,,,,,,,,,,,,,,,,,,,,,,,,,,,,,,,,,,,,,,,,,,,,,,,,,,,,,CS1_USpos,None,1,,,,,,,,,,,,,,,,,,19,m,75,n,2019_Nov_21_1437,ec_RRR,3.0.4,85.00428774557605,
Stahl Bading Aust Heycke and Thomasius,Das Zielwesen für diese Aufgabe ist Magearna:,"Also sobald Magearna (sein Name oder sein Bild) auf dem Bildschirm erscheint, drücken Sie so schnell wie möglich die Leertaste. Drücken Sie die Leertaste immer, wenn Sie ein Bild von Magearna oder das Wort MAGEARNA sehen. 

Drücken Sie die Leertaste, um die Aufgabe zu starten.",target4,stimuli/t4.jpg,75,70,stimuli/blank.jpg,blank,False,None,,,,,,,,,,,,,,0,0,0,0,,,,,0,0,0,3,0,69,69,69,,,,,,,,,,,,,,,,,,,,,,,,,,,,,,,,,,,,,,,,,,,,,,,,,,,,,CS1_USpos,None,1,,,,,,,,,,,,,,,,,,19,m,75,n,2019_Nov_21_1437,ec_RRR,3.0.4,85.00428774557605,
Stahl Bading Aust Heycke and Thomasius,Das Zielwesen für diese Aufgabe ist Magearna:,"Also sobald Magearna (sein Name oder sein Bild) auf dem Bildschirm erscheint, drücken Sie so schnell wie möglich die Leertaste. Drücken Sie die Leertaste immer, wenn Sie ein Bild von Magearna oder das Wort MAGEARNA sehen. 

Drücken Sie die Leertaste, um die Aufgabe zu starten.",target4,stimuli/t4.jpg,75,71,stimuli/cs1_pos3.jpg,CSUS,False,None,,,,,,,,,,,,,,0,0,0,0,,,,,0,0,0,3,0,70,70,70,,,,,,,,,,,,,,,,,,,,,,,,,,,,,,,,,,,,,,,,,,,,,,,,,,,,,CS1_USpos,None,1,,,,,,,,,,,,,,,,,,19,m,75,n,2019_Nov_21_1437,ec_RRR,3.0.4,85.00428774557605,
Stahl Bading Aust Heycke and Thomasius,Das Zielwesen für diese Aufgabe ist Magearna:,"Also sobald Magearna (sein Name oder sein Bild) auf dem Bildschirm erscheint, drücken Sie so schnell wie möglich die Leertaste. Drücken Sie die Leertaste immer, wenn Sie ein Bild von Magearna oder das Wort MAGEARNA sehen. 

Drücken Sie die Leertaste, um die Aufgabe zu starten.",target4,stimuli/t4.jpg,75,72,stimuli/blank.jpg,blank,False,None,,,,,,,,,,,,,,0,0,0,0,,,,,0,0,0,3,0,71,71,71,,,,,,,,,,,,,,,,,,,,,,,,,,,,,,,,,,,,,,,,,,,,,,,,,,,,,CS1_USpos,None,1,,,,,,,,,,,,,,,,,,19,m,75,n,2019_Nov_21_1437,ec_RRR,3.0.4,85.00428774557605,
Stahl Bading Aust Heycke and Thomasius,Das Zielwesen für diese Aufgabe ist Magearna:,"Also sobald Magearna (sein Name oder sein Bild) auf dem Bildschirm erscheint, drücken Sie so schnell wie möglich die Leertaste. Drücken Sie die Leertaste immer, wenn Sie ein Bild von Magearna oder das Wort MAGEARNA sehen. 

Drücken Sie die Leertaste, um die Aufgabe zu starten.",target4,stimuli/t4.jpg,75,73,stimuli/filler15.jpg,filler,False,None,,,,,,,,,,,,,,0,0,0,0,,,,,0,0,0,3,0,72,72,72,,,,,,,,,,,,,,,,,,,,,,,,,,,,,,,,,,,,,,,,,,,,,,,,,,,,,CS1_USpos,None,1,,,,,,,,,,,,,,,,,,19,m,75,n,2019_Nov_21_1437,ec_RRR,3.0.4,85.00428774557605,
Stahl Bading Aust Heycke and Thomasius,Das Zielwesen für diese Aufgabe ist Magearna:,"Also sobald Magearna (sein Name oder sein Bild) auf dem Bildschirm erscheint, drücken Sie so schnell wie möglich die Leertaste. Drücken Sie die Leertaste immer, wenn Sie ein Bild von Magearna oder das Wort MAGEARNA sehen. 

Drücken Sie die Leertaste, um die Aufgabe zu starten.",target4,stimuli/t4.jpg,75,74,stimuli/filler40.jpg,filler,False,None,,,,,,,,,,,,,,0,0,0,0,,,,,0,0,0,3,0,73,73,73,,,,,,,,,,,,,,,,,,,,,,,,,,,,,,,,,,,,,,,,,,,,,,,,,,,,,CS1_USpos,None,1,,,,,,,,,,,,,,,,,,19,m,75,n,2019_Nov_21_1437,ec_RRR,3.0.4,85.00428774557605,
Stahl Bading Aust Heycke and Thomasius,Das Zielwesen für diese Aufgabe ist Magearna:,"Also sobald Magearna (sein Name oder sein Bild) auf dem Bildschirm erscheint, drücken Sie so schnell wie möglich die Leertaste. Drücken Sie die Leertaste immer, wenn Sie ein Bild von Magearna oder das Wort MAGEARNA sehen. 

Drücken Sie die Leertaste, um die Aufgabe zu starten.",target4,stimuli/t4.jpg,75,75,stimuli/target4_2.jpg,target,True,space,,,,,,,,,,,,,,0,0,0,0,,,,,0,0,0,3,0,74,74,74,,,,,,,,,,,,,,,,,,,,,,,,,,,,,,,,,,,,,,,,,,,,,,,,,,,,,CS1_USpos,space,1,0.4709260520603493,,,,,,,,,,,,,,,,,19,m,75,n,2019_Nov_21_1437,ec_RRR,3.0.4,85.00428774557605,
Stahl Bading Aust Heycke and Thomasius,Das Zielwesen für diese Aufgabe ist Magearna:,"Also sobald Magearna (sein Name oder sein Bild) auf dem Bildschirm erscheint, drücken Sie so schnell wie möglich die Leertaste. Drücken Sie die Leertaste immer, wenn Sie ein Bild von Magearna oder das Wort MAGEARNA sehen. 

Drücken Sie die Leertaste, um die Aufgabe zu starten.",target4,stimuli/t4.jpg,75,76,stimuli/filler50.jpg,filler,False,None,,,,,,,,,,,,,,0,0,0,0,,,,,0,0,0,3,0,75,75,75,,,,,,,,,,,,,,,,,,,,,,,,,,,,,,,,,,,,,,,,,,,,,,,,,,,,,CS1_USpos,None,1,,,,,,,,,,,,,,,,,,19,m,75,n,2019_Nov_21_1437,ec_RRR,3.0.4,85.00428774557605,
Stahl Bading Aust Heycke and Thomasius,Das Zielwesen für diese Aufgabe ist Magearna:,"Also sobald Magearna (sein Name oder sein Bild) auf dem Bildschirm erscheint, drücken Sie so schnell wie möglich die Leertaste. Drücken Sie die Leertaste immer, wenn Sie ein Bild von Magearna oder das Wort MAGEARNA sehen. 

Drücken Sie die Leertaste, um die Aufgabe zu starten.",target4,stimuli/t4.jpg,75,77,stimuli/filler2.jpg,filler,False,None,,,,,,,,,,,,,,0,0,0,0,,,,,0,0,0,3,0,76,76,76,,,,,,,,,,,,,,,,,,,,,,,,,,,,,,,,,,,,,,,,,,,,,,,,,,,,,CS1_USpos,None,1,,,,,,,,,,,,,,,,,,19,m,75,n,2019_Nov_21_1437,ec_RRR,3.0.4,85.00428774557605,
Stahl Bading Aust Heycke and Thomasius,Das Zielwesen für diese Aufgabe ist Magearna:,"Also sobald Magearna (sein Name oder sein Bild) auf dem Bildschirm erscheint, drücken Sie so schnell wie möglich die Leertaste. Drücken Sie die Leertaste immer, wenn Sie ein Bild von Magearna oder das Wort MAGEARNA sehen. 

Drücken Sie die Leertaste, um die Aufgabe zu starten.",target4,stimuli/t4.jpg,75,78,stimuli/filler7.jpg,filler,False,None,,,,,,,,,,,,,,0,0,0,0,,,,,0,0,0,3,0,77,77,77,,,,,,,,,,,,,,,,,,,,,,,,,,,,,,,,,,,,,,,,,,,,,,,,,,,,,CS1_USpos,None,1,,,,,,,,,,,,,,,,,,19,m,75,n,2019_Nov_21_1437,ec_RRR,3.0.4,85.00428774557605,
Stahl Bading Aust Heycke and Thomasius,Das Zielwesen für diese Aufgabe ist Magearna:,"Also sobald Magearna (sein Name oder sein Bild) auf dem Bildschirm erscheint, drücken Sie so schnell wie möglich die Leertaste. Drücken Sie die Leertaste immer, wenn Sie ein Bild von Magearna oder das Wort MAGEARNA sehen. 

Drücken Sie die Leertaste, um die Aufgabe zu starten.",target4,stimuli/t4.jpg,75,79,stimuli/filler4.jpg,filler,False,None,,,,,,,,,,,,,,0,0,0,0,,,,,0,0,0,3,0,78,78,78,,,,,,,,,,,,,,,,,,,,,,,,,,,,,,,,,,,,,,,,,,,,,,,,,,,,,CS1_USpos,None,1,,,,,,,,,,,,,,,,,,19,m,75,n,2019_Nov_21_1437,ec_RRR,3.0.4,85.00428774557605,
Stahl Bading Aust Heycke and Thomasius,Das Zielwesen für diese Aufgabe ist Magearna:,"Also sobald Magearna (sein Name oder sein Bild) auf dem Bildschirm erscheint, drücken Sie so schnell wie möglich die Leertaste. Drücken Sie die Leertaste immer, wenn Sie ein Bild von Magearna oder das Wort MAGEARNA sehen. 

Drücken Sie die Leertaste, um die Aufgabe zu starten.",target4,stimuli/t4.jpg,75,80,stimuli/blank.jpg,blank,False,None,,,,,,,,,,,,,,0,0,0,0,,,,,0,0,0,3,0,79,79,79,,,,,,,,,,,,,,,,,,,,,,,,,,,,,,,,,,,,,,,,,,,,,,,,,,,,,CS1_USpos,None,1,,,,,,,,,,,,,,,,,,19,m,75,n,2019_Nov_21_1437,ec_RRR,3.0.4,85.00428774557605,
Stahl Bading Aust Heycke and Thomasius,Das Zielwesen für diese Aufgabe ist Magearna:,"Also sobald Magearna (sein Name oder sein Bild) auf dem Bildschirm erscheint, drücken Sie so schnell wie möglich die Leertaste. Drücken Sie die Leertaste immer, wenn Sie ein Bild von Magearna oder das Wort MAGEARNA sehen. 

Drücken Sie die Leertaste, um die Aufgabe zu starten.",target4,stimuli/t4.jpg,75,81,stimuli/cs2_neg13.jpg,CSUS,False,None,,,,,,,,,,,,,,0,0,0,0,,,,,0,0,0,3,0,80,80,80,,,,,,,,,,,,,,,,,,,,,,,,,,,,,,,,,,,,,,,,,,,,,,,,,,,,,CS1_USpos,None,1,,,,,,,,,,,,,,,,,,19,m,75,n,2019_Nov_21_1437,ec_RRR,3.0.4,85.00428774557605,
Stahl Bading Aust Heycke and Thomasius,Das Zielwesen für diese Aufgabe ist Magearna:,"Also sobald Magearna (sein Name oder sein Bild) auf dem Bildschirm erscheint, drücken Sie so schnell wie möglich die Leertaste. Drücken Sie die Leertaste immer, wenn Sie ein Bild von Magearna oder das Wort MAGEARNA sehen. 

Drücken Sie die Leertaste, um die Aufgabe zu starten.",target4,stimuli/t4.jpg,75,82,stimuli/blank.jpg,blank,False,None,,,,,,,,,,,,,,0,0,0,0,,,,,0,0,0,3,0,81,81,81,,,,,,,,,,,,,,,,,,,,,,,,,,,,,,,,,,,,,,,,,,,,,,,,,,,,,CS1_USpos,None,1,,,,,,,,,,,,,,,,,,19,m,75,n,2019_Nov_21_1437,ec_RRR,3.0.4,85.00428774557605,
Stahl Bading Aust Heycke and Thomasius,Das Zielwesen für diese Aufgabe ist Magearna:,"Also sobald Magearna (sein Name oder sein Bild) auf dem Bildschirm erscheint, drücken Sie so schnell wie möglich die Leertaste. Drücken Sie die Leertaste immer, wenn Sie ein Bild von Magearna oder das Wort MAGEARNA sehen. 

Drücken Sie die Leertaste, um die Aufgabe zu starten.",target4,stimuli/t4.jpg,75,83,stimuli/target4_5.jpg,target,True,space,,,,,,,,,,,,,,0,0,0,0,,,,,0,0,0,3,0,82,82,82,,,,,,,,,,,,,,,,,,,,,,,,,,,,,,,,,,,,,,,,,,,,,,,,,,,,,CS1_USpos,space,1,0.5179805383768326,,,,,,,,,,,,,,,,,19,m,75,n,2019_Nov_21_1437,ec_RRR,3.0.4,85.00428774557605,
Stahl Bading Aust Heycke and Thomasius,Das Zielwesen für diese Aufgabe ist Magearna:,"Also sobald Magearna (sein Name oder sein Bild) auf dem Bildschirm erscheint, drücken Sie so schnell wie möglich die Leertaste. Drücken Sie die Leertaste immer, wenn Sie ein Bild von Magearna oder das Wort MAGEARNA sehen. 

Drücken Sie die Leertaste, um die Aufgabe zu starten.",target4,stimuli/t4.jpg,75,84,stimuli/filler5.jpg,filler,False,None,,,,,,,,,,,,,,0,0,0,0,,,,,0,0,0,3,0,83,83,83,,,,,,,,,,,,,,,,,,,,,,,,,,,,,,,,,,,,,,,,,,,,,,,,,,,,,CS1_USpos,None,1,,,,,,,,,,,,,,,,,,19,m,75,n,2019_Nov_21_1437,ec_RRR,3.0.4,85.00428774557605,
Stahl Bading Aust Heycke and Thomasius,Das Zielwesen für diese Aufgabe ist Magearna:,"Also sobald Magearna (sein Name oder sein Bild) auf dem Bildschirm erscheint, drücken Sie so schnell wie möglich die Leertaste. Drücken Sie die Leertaste immer, wenn Sie ein Bild von Magearna oder das Wort MAGEARNA sehen. 

Drücken Sie die Leertaste, um die Aufgabe zu starten.",target4,stimuli/t4.jpg,75,85,stimuli/filler17.jpg,filler,False,None,,,,,,,,,,,,,,0,0,0,0,,,,,0,0,0,3,0,84,84,84,,,,,,,,,,,,,,,,,,,,,,,,,,,,,,,,,,,,,,,,,,,,,,,,,,,,,CS1_USpos,None,1,,,,,,,,,,,,,,,,,,19,m,75,n,2019_Nov_21_1437,ec_RRR,3.0.4,85.00428774557605,
Stahl Bading Aust Heycke and Thomasius,Das Zielwesen für diese Aufgabe ist Magearna:,"Also sobald Magearna (sein Name oder sein Bild) auf dem Bildschirm erscheint, drücken Sie so schnell wie möglich die Leertaste. Drücken Sie die Leertaste immer, wenn Sie ein Bild von Magearna oder das Wort MAGEARNA sehen. 

Drücken Sie die Leertaste, um die Aufgabe zu starten.",target4,stimuli/t4.jpg,75,86,stimuli/target4_6.jpg,target,True,space,,,,,,,,,,,,,,0,0,0,0,,,,,0,0,0,3,0,85,85,85,,,,,,,,,,,,,,,,,,,,,,,,,,,,,,,,,,,,,,,,,,,,,,,,,,,,,CS1_USpos,space,1,0.5297351041808724,,,,,,,,,,,,,,,,,19,m,75,n,2019_Nov_21_1437,ec_RRR,3.0.4,85.00428774557605,
Stahl Bading Aust Heycke and Thomasius,Das Zielwesen für diese Aufgabe ist Shelmet:,"Also sobald Shelmet (sein Name oder sein Bild) auf dem Bildschirm erscheint, drücken Sie so schnell wie möglich die Leertaste. Drücken Sie die Leertaste immer, wenn Sie ein Bild von Shelmet oder das Wort SHELMET sehen. 

Drücken Sie die Leertaste, um die Aufgabe zu starten.",target2,stimuli/t2.jpg,75,1,stimuli/target2_4.jpg,target,True,space,,,,,,,,,,,,,,0,0,0,0,,,,,0,1,1,1,0,0,0,0,,,,,,,,,,,,,,,,,,,,,,,,,,,,,,,,,,,,,,,,,,,,,,,,,,,,,CS1_USpos,space,1,0.6120712301908497,,,,,,,,,,,,,,,,,19,m,75,n,2019_Nov_21_1437,ec_RRR,3.0.4,85.00428774557605,
Stahl Bading Aust Heycke and Thomasius,Das Zielwesen für diese Aufgabe ist Shelmet:,"Also sobald Shelmet (sein Name oder sein Bild) auf dem Bildschirm erscheint, drücken Sie so schnell wie möglich die Leertaste. Drücken Sie die Leertaste immer, wenn Sie ein Bild von Shelmet oder das Wort SHELMET sehen. 

Drücken Sie die Leertaste, um die Aufgabe zu starten.",target2,stimuli/t2.jpg,75,2,stimuli/filler12.jpg,filler,False,None,,,,,,,,,,,,,,0,0,0,0,,,,,0,1,1,1,0,1,1,1,,,,,,,,,,,,,,,,,,,,,,,,,,,,,,,,,,,,,,,,,,,,,,,,,,,,,CS1_USpos,None,1,,,,,,,,,,,,,,,,,,19,m,75,n,2019_Nov_21_1437,ec_RRR,3.0.4,85.00428774557605,
Stahl Bading Aust Heycke and Thomasius,Das Zielwesen für diese Aufgabe ist Shelmet:,"Also sobald Shelmet (sein Name oder sein Bild) auf dem Bildschirm erscheint, drücken Sie so schnell wie möglich die Leertaste. Drücken Sie die Leertaste immer, wenn Sie ein Bild von Shelmet oder das Wort SHELMET sehen. 

Drücken Sie die Leertaste, um die Aufgabe zu starten.",target2,stimuli/t2.jpg,75,3,stimuli/filler1.jpg,filler,False,None,,,,,,,,,,,,,,0,0,0,0,,,,,0,1,1,1,0,2,2,2,,,,,,,,,,,,,,,,,,,,,,,,,,,,,,,,,,,,,,,,,,,,,,,,,,,,,CS1_USpos,None,1,,,,,,,,,,,,,,,,,,19,m,75,n,2019_Nov_21_1437,ec_RRR,3.0.4,85.00428774557605,
Stahl Bading Aust Heycke and Thomasius,Das Zielwesen für diese Aufgabe ist Shelmet:,"Also sobald Shelmet (sein Name oder sein Bild) auf dem Bildschirm erscheint, drücken Sie so schnell wie möglich die Leertaste. Drücken Sie die Leertaste immer, wenn Sie ein Bild von Shelmet oder das Wort SHELMET sehen. 

Drücken Sie die Leertaste, um die Aufgabe zu starten.",target2,stimuli/t2.jpg,75,4,stimuli/filler21.jpg,filler,False,None,,,,,,,,,,,,,,0,0,0,0,,,,,0,1,1,1,0,3,3,3,,,,,,,,,,,,,,,,,,,,,,,,,,,,,,,,,,,,,,,,,,,,,,,,,,,,,CS1_USpos,None,1,,,,,,,,,,,,,,,,,,19,m,75,n,2019_Nov_21_1437,ec_RRR,3.0.4,85.00428774557605,
Stahl Bading Aust Heycke and Thomasius,Das Zielwesen für diese Aufgabe ist Shelmet:,"Also sobald Shelmet (sein Name oder sein Bild) auf dem Bildschirm erscheint, drücken Sie so schnell wie möglich die Leertaste. Drücken Sie die Leertaste immer, wenn Sie ein Bild von Shelmet oder das Wort SHELMET sehen. 

Drücken Sie die Leertaste, um die Aufgabe zu starten.",target2,stimuli/t2.jpg,75,5,stimuli/filler42.jpg,filler,False,None,,,,,,,,,,,,,,0,0,0,0,,,,,0,1,1,1,0,4,4,4,,,,,,,,,,,,,,,,,,,,,,,,,,,,,,,,,,,,,,,,,,,,,,,,,,,,,CS1_USpos,None,1,,,,,,,,,,,,,,,,,,19,m,75,n,2019_Nov_21_1437,ec_RRR,3.0.4,85.00428774557605,
Stahl Bading Aust Heycke and Thomasius,Das Zielwesen für diese Aufgabe ist Shelmet:,"Also sobald Shelmet (sein Name oder sein Bild) auf dem Bildschirm erscheint, drücken Sie so schnell wie möglich die Leertaste. Drücken Sie die Leertaste immer, wenn Sie ein Bild von Shelmet oder das Wort SHELMET sehen. 

Drücken Sie die Leertaste, um die Aufgabe zu starten.",target2,stimuli/t2.jpg,75,6,stimuli/filler50.jpg,filler,False,None,,,,,,,,,,,,,,0,0,0,0,,,,,0,1,1,1,0,5,5,5,,,,,,,,,,,,,,,,,,,,,,,,,,,,,,,,,,,,,,,,,,,,,,,,,,,,,CS1_USpos,None,1,,,,,,,,,,,,,,,,,,19,m,75,n,2019_Nov_21_1437,ec_RRR,3.0.4,85.00428774557605,
Stahl Bading Aust Heycke and Thomasius,Das Zielwesen für diese Aufgabe ist Shelmet:,"Also sobald Shelmet (sein Name oder sein Bild) auf dem Bildschirm erscheint, drücken Sie so schnell wie möglich die Leertaste. Drücken Sie die Leertaste immer, wenn Sie ein Bild von Shelmet oder das Wort SHELMET sehen. 

Drücken Sie die Leertaste, um die Aufgabe zu starten.",target2,stimuli/t2.jpg,75,7,stimuli/filler32.jpg,filler,False,None,,,,,,,,,,,,,,0,0,0,0,,,,,0,1,1,1,0,6,6,6,,,,,,,,,,,,,,,,,,,,,,,,,,,,,,,,,,,,,,,,,,,,,,,,,,,,,CS1_USpos,None,1,,,,,,,,,,,,,,,,,,19,m,75,n,2019_Nov_21_1437,ec_RRR,3.0.4,85.00428774557605,
Stahl Bading Aust Heycke and Thomasius,Das Zielwesen für diese Aufgabe ist Shelmet:,"Also sobald Shelmet (sein Name oder sein Bild) auf dem Bildschirm erscheint, drücken Sie so schnell wie möglich die Leertaste. Drücken Sie die Leertaste immer, wenn Sie ein Bild von Shelmet oder das Wort SHELMET sehen. 

Drücken Sie die Leertaste, um die Aufgabe zu starten.",target2,stimuli/t2.jpg,75,8,stimuli/filler44.jpg,filler,False,None,,,,,,,,,,,,,,0,0,0,0,,,,,0,1,1,1,0,7,7,7,,,,,,,,,,,,,,,,,,,,,,,,,,,,,,,,,,,,,,,,,,,,,,,,,,,,,CS1_USpos,None,1,,,,,,,,,,,,,,,,,,19,m,75,n,2019_Nov_21_1437,ec_RRR,3.0.4,85.00428774557605,
Stahl Bading Aust Heycke and Thomasius,Das Zielwesen für diese Aufgabe ist Shelmet:,"Also sobald Shelmet (sein Name oder sein Bild) auf dem Bildschirm erscheint, drücken Sie so schnell wie möglich die Leertaste. Drücken Sie die Leertaste immer, wenn Sie ein Bild von Shelmet oder das Wort SHELMET sehen. 

Drücken Sie die Leertaste, um die Aufgabe zu starten.",target2,stimuli/t2.jpg,75,9,stimuli/filler39.jpg,filler,False,None,,,,,,,,,,,,,,0,0,0,0,,,,,0,1,1,1,0,8,8,8,,,,,,,,,,,,,,,,,,,,,,,,,,,,,,,,,,,,,,,,,,,,,,,,,,,,,CS1_USpos,None,1,,,,,,,,,,,,,,,,,,19,m,75,n,2019_Nov_21_1437,ec_RRR,3.0.4,85.00428774557605,
Stahl Bading Aust Heycke and Thomasius,Das Zielwesen für diese Aufgabe ist Shelmet:,"Also sobald Shelmet (sein Name oder sein Bild) auf dem Bildschirm erscheint, drücken Sie so schnell wie möglich die Leertaste. Drücken Sie die Leertaste immer, wenn Sie ein Bild von Shelmet oder das Wort SHELMET sehen. 

Drücken Sie die Leertaste, um die Aufgabe zu starten.",target2,stimuli/t2.jpg,75,10,stimuli/blank.jpg,blank,False,None,,,,,,,,,,,,,,0,0,0,0,,,,,0,1,1,1,0,9,9,9,,,,,,,,,,,,,,,,,,,,,,,,,,,,,,,,,,,,,,,,,,,,,,,,,,,,,CS1_USpos,None,1,,,,,,,,,,,,,,,,,,19,m,75,n,2019_Nov_21_1437,ec_RRR,3.0.4,85.00428774557605,
Stahl Bading Aust Heycke and Thomasius,Das Zielwesen für diese Aufgabe ist Shelmet:,"Also sobald Shelmet (sein Name oder sein Bild) auf dem Bildschirm erscheint, drücken Sie so schnell wie möglich die Leertaste. Drücken Sie die Leertaste immer, wenn Sie ein Bild von Shelmet oder das Wort SHELMET sehen. 

Drücken Sie die Leertaste, um die Aufgabe zu starten.",target2,stimuli/t2.jpg,75,11,stimuli/cs1_pos14.jpg,CSUS,False,None,,,,,,,,,,,,,,0,0,0,0,,,,,0,1,1,1,0,10,10,10,,,,,,,,,,,,,,,,,,,,,,,,,,,,,,,,,,,,,,,,,,,,,,,,,,,,,CS1_USpos,None,1,,,,,,,,,,,,,,,,,,19,m,75,n,2019_Nov_21_1437,ec_RRR,3.0.4,85.00428774557605,
Stahl Bading Aust Heycke and Thomasius,Das Zielwesen für diese Aufgabe ist Shelmet:,"Also sobald Shelmet (sein Name oder sein Bild) auf dem Bildschirm erscheint, drücken Sie so schnell wie möglich die Leertaste. Drücken Sie die Leertaste immer, wenn Sie ein Bild von Shelmet oder das Wort SHELMET sehen. 

Drücken Sie die Leertaste, um die Aufgabe zu starten.",target2,stimuli/t2.jpg,75,12,stimuli/blank.jpg,blank,False,None,,,,,,,,,,,,,,0,0,0,0,,,,,0,1,1,1,0,11,11,11,,,,,,,,,,,,,,,,,,,,,,,,,,,,,,,,,,,,,,,,,,,,,,,,,,,,,CS1_USpos,None,1,,,,,,,,,,,,,,,,,,19,m,75,n,2019_Nov_21_1437,ec_RRR,3.0.4,85.00428774557605,
Stahl Bading Aust Heycke and Thomasius,Das Zielwesen für diese Aufgabe ist Shelmet:,"Also sobald Shelmet (sein Name oder sein Bild) auf dem Bildschirm erscheint, drücken Sie so schnell wie möglich die Leertaste. Drücken Sie die Leertaste immer, wenn Sie ein Bild von Shelmet oder das Wort SHELMET sehen. 

Drücken Sie die Leertaste, um die Aufgabe zu starten.",target2,stimuli/t2.jpg,75,13,stimuli/filler25.jpg,filler,False,None,,,,,,,,,,,,,,0,0,0,0,,,,,0,1,1,1,0,12,12,12,,,,,,,,,,,,,,,,,,,,,,,,,,,,,,,,,,,,,,,,,,,,,,,,,,,,,CS1_USpos,None,1,,,,,,,,,,,,,,,,,,19,m,75,n,2019_Nov_21_1437,ec_RRR,3.0.4,85.00428774557605,
Stahl Bading Aust Heycke and Thomasius,Das Zielwesen für diese Aufgabe ist Shelmet:,"Also sobald Shelmet (sein Name oder sein Bild) auf dem Bildschirm erscheint, drücken Sie so schnell wie möglich die Leertaste. Drücken Sie die Leertaste immer, wenn Sie ein Bild von Shelmet oder das Wort SHELMET sehen. 

Drücken Sie die Leertaste, um die Aufgabe zu starten.",target2,stimuli/t2.jpg,75,14,stimuli/filler16.jpg,filler,False,None,,,,,,,,,,,,,,0,0,0,0,,,,,0,1,1,1,0,13,13,13,,,,,,,,,,,,,,,,,,,,,,,,,,,,,,,,,,,,,,,,,,,,,,,,,,,,,CS1_USpos,None,1,,,,,,,,,,,,,,,,,,19,m,75,n,2019_Nov_21_1437,ec_RRR,3.0.4,85.00428774557605,
Stahl Bading Aust Heycke and Thomasius,Das Zielwesen für diese Aufgabe ist Shelmet:,"Also sobald Shelmet (sein Name oder sein Bild) auf dem Bildschirm erscheint, drücken Sie so schnell wie möglich die Leertaste. Drücken Sie die Leertaste immer, wenn Sie ein Bild von Shelmet oder das Wort SHELMET sehen. 

Drücken Sie die Leertaste, um die Aufgabe zu starten.",target2,stimuli/t2.jpg,75,15,stimuli/filler2.jpg,filler,False,None,,,,,,,,,,,,,,0,0,0,0,,,,,0,1,1,1,0,14,14,14,,,,,,,,,,,,,,,,,,,,,,,,,,,,,,,,,,,,,,,,,,,,,,,,,,,,,CS1_USpos,None,1,,,,,,,,,,,,,,,,,,19,m,75,n,2019_Nov_21_1437,ec_RRR,3.0.4,85.00428774557605,
Stahl Bading Aust Heycke and Thomasius,Das Zielwesen für diese Aufgabe ist Shelmet:,"Also sobald Shelmet (sein Name oder sein Bild) auf dem Bildschirm erscheint, drücken Sie so schnell wie möglich die Leertaste. Drücken Sie die Leertaste immer, wenn Sie ein Bild von Shelmet oder das Wort SHELMET sehen. 

Drücken Sie die Leertaste, um die Aufgabe zu starten.",target2,stimuli/t2.jpg,75,16,stimuli/filler38.jpg,filler,False,None,,,,,,,,,,,,,,0,0,0,0,,,,,0,1,1,1,0,15,15,15,,,,,,,,,,,,,,,,,,,,,,,,,,,,,,,,,,,,,,,,,,,,,,,,,,,,,CS1_USpos,None,1,,,,,,,,,,,,,,,,,,19,m,75,n,2019_Nov_21_1437,ec_RRR,3.0.4,85.00428774557605,
Stahl Bading Aust Heycke and Thomasius,Das Zielwesen für diese Aufgabe ist Shelmet:,"Also sobald Shelmet (sein Name oder sein Bild) auf dem Bildschirm erscheint, drücken Sie so schnell wie möglich die Leertaste. Drücken Sie die Leertaste immer, wenn Sie ein Bild von Shelmet oder das Wort SHELMET sehen. 

Drücken Sie die Leertaste, um die Aufgabe zu starten.",target2,stimuli/t2.jpg,75,17,stimuli/filler48.jpg,filler,False,None,,,,,,,,,,,,,,0,0,0,0,,,,,0,1,1,1,0,16,16,16,,,,,,,,,,,,,,,,,,,,,,,,,,,,,,,,,,,,,,,,,,,,,,,,,,,,,CS1_USpos,None,1,,,,,,,,,,,,,,,,,,19,m,75,n,2019_Nov_21_1437,ec_RRR,3.0.4,85.00428774557605,
Stahl Bading Aust Heycke and Thomasius,Das Zielwesen für diese Aufgabe ist Shelmet:,"Also sobald Shelmet (sein Name oder sein Bild) auf dem Bildschirm erscheint, drücken Sie so schnell wie möglich die Leertaste. Drücken Sie die Leertaste immer, wenn Sie ein Bild von Shelmet oder das Wort SHELMET sehen. 

Drücken Sie die Leertaste, um die Aufgabe zu starten.",target2,stimuli/t2.jpg,75,18,stimuli/filler52.jpg,filler,False,None,,,,,,,,,,,,,,0,0,0,0,,,,,0,1,1,1,0,17,17,17,,,,,,,,,,,,,,,,,,,,,,,,,,,,,,,,,,,,,,,,,,,,,,,,,,,,,CS1_USpos,None,1,,,,,,,,,,,,,,,,,,19,m,75,n,2019_Nov_21_1437,ec_RRR,3.0.4,85.00428774557605,
Stahl Bading Aust Heycke and Thomasius,Das Zielwesen für diese Aufgabe ist Shelmet:,"Also sobald Shelmet (sein Name oder sein Bild) auf dem Bildschirm erscheint, drücken Sie so schnell wie möglich die Leertaste. Drücken Sie die Leertaste immer, wenn Sie ein Bild von Shelmet oder das Wort SHELMET sehen. 

Drücken Sie die Leertaste, um die Aufgabe zu starten.",target2,stimuli/t2.jpg,75,19,stimuli/filler22.jpg,filler,False,None,,,,,,,,,,,,,,0,0,0,0,,,,,0,1,1,1,0,18,18,18,,,,,,,,,,,,,,,,,,,,,,,,,,,,,,,,,,,,,,,,,,,,,,,,,,,,,CS1_USpos,None,1,,,,,,,,,,,,,,,,,,19,m,75,n,2019_Nov_21_1437,ec_RRR,3.0.4,85.00428774557605,
Stahl Bading Aust Heycke and Thomasius,Das Zielwesen für diese Aufgabe ist Shelmet:,"Also sobald Shelmet (sein Name oder sein Bild) auf dem Bildschirm erscheint, drücken Sie so schnell wie möglich die Leertaste. Drücken Sie die Leertaste immer, wenn Sie ein Bild von Shelmet oder das Wort SHELMET sehen. 

Drücken Sie die Leertaste, um die Aufgabe zu starten.",target2,stimuli/t2.jpg,75,20,stimuli/blank.jpg,blank,False,None,,,,,,,,,,,,,,0,0,0,0,,,,,0,1,1,1,0,19,19,19,,,,,,,,,,,,,,,,,,,,,,,,,,,,,,,,,,,,,,,,,,,,,,,,,,,,,CS1_USpos,None,1,,,,,,,,,,,,,,,,,,19,m,75,n,2019_Nov_21_1437,ec_RRR,3.0.4,85.00428774557605,
Stahl Bading Aust Heycke and Thomasius,Das Zielwesen für diese Aufgabe ist Shelmet:,"Also sobald Shelmet (sein Name oder sein Bild) auf dem Bildschirm erscheint, drücken Sie so schnell wie möglich die Leertaste. Drücken Sie die Leertaste immer, wenn Sie ein Bild von Shelmet oder das Wort SHELMET sehen. 

Drücken Sie die Leertaste, um die Aufgabe zu starten.",target2,stimuli/t2.jpg,75,21,stimuli/cs2_neg7.jpg,CSUS,False,None,,,,,,,,,,,,,,0,0,0,0,,,,,0,1,1,1,0,20,20,20,,,,,,,,,,,,,,,,,,,,,,,,,,,,,,,,,,,,,,,,,,,,,,,,,,,,,CS1_USpos,None,1,,,,,,,,,,,,,,,,,,19,m,75,n,2019_Nov_21_1437,ec_RRR,3.0.4,85.00428774557605,
Stahl Bading Aust Heycke and Thomasius,Das Zielwesen für diese Aufgabe ist Shelmet:,"Also sobald Shelmet (sein Name oder sein Bild) auf dem Bildschirm erscheint, drücken Sie so schnell wie möglich die Leertaste. Drücken Sie die Leertaste immer, wenn Sie ein Bild von Shelmet oder das Wort SHELMET sehen. 

Drücken Sie die Leertaste, um die Aufgabe zu starten.",target2,stimuli/t2.jpg,75,22,stimuli/blank.jpg,blank,False,None,,,,,,,,,,,,,,0,0,0,0,,,,,0,1,1,1,0,21,21,21,,,,,,,,,,,,,,,,,,,,,,,,,,,,,,,,,,,,,,,,,,,,,,,,,,,,,CS1_USpos,None,1,,,,,,,,,,,,,,,,,,19,m,75,n,2019_Nov_21_1437,ec_RRR,3.0.4,85.00428774557605,
Stahl Bading Aust Heycke and Thomasius,Das Zielwesen für diese Aufgabe ist Shelmet:,"Also sobald Shelmet (sein Name oder sein Bild) auf dem Bildschirm erscheint, drücken Sie so schnell wie möglich die Leertaste. Drücken Sie die Leertaste immer, wenn Sie ein Bild von Shelmet oder das Wort SHELMET sehen. 

Drücken Sie die Leertaste, um die Aufgabe zu starten.",target2,stimuli/t2.jpg,75,23,stimuli/filler28.jpg,filler,False,None,,,,,,,,,,,,,,0,0,0,0,,,,,0,1,1,1,0,22,22,22,,,,,,,,,,,,,,,,,,,,,,,,,,,,,,,,,,,,,,,,,,,,,,,,,,,,,CS1_USpos,None,1,,,,,,,,,,,,,,,,,,19,m,75,n,2019_Nov_21_1437,ec_RRR,3.0.4,85.00428774557605,
Stahl Bading Aust Heycke and Thomasius,Das Zielwesen für diese Aufgabe ist Shelmet:,"Also sobald Shelmet (sein Name oder sein Bild) auf dem Bildschirm erscheint, drücken Sie so schnell wie möglich die Leertaste. Drücken Sie die Leertaste immer, wenn Sie ein Bild von Shelmet oder das Wort SHELMET sehen. 

Drücken Sie die Leertaste, um die Aufgabe zu starten.",target2,stimuli/t2.jpg,75,24,stimuli/filler45.jpg,filler,False,None,,,,,,,,,,,,,,0,0,0,0,,,,,0,1,1,1,0,23,23,23,,,,,,,,,,,,,,,,,,,,,,,,,,,,,,,,,,,,,,,,,,,,,,,,,,,,,CS1_USpos,None,1,,,,,,,,,,,,,,,,,,19,m,75,n,2019_Nov_21_1437,ec_RRR,3.0.4,85.00428774557605,
Stahl Bading Aust Heycke and Thomasius,Das Zielwesen für diese Aufgabe ist Shelmet:,"Also sobald Shelmet (sein Name oder sein Bild) auf dem Bildschirm erscheint, drücken Sie so schnell wie möglich die Leertaste. Drücken Sie die Leertaste immer, wenn Sie ein Bild von Shelmet oder das Wort SHELMET sehen. 

Drücken Sie die Leertaste, um die Aufgabe zu starten.",target2,stimuli/t2.jpg,75,25,stimuli/filler29.jpg,filler,False,None,,,,,,,,,,,,,,0,0,0,0,,,,,0,1,1,1,0,24,24,24,,,,,,,,,,,,,,,,,,,,,,,,,,,,,,,,,,,,,,,,,,,,,,,,,,,,,CS1_USpos,None,1,,,,,,,,,,,,,,,,,,19,m,75,n,2019_Nov_21_1437,ec_RRR,3.0.4,85.00428774557605,
Stahl Bading Aust Heycke and Thomasius,Das Zielwesen für diese Aufgabe ist Shelmet:,"Also sobald Shelmet (sein Name oder sein Bild) auf dem Bildschirm erscheint, drücken Sie so schnell wie möglich die Leertaste. Drücken Sie die Leertaste immer, wenn Sie ein Bild von Shelmet oder das Wort SHELMET sehen. 

Drücken Sie die Leertaste, um die Aufgabe zu starten.",target2,stimuli/t2.jpg,75,26,stimuli/filler14.jpg,filler,False,None,,,,,,,,,,,,,,0,0,0,0,,,,,0,1,1,1,0,25,25,25,,,,,,,,,,,,,,,,,,,,,,,,,,,,,,,,,,,,,,,,,,,,,,,,,,,,,CS1_USpos,None,1,,,,,,,,,,,,,,,,,,19,m,75,n,2019_Nov_21_1437,ec_RRR,3.0.4,85.00428774557605,
Stahl Bading Aust Heycke and Thomasius,Das Zielwesen für diese Aufgabe ist Shelmet:,"Also sobald Shelmet (sein Name oder sein Bild) auf dem Bildschirm erscheint, drücken Sie so schnell wie möglich die Leertaste. Drücken Sie die Leertaste immer, wenn Sie ein Bild von Shelmet oder das Wort SHELMET sehen. 

Drücken Sie die Leertaste, um die Aufgabe zu starten.",target2,stimuli/t2.jpg,75,27,stimuli/target2_7.jpg,target,True,space,,,,,,,,,,,,,,0,0,0,0,,,,,0,1,1,1,0,26,26,26,,,,,,,,,,,,,,,,,,,,,,,,,,,,,,,,,,,,,,,,,,,,,,,,,,,,,CS1_USpos,space,1,0.4944081009753063,,,,,,,,,,,,,,,,,19,m,75,n,2019_Nov_21_1437,ec_RRR,3.0.4,85.00428774557605,
Stahl Bading Aust Heycke and Thomasius,Das Zielwesen für diese Aufgabe ist Shelmet:,"Also sobald Shelmet (sein Name oder sein Bild) auf dem Bildschirm erscheint, drücken Sie so schnell wie möglich die Leertaste. Drücken Sie die Leertaste immer, wenn Sie ein Bild von Shelmet oder das Wort SHELMET sehen. 

Drücken Sie die Leertaste, um die Aufgabe zu starten.",target2,stimuli/t2.jpg,75,28,stimuli/target2_6.jpg,target,True,space,,,,,,,,,,,,,,0,0,0,0,,,,,0,1,1,1,0,27,27,27,,,,,,,,,,,,,,,,,,,,,,,,,,,,,,,,,,,,,,,,,,,,,,,,,,,,,CS1_USpos,space,1,0.9179739708242778,,,,,,,,,,,,,,,,,19,m,75,n,2019_Nov_21_1437,ec_RRR,3.0.4,85.00428774557605,
Stahl Bading Aust Heycke and Thomasius,Das Zielwesen für diese Aufgabe ist Shelmet:,"Also sobald Shelmet (sein Name oder sein Bild) auf dem Bildschirm erscheint, drücken Sie so schnell wie möglich die Leertaste. Drücken Sie die Leertaste immer, wenn Sie ein Bild von Shelmet oder das Wort SHELMET sehen. 

Drücken Sie die Leertaste, um die Aufgabe zu starten.",target2,stimuli/t2.jpg,75,29,stimuli/filler13.jpg,filler,False,None,,,,,,,,,,,,,,0,0,0,0,,,,,0,1,1,1,0,28,28,28,,,,,,,,,,,,,,,,,,,,,,,,,,,,,,,,,,,,,,,,,,,,,,,,,,,,,CS1_USpos,None,1,,,,,,,,,,,,,,,,,,19,m,75,n,2019_Nov_21_1437,ec_RRR,3.0.4,85.00428774557605,
Stahl Bading Aust Heycke and Thomasius,Das Zielwesen für diese Aufgabe ist Shelmet:,"Also sobald Shelmet (sein Name oder sein Bild) auf dem Bildschirm erscheint, drücken Sie so schnell wie möglich die Leertaste. Drücken Sie die Leertaste immer, wenn Sie ein Bild von Shelmet oder das Wort SHELMET sehen. 

Drücken Sie die Leertaste, um die Aufgabe zu starten.",target2,stimuli/t2.jpg,75,30,stimuli/blank.jpg,blank,False,None,,,,,,,,,,,,,,0,0,0,0,,,,,0,1,1,1,0,29,29,29,,,,,,,,,,,,,,,,,,,,,,,,,,,,,,,,,,,,,,,,,,,,,,,,,,,,,CS1_USpos,None,1,,,,,,,,,,,,,,,,,,19,m,75,n,2019_Nov_21_1437,ec_RRR,3.0.4,85.00428774557605,
Stahl Bading Aust Heycke and Thomasius,Das Zielwesen für diese Aufgabe ist Shelmet:,"Also sobald Shelmet (sein Name oder sein Bild) auf dem Bildschirm erscheint, drücken Sie so schnell wie möglich die Leertaste. Drücken Sie die Leertaste immer, wenn Sie ein Bild von Shelmet oder das Wort SHELMET sehen. 

Drücken Sie die Leertaste, um die Aufgabe zu starten.",target2,stimuli/t2.jpg,75,31,stimuli/cs1_pos6.jpg,CSUS,False,None,,,,,,,,,,,,,,0,0,0,0,,,,,0,1,1,1,0,30,30,30,,,,,,,,,,,,,,,,,,,,,,,,,,,,,,,,,,,,,,,,,,,,,,,,,,,,,CS1_USpos,None,1,,,,,,,,,,,,,,,,,,19,m,75,n,2019_Nov_21_1437,ec_RRR,3.0.4,85.00428774557605,
Stahl Bading Aust Heycke and Thomasius,Das Zielwesen für diese Aufgabe ist Shelmet:,"Also sobald Shelmet (sein Name oder sein Bild) auf dem Bildschirm erscheint, drücken Sie so schnell wie möglich die Leertaste. Drücken Sie die Leertaste immer, wenn Sie ein Bild von Shelmet oder das Wort SHELMET sehen. 

Drücken Sie die Leertaste, um die Aufgabe zu starten.",target2,stimuli/t2.jpg,75,32,stimuli/blank.jpg,blank,False,None,,,,,,,,,,,,,,0,0,0,0,,,,,0,1,1,1,0,31,31,31,,,,,,,,,,,,,,,,,,,,,,,,,,,,,,,,,,,,,,,,,,,,,,,,,,,,,CS1_USpos,None,1,,,,,,,,,,,,,,,,,,19,m,75,n,2019_Nov_21_1437,ec_RRR,3.0.4,85.00428774557605,
Stahl Bading Aust Heycke and Thomasius,Das Zielwesen für diese Aufgabe ist Shelmet:,"Also sobald Shelmet (sein Name oder sein Bild) auf dem Bildschirm erscheint, drücken Sie so schnell wie möglich die Leertaste. Drücken Sie die Leertaste immer, wenn Sie ein Bild von Shelmet oder das Wort SHELMET sehen. 

Drücken Sie die Leertaste, um die Aufgabe zu starten.",target2,stimuli/t2.jpg,75,33,stimuli/filler34.jpg,filler,False,None,,,,,,,,,,,,,,0,0,0,0,,,,,0,1,1,1,0,32,32,32,,,,,,,,,,,,,,,,,,,,,,,,,,,,,,,,,,,,,,,,,,,,,,,,,,,,,CS1_USpos,None,1,,,,,,,,,,,,,,,,,,19,m,75,n,2019_Nov_21_1437,ec_RRR,3.0.4,85.00428774557605,
Stahl Bading Aust Heycke and Thomasius,Das Zielwesen für diese Aufgabe ist Shelmet:,"Also sobald Shelmet (sein Name oder sein Bild) auf dem Bildschirm erscheint, drücken Sie so schnell wie möglich die Leertaste. Drücken Sie die Leertaste immer, wenn Sie ein Bild von Shelmet oder das Wort SHELMET sehen. 

Drücken Sie die Leertaste, um die Aufgabe zu starten.",target2,stimuli/t2.jpg,75,34,stimuli/filler43.jpg,filler,False,None,,,,,,,,,,,,,,0,0,0,0,,,,,0,1,1,1,0,33,33,33,,,,,,,,,,,,,,,,,,,,,,,,,,,,,,,,,,,,,,,,,,,,,,,,,,,,,CS1_USpos,None,1,,,,,,,,,,,,,,,,,,19,m,75,n,2019_Nov_21_1437,ec_RRR,3.0.4,85.00428774557605,
Stahl Bading Aust Heycke and Thomasius,Das Zielwesen für diese Aufgabe ist Shelmet:,"Also sobald Shelmet (sein Name oder sein Bild) auf dem Bildschirm erscheint, drücken Sie so schnell wie möglich die Leertaste. Drücken Sie die Leertaste immer, wenn Sie ein Bild von Shelmet oder das Wort SHELMET sehen. 

Drücken Sie die Leertaste, um die Aufgabe zu starten.",target2,stimuli/t2.jpg,75,35,stimuli/filler37.jpg,filler,False,None,,,,,,,,,,,,,,0,0,0,0,,,,,0,1,1,1,0,34,34,34,,,,,,,,,,,,,,,,,,,,,,,,,,,,,,,,,,,,,,,,,,,,,,,,,,,,,CS1_USpos,None,1,,,,,,,,,,,,,,,,,,19,m,75,n,2019_Nov_21_1437,ec_RRR,3.0.4,85.00428774557605,
Stahl Bading Aust Heycke and Thomasius,Das Zielwesen für diese Aufgabe ist Shelmet:,"Also sobald Shelmet (sein Name oder sein Bild) auf dem Bildschirm erscheint, drücken Sie so schnell wie möglich die Leertaste. Drücken Sie die Leertaste immer, wenn Sie ein Bild von Shelmet oder das Wort SHELMET sehen. 

Drücken Sie die Leertaste, um die Aufgabe zu starten.",target2,stimuli/t2.jpg,75,36,stimuli/filler18.jpg,filler,False,None,,,,,,,,,,,,,,0,0,0,0,,,,,0,1,1,1,0,35,35,35,,,,,,,,,,,,,,,,,,,,,,,,,,,,,,,,,,,,,,,,,,,,,,,,,,,,,CS1_USpos,space,0,0.5179487162131409,,,,,,,,,,,,,,,,,19,m,75,n,2019_Nov_21_1437,ec_RRR,3.0.4,85.00428774557605,
Stahl Bading Aust Heycke and Thomasius,Das Zielwesen für diese Aufgabe ist Shelmet:,"Also sobald Shelmet (sein Name oder sein Bild) auf dem Bildschirm erscheint, drücken Sie so schnell wie möglich die Leertaste. Drücken Sie die Leertaste immer, wenn Sie ein Bild von Shelmet oder das Wort SHELMET sehen. 

Drücken Sie die Leertaste, um die Aufgabe zu starten.",target2,stimuli/t2.jpg,75,37,stimuli/target2_1.jpg,target,True,space,,,,,,,,,,,,,,0,0,0,0,,,,,0,1,1,1,0,36,36,36,,,,,,,,,,,,,,,,,,,,,,,,,,,,,,,,,,,,,,,,,,,,,,,,,,,,,CS1_USpos,space,1,0.5532459284568176,,,,,,,,,,,,,,,,,19,m,75,n,2019_Nov_21_1437,ec_RRR,3.0.4,85.00428774557605,
Stahl Bading Aust Heycke and Thomasius,Das Zielwesen für diese Aufgabe ist Shelmet:,"Also sobald Shelmet (sein Name oder sein Bild) auf dem Bildschirm erscheint, drücken Sie so schnell wie möglich die Leertaste. Drücken Sie die Leertaste immer, wenn Sie ein Bild von Shelmet oder das Wort SHELMET sehen. 

Drücken Sie die Leertaste, um die Aufgabe zu starten.",target2,stimuli/t2.jpg,75,38,stimuli/filler46.jpg,filler,False,None,,,,,,,,,,,,,,0,0,0,0,,,,,0,1,1,1,0,37,37,37,,,,,,,,,,,,,,,,,,,,,,,,,,,,,,,,,,,,,,,,,,,,,,,,,,,,,CS1_USpos,None,1,,,,,,,,,,,,,,,,,,19,m,75,n,2019_Nov_21_1437,ec_RRR,3.0.4,85.00428774557605,
Stahl Bading Aust Heycke and Thomasius,Das Zielwesen für diese Aufgabe ist Shelmet:,"Also sobald Shelmet (sein Name oder sein Bild) auf dem Bildschirm erscheint, drücken Sie so schnell wie möglich die Leertaste. Drücken Sie die Leertaste immer, wenn Sie ein Bild von Shelmet oder das Wort SHELMET sehen. 

Drücken Sie die Leertaste, um die Aufgabe zu starten.",target2,stimuli/t2.jpg,75,39,stimuli/filler31.jpg,filler,False,None,,,,,,,,,,,,,,0,0,0,0,,,,,0,1,1,1,0,38,38,38,,,,,,,,,,,,,,,,,,,,,,,,,,,,,,,,,,,,,,,,,,,,,,,,,,,,,CS1_USpos,None,1,,,,,,,,,,,,,,,,,,19,m,75,n,2019_Nov_21_1437,ec_RRR,3.0.4,85.00428774557605,
Stahl Bading Aust Heycke and Thomasius,Das Zielwesen für diese Aufgabe ist Shelmet:,"Also sobald Shelmet (sein Name oder sein Bild) auf dem Bildschirm erscheint, drücken Sie so schnell wie möglich die Leertaste. Drücken Sie die Leertaste immer, wenn Sie ein Bild von Shelmet oder das Wort SHELMET sehen. 

Drücken Sie die Leertaste, um die Aufgabe zu starten.",target2,stimuli/t2.jpg,75,40,stimuli/blank.jpg,blank,False,None,,,,,,,,,,,,,,0,0,0,0,,,,,0,1,1,1,0,39,39,39,,,,,,,,,,,,,,,,,,,,,,,,,,,,,,,,,,,,,,,,,,,,,,,,,,,,,CS1_USpos,None,1,,,,,,,,,,,,,,,,,,19,m,75,n,2019_Nov_21_1437,ec_RRR,3.0.4,85.00428774557605,
Stahl Bading Aust Heycke and Thomasius,Das Zielwesen für diese Aufgabe ist Shelmet:,"Also sobald Shelmet (sein Name oder sein Bild) auf dem Bildschirm erscheint, drücken Sie so schnell wie möglich die Leertaste. Drücken Sie die Leertaste immer, wenn Sie ein Bild von Shelmet oder das Wort SHELMET sehen. 

Drücken Sie die Leertaste, um die Aufgabe zu starten.",target2,stimuli/t2.jpg,75,41,stimuli/cs2_neg18.jpg,CSUS,False,None,,,,,,,,,,,,,,0,0,0,0,,,,,0,1,1,1,0,40,40,40,,,,,,,,,,,,,,,,,,,,,,,,,,,,,,,,,,,,,,,,,,,,,,,,,,,,,CS1_USpos,None,1,,,,,,,,,,,,,,,,,,19,m,75,n,2019_Nov_21_1437,ec_RRR,3.0.4,85.00428774557605,
Stahl Bading Aust Heycke and Thomasius,Das Zielwesen für diese Aufgabe ist Shelmet:,"Also sobald Shelmet (sein Name oder sein Bild) auf dem Bildschirm erscheint, drücken Sie so schnell wie möglich die Leertaste. Drücken Sie die Leertaste immer, wenn Sie ein Bild von Shelmet oder das Wort SHELMET sehen. 

Drücken Sie die Leertaste, um die Aufgabe zu starten.",target2,stimuli/t2.jpg,75,42,stimuli/blank.jpg,blank,False,None,,,,,,,,,,,,,,0,0,0,0,,,,,0,1,1,1,0,41,41,41,,,,,,,,,,,,,,,,,,,,,,,,,,,,,,,,,,,,,,,,,,,,,,,,,,,,,CS1_USpos,None,1,,,,,,,,,,,,,,,,,,19,m,75,n,2019_Nov_21_1437,ec_RRR,3.0.4,85.00428774557605,
Stahl Bading Aust Heycke and Thomasius,Das Zielwesen für diese Aufgabe ist Shelmet:,"Also sobald Shelmet (sein Name oder sein Bild) auf dem Bildschirm erscheint, drücken Sie so schnell wie möglich die Leertaste. Drücken Sie die Leertaste immer, wenn Sie ein Bild von Shelmet oder das Wort SHELMET sehen. 

Drücken Sie die Leertaste, um die Aufgabe zu starten.",target2,stimuli/t2.jpg,75,43,stimuli/filler3.jpg,filler,False,None,,,,,,,,,,,,,,0,0,0,0,,,,,0,1,1,1,0,42,42,42,,,,,,,,,,,,,,,,,,,,,,,,,,,,,,,,,,,,,,,,,,,,,,,,,,,,,CS1_USpos,None,1,,,,,,,,,,,,,,,,,,19,m,75,n,2019_Nov_21_1437,ec_RRR,3.0.4,85.00428774557605,
Stahl Bading Aust Heycke and Thomasius,Das Zielwesen für diese Aufgabe ist Shelmet:,"Also sobald Shelmet (sein Name oder sein Bild) auf dem Bildschirm erscheint, drücken Sie so schnell wie möglich die Leertaste. Drücken Sie die Leertaste immer, wenn Sie ein Bild von Shelmet oder das Wort SHELMET sehen. 

Drücken Sie die Leertaste, um die Aufgabe zu starten.",target2,stimuli/t2.jpg,75,44,stimuli/filler36.jpg,filler,False,None,,,,,,,,,,,,,,0,0,0,0,,,,,0,1,1,1,0,43,43,43,,,,,,,,,,,,,,,,,,,,,,,,,,,,,,,,,,,,,,,,,,,,,,,,,,,,,CS1_USpos,None,1,,,,,,,,,,,,,,,,,,19,m,75,n,2019_Nov_21_1437,ec_RRR,3.0.4,85.00428774557605,
Stahl Bading Aust Heycke and Thomasius,Das Zielwesen für diese Aufgabe ist Shelmet:,"Also sobald Shelmet (sein Name oder sein Bild) auf dem Bildschirm erscheint, drücken Sie so schnell wie möglich die Leertaste. Drücken Sie die Leertaste immer, wenn Sie ein Bild von Shelmet oder das Wort SHELMET sehen. 

Drücken Sie die Leertaste, um die Aufgabe zu starten.",target2,stimuli/t2.jpg,75,45,stimuli/filler15.jpg,filler,False,None,,,,,,,,,,,,,,0,0,0,0,,,,,0,1,1,1,0,44,44,44,,,,,,,,,,,,,,,,,,,,,,,,,,,,,,,,,,,,,,,,,,,,,,,,,,,,,CS1_USpos,None,1,,,,,,,,,,,,,,,,,,19,m,75,n,2019_Nov_21_1437,ec_RRR,3.0.4,85.00428774557605,
Stahl Bading Aust Heycke and Thomasius,Das Zielwesen für diese Aufgabe ist Shelmet:,"Also sobald Shelmet (sein Name oder sein Bild) auf dem Bildschirm erscheint, drücken Sie so schnell wie möglich die Leertaste. Drücken Sie die Leertaste immer, wenn Sie ein Bild von Shelmet oder das Wort SHELMET sehen. 

Drücken Sie die Leertaste, um die Aufgabe zu starten.",target2,stimuli/t2.jpg,75,46,stimuli/filler11.jpg,filler,False,None,,,,,,,,,,,,,,0,0,0,0,,,,,0,1,1,1,0,45,45,45,,,,,,,,,,,,,,,,,,,,,,,,,,,,,,,,,,,,,,,,,,,,,,,,,,,,,CS1_USpos,None,1,,,,,,,,,,,,,,,,,,19,m,75,n,2019_Nov_21_1437,ec_RRR,3.0.4,85.00428774557605,
Stahl Bading Aust Heycke and Thomasius,Das Zielwesen für diese Aufgabe ist Shelmet:,"Also sobald Shelmet (sein Name oder sein Bild) auf dem Bildschirm erscheint, drücken Sie so schnell wie möglich die Leertaste. Drücken Sie die Leertaste immer, wenn Sie ein Bild von Shelmet oder das Wort SHELMET sehen. 

Drücken Sie die Leertaste, um die Aufgabe zu starten.",target2,stimuli/t2.jpg,75,47,stimuli/filler24.jpg,filler,False,None,,,,,,,,,,,,,,0,0,0,0,,,,,0,1,1,1,0,46,46,46,,,,,,,,,,,,,,,,,,,,,,,,,,,,,,,,,,,,,,,,,,,,,,,,,,,,,CS1_USpos,None,1,,,,,,,,,,,,,,,,,,19,m,75,n,2019_Nov_21_1437,ec_RRR,3.0.4,85.00428774557605,
Stahl Bading Aust Heycke and Thomasius,Das Zielwesen für diese Aufgabe ist Shelmet:,"Also sobald Shelmet (sein Name oder sein Bild) auf dem Bildschirm erscheint, drücken Sie so schnell wie möglich die Leertaste. Drücken Sie die Leertaste immer, wenn Sie ein Bild von Shelmet oder das Wort SHELMET sehen. 

Drücken Sie die Leertaste, um die Aufgabe zu starten.",target2,stimuli/t2.jpg,75,48,stimuli/target2_10.jpg,target,True,space,,,,,,,,,,,,,,0,0,0,0,,,,,0,1,1,1,0,47,47,47,,,,,,,,,,,,,,,,,,,,,,,,,,,,,,,,,,,,,,,,,,,,,,,,,,,,,CS1_USpos,space,1,0.4591559137097647,,,,,,,,,,,,,,,,,19,m,75,n,2019_Nov_21_1437,ec_RRR,3.0.4,85.00428774557605,
Stahl Bading Aust Heycke and Thomasius,Das Zielwesen für diese Aufgabe ist Shelmet:,"Also sobald Shelmet (sein Name oder sein Bild) auf dem Bildschirm erscheint, drücken Sie so schnell wie möglich die Leertaste. Drücken Sie die Leertaste immer, wenn Sie ein Bild von Shelmet oder das Wort SHELMET sehen. 

Drücken Sie die Leertaste, um die Aufgabe zu starten.",target2,stimuli/t2.jpg,75,49,stimuli/filler20.jpg,filler,False,None,,,,,,,,,,,,,,0,0,0,0,,,,,0,1,1,1,0,48,48,48,,,,,,,,,,,,,,,,,,,,,,,,,,,,,,,,,,,,,,,,,,,,,,,,,,,,,CS1_USpos,None,1,,,,,,,,,,,,,,,,,,19,m,75,n,2019_Nov_21_1437,ec_RRR,3.0.4,85.00428774557605,
Stahl Bading Aust Heycke and Thomasius,Das Zielwesen für diese Aufgabe ist Shelmet:,"Also sobald Shelmet (sein Name oder sein Bild) auf dem Bildschirm erscheint, drücken Sie so schnell wie möglich die Leertaste. Drücken Sie die Leertaste immer, wenn Sie ein Bild von Shelmet oder das Wort SHELMET sehen. 

Drücken Sie die Leertaste, um die Aufgabe zu starten.",target2,stimuli/t2.jpg,75,50,stimuli/blank.jpg,blank,False,None,,,,,,,,,,,,,,0,0,0,0,,,,,0,1,1,1,0,49,49,49,,,,,,,,,,,,,,,,,,,,,,,,,,,,,,,,,,,,,,,,,,,,,,,,,,,,,CS1_USpos,None,1,,,,,,,,,,,,,,,,,,19,m,75,n,2019_Nov_21_1437,ec_RRR,3.0.4,85.00428774557605,
Stahl Bading Aust Heycke and Thomasius,Das Zielwesen für diese Aufgabe ist Shelmet:,"Also sobald Shelmet (sein Name oder sein Bild) auf dem Bildschirm erscheint, drücken Sie so schnell wie möglich die Leertaste. Drücken Sie die Leertaste immer, wenn Sie ein Bild von Shelmet oder das Wort SHELMET sehen. 

Drücken Sie die Leertaste, um die Aufgabe zu starten.",target2,stimuli/t2.jpg,75,51,stimuli/cs1_pos2.jpg,CSUS,False,None,,,,,,,,,,,,,,0,0,0,0,,,,,0,1,1,1,0,50,50,50,,,,,,,,,,,,,,,,,,,,,,,,,,,,,,,,,,,,,,,,,,,,,,,,,,,,,CS1_USpos,None,1,,,,,,,,,,,,,,,,,,19,m,75,n,2019_Nov_21_1437,ec_RRR,3.0.4,85.00428774557605,
Stahl Bading Aust Heycke and Thomasius,Das Zielwesen für diese Aufgabe ist Shelmet:,"Also sobald Shelmet (sein Name oder sein Bild) auf dem Bildschirm erscheint, drücken Sie so schnell wie möglich die Leertaste. Drücken Sie die Leertaste immer, wenn Sie ein Bild von Shelmet oder das Wort SHELMET sehen. 

Drücken Sie die Leertaste, um die Aufgabe zu starten.",target2,stimuli/t2.jpg,75,52,stimuli/blank.jpg,blank,False,None,,,,,,,,,,,,,,0,0,0,0,,,,,0,1,1,1,0,51,51,51,,,,,,,,,,,,,,,,,,,,,,,,,,,,,,,,,,,,,,,,,,,,,,,,,,,,,CS1_USpos,None,1,,,,,,,,,,,,,,,,,,19,m,75,n,2019_Nov_21_1437,ec_RRR,3.0.4,85.00428774557605,
Stahl Bading Aust Heycke and Thomasius,Das Zielwesen für diese Aufgabe ist Shelmet:,"Also sobald Shelmet (sein Name oder sein Bild) auf dem Bildschirm erscheint, drücken Sie so schnell wie möglich die Leertaste. Drücken Sie die Leertaste immer, wenn Sie ein Bild von Shelmet oder das Wort SHELMET sehen. 

Drücken Sie die Leertaste, um die Aufgabe zu starten.",target2,stimuli/t2.jpg,75,53,stimuli/filler9.jpg,filler,False,None,,,,,,,,,,,,,,0,0,0,0,,,,,0,1,1,1,0,52,52,52,,,,,,,,,,,,,,,,,,,,,,,,,,,,,,,,,,,,,,,,,,,,,,,,,,,,,CS1_USpos,None,1,,,,,,,,,,,,,,,,,,19,m,75,n,2019_Nov_21_1437,ec_RRR,3.0.4,85.00428774557605,
Stahl Bading Aust Heycke and Thomasius,Das Zielwesen für diese Aufgabe ist Shelmet:,"Also sobald Shelmet (sein Name oder sein Bild) auf dem Bildschirm erscheint, drücken Sie so schnell wie möglich die Leertaste. Drücken Sie die Leertaste immer, wenn Sie ein Bild von Shelmet oder das Wort SHELMET sehen. 

Drücken Sie die Leertaste, um die Aufgabe zu starten.",target2,stimuli/t2.jpg,75,54,stimuli/target2_8.jpg,target,True,space,,,,,,,,,,,,,,0,0,0,0,,,,,0,1,1,1,0,53,53,53,,,,,,,,,,,,,,,,,,,,,,,,,,,,,,,,,,,,,,,,,,,,,,,,,,,,,CS1_USpos,space,1,0.5297293491094024,,,,,,,,,,,,,,,,,19,m,75,n,2019_Nov_21_1437,ec_RRR,3.0.4,85.00428774557605,
Stahl Bading Aust Heycke and Thomasius,Das Zielwesen für diese Aufgabe ist Shelmet:,"Also sobald Shelmet (sein Name oder sein Bild) auf dem Bildschirm erscheint, drücken Sie so schnell wie möglich die Leertaste. Drücken Sie die Leertaste immer, wenn Sie ein Bild von Shelmet oder das Wort SHELMET sehen. 

Drücken Sie die Leertaste, um die Aufgabe zu starten.",target2,stimuli/t2.jpg,75,55,stimuli/filler5.jpg,filler,False,None,,,,,,,,,,,,,,0,0,0,0,,,,,0,1,1,1,0,54,54,54,,,,,,,,,,,,,,,,,,,,,,,,,,,,,,,,,,,,,,,,,,,,,,,,,,,,,CS1_USpos,None,1,,,,,,,,,,,,,,,,,,19,m,75,n,2019_Nov_21_1437,ec_RRR,3.0.4,85.00428774557605,
Stahl Bading Aust Heycke and Thomasius,Das Zielwesen für diese Aufgabe ist Shelmet:,"Also sobald Shelmet (sein Name oder sein Bild) auf dem Bildschirm erscheint, drücken Sie so schnell wie möglich die Leertaste. Drücken Sie die Leertaste immer, wenn Sie ein Bild von Shelmet oder das Wort SHELMET sehen. 

Drücken Sie die Leertaste, um die Aufgabe zu starten.",target2,stimuli/t2.jpg,75,56,stimuli/filler8.jpg,filler,False,None,,,,,,,,,,,,,,0,0,0,0,,,,,0,1,1,1,0,55,55,55,,,,,,,,,,,,,,,,,,,,,,,,,,,,,,,,,,,,,,,,,,,,,,,,,,,,,CS1_USpos,None,1,,,,,,,,,,,,,,,,,,19,m,75,n,2019_Nov_21_1437,ec_RRR,3.0.4,85.00428774557605,
Stahl Bading Aust Heycke and Thomasius,Das Zielwesen für diese Aufgabe ist Shelmet:,"Also sobald Shelmet (sein Name oder sein Bild) auf dem Bildschirm erscheint, drücken Sie so schnell wie möglich die Leertaste. Drücken Sie die Leertaste immer, wenn Sie ein Bild von Shelmet oder das Wort SHELMET sehen. 

Drücken Sie die Leertaste, um die Aufgabe zu starten.",target2,stimuli/t2.jpg,75,57,stimuli/filler33.jpg,filler,False,None,,,,,,,,,,,,,,0,0,0,0,,,,,0,1,1,1,0,56,56,56,,,,,,,,,,,,,,,,,,,,,,,,,,,,,,,,,,,,,,,,,,,,,,,,,,,,,CS1_USpos,None,1,,,,,,,,,,,,,,,,,,19,m,75,n,2019_Nov_21_1437,ec_RRR,3.0.4,85.00428774557605,
Stahl Bading Aust Heycke and Thomasius,Das Zielwesen für diese Aufgabe ist Shelmet:,"Also sobald Shelmet (sein Name oder sein Bild) auf dem Bildschirm erscheint, drücken Sie so schnell wie möglich die Leertaste. Drücken Sie die Leertaste immer, wenn Sie ein Bild von Shelmet oder das Wort SHELMET sehen. 

Drücken Sie die Leertaste, um die Aufgabe zu starten.",target2,stimuli/t2.jpg,75,58,stimuli/filler26.jpg,filler,False,None,,,,,,,,,,,,,,0,0,0,0,,,,,0,1,1,1,0,57,57,57,,,,,,,,,,,,,,,,,,,,,,,,,,,,,,,,,,,,,,,,,,,,,,,,,,,,,CS1_USpos,None,1,,,,,,,,,,,,,,,,,,19,m,75,n,2019_Nov_21_1437,ec_RRR,3.0.4,85.00428774557605,
Stahl Bading Aust Heycke and Thomasius,Das Zielwesen für diese Aufgabe ist Shelmet:,"Also sobald Shelmet (sein Name oder sein Bild) auf dem Bildschirm erscheint, drücken Sie so schnell wie möglich die Leertaste. Drücken Sie die Leertaste immer, wenn Sie ein Bild von Shelmet oder das Wort SHELMET sehen. 

Drücken Sie die Leertaste, um die Aufgabe zu starten.",target2,stimuli/t2.jpg,75,59,stimuli/filler10.jpg,filler,False,None,,,,,,,,,,,,,,0,0,0,0,,,,,0,1,1,1,0,58,58,58,,,,,,,,,,,,,,,,,,,,,,,,,,,,,,,,,,,,,,,,,,,,,,,,,,,,,CS1_USpos,None,1,,,,,,,,,,,,,,,,,,19,m,75,n,2019_Nov_21_1437,ec_RRR,3.0.4,85.00428774557605,
Stahl Bading Aust Heycke and Thomasius,Das Zielwesen für diese Aufgabe ist Shelmet:,"Also sobald Shelmet (sein Name oder sein Bild) auf dem Bildschirm erscheint, drücken Sie so schnell wie möglich die Leertaste. Drücken Sie die Leertaste immer, wenn Sie ein Bild von Shelmet oder das Wort SHELMET sehen. 

Drücken Sie die Leertaste, um die Aufgabe zu starten.",target2,stimuli/t2.jpg,75,60,stimuli/blank.jpg,blank,False,None,,,,,,,,,,,,,,0,0,0,0,,,,,0,1,1,1,0,59,59,59,,,,,,,,,,,,,,,,,,,,,,,,,,,,,,,,,,,,,,,,,,,,,,,,,,,,,CS1_USpos,None,1,,,,,,,,,,,,,,,,,,19,m,75,n,2019_Nov_21_1437,ec_RRR,3.0.4,85.00428774557605,
Stahl Bading Aust Heycke and Thomasius,Das Zielwesen für diese Aufgabe ist Shelmet:,"Also sobald Shelmet (sein Name oder sein Bild) auf dem Bildschirm erscheint, drücken Sie so schnell wie möglich die Leertaste. Drücken Sie die Leertaste immer, wenn Sie ein Bild von Shelmet oder das Wort SHELMET sehen. 

Drücken Sie die Leertaste, um die Aufgabe zu starten.",target2,stimuli/t2.jpg,75,61,stimuli/cs2_neg5.jpg,CSUS,False,None,,,,,,,,,,,,,,0,0,0,0,,,,,0,1,1,1,0,60,60,60,,,,,,,,,,,,,,,,,,,,,,,,,,,,,,,,,,,,,,,,,,,,,,,,,,,,,CS1_USpos,None,1,,,,,,,,,,,,,,,,,,19,m,75,n,2019_Nov_21_1437,ec_RRR,3.0.4,85.00428774557605,
Stahl Bading Aust Heycke and Thomasius,Das Zielwesen für diese Aufgabe ist Shelmet:,"Also sobald Shelmet (sein Name oder sein Bild) auf dem Bildschirm erscheint, drücken Sie so schnell wie möglich die Leertaste. Drücken Sie die Leertaste immer, wenn Sie ein Bild von Shelmet oder das Wort SHELMET sehen. 

Drücken Sie die Leertaste, um die Aufgabe zu starten.",target2,stimuli/t2.jpg,75,62,stimuli/blank.jpg,blank,False,None,,,,,,,,,,,,,,0,0,0,0,,,,,0,1,1,1,0,61,61,61,,,,,,,,,,,,,,,,,,,,,,,,,,,,,,,,,,,,,,,,,,,,,,,,,,,,,CS1_USpos,None,1,,,,,,,,,,,,,,,,,,19,m,75,n,2019_Nov_21_1437,ec_RRR,3.0.4,85.00428774557605,
Stahl Bading Aust Heycke and Thomasius,Das Zielwesen für diese Aufgabe ist Shelmet:,"Also sobald Shelmet (sein Name oder sein Bild) auf dem Bildschirm erscheint, drücken Sie so schnell wie möglich die Leertaste. Drücken Sie die Leertaste immer, wenn Sie ein Bild von Shelmet oder das Wort SHELMET sehen. 

Drücken Sie die Leertaste, um die Aufgabe zu starten.",target2,stimuli/t2.jpg,75,63,stimuli/filler40.jpg,filler,False,None,,,,,,,,,,,,,,0,0,0,0,,,,,0,1,1,1,0,62,62,62,,,,,,,,,,,,,,,,,,,,,,,,,,,,,,,,,,,,,,,,,,,,,,,,,,,,,CS1_USpos,None,1,,,,,,,,,,,,,,,,,,19,m,75,n,2019_Nov_21_1437,ec_RRR,3.0.4,85.00428774557605,
Stahl Bading Aust Heycke and Thomasius,Das Zielwesen für diese Aufgabe ist Shelmet:,"Also sobald Shelmet (sein Name oder sein Bild) auf dem Bildschirm erscheint, drücken Sie so schnell wie möglich die Leertaste. Drücken Sie die Leertaste immer, wenn Sie ein Bild von Shelmet oder das Wort SHELMET sehen. 

Drücken Sie die Leertaste, um die Aufgabe zu starten.",target2,stimuli/t2.jpg,75,64,stimuli/target2_2.jpg,target,True,space,,,,,,,,,,,,,,0,0,0,0,,,,,0,1,1,1,0,63,63,63,,,,,,,,,,,,,,,,,,,,,,,,,,,,,,,,,,,,,,,,,,,,,,,,,,,,,CS1_USpos,space,1,0.482660644378484,,,,,,,,,,,,,,,,,19,m,75,n,2019_Nov_21_1437,ec_RRR,3.0.4,85.00428774557605,
Stahl Bading Aust Heycke and Thomasius,Das Zielwesen für diese Aufgabe ist Shelmet:,"Also sobald Shelmet (sein Name oder sein Bild) auf dem Bildschirm erscheint, drücken Sie so schnell wie möglich die Leertaste. Drücken Sie die Leertaste immer, wenn Sie ein Bild von Shelmet oder das Wort SHELMET sehen. 

Drücken Sie die Leertaste, um die Aufgabe zu starten.",target2,stimuli/t2.jpg,75,65,stimuli/filler19.jpg,filler,False,None,,,,,,,,,,,,,,0,0,0,0,,,,,0,1,1,1,0,64,64,64,,,,,,,,,,,,,,,,,,,,,,,,,,,,,,,,,,,,,,,,,,,,,,,,,,,,,CS1_USpos,None,1,,,,,,,,,,,,,,,,,,19,m,75,n,2019_Nov_21_1437,ec_RRR,3.0.4,85.00428774557605,
Stahl Bading Aust Heycke and Thomasius,Das Zielwesen für diese Aufgabe ist Shelmet:,"Also sobald Shelmet (sein Name oder sein Bild) auf dem Bildschirm erscheint, drücken Sie so schnell wie möglich die Leertaste. Drücken Sie die Leertaste immer, wenn Sie ein Bild von Shelmet oder das Wort SHELMET sehen. 

Drücken Sie die Leertaste, um die Aufgabe zu starten.",target2,stimuli/t2.jpg,75,66,stimuli/filler47.jpg,filler,False,None,,,,,,,,,,,,,,0,0,0,0,,,,,0,1,1,1,0,65,65,65,,,,,,,,,,,,,,,,,,,,,,,,,,,,,,,,,,,,,,,,,,,,,,,,,,,,,CS1_USpos,None,1,,,,,,,,,,,,,,,,,,19,m,75,n,2019_Nov_21_1437,ec_RRR,3.0.4,85.00428774557605,
Stahl Bading Aust Heycke and Thomasius,Das Zielwesen für diese Aufgabe ist Shelmet:,"Also sobald Shelmet (sein Name oder sein Bild) auf dem Bildschirm erscheint, drücken Sie so schnell wie möglich die Leertaste. Drücken Sie die Leertaste immer, wenn Sie ein Bild von Shelmet oder das Wort SHELMET sehen. 

Drücken Sie die Leertaste, um die Aufgabe zu starten.",target2,stimuli/t2.jpg,75,67,stimuli/filler17.jpg,filler,False,None,,,,,,,,,,,,,,0,0,0,0,,,,,0,1,1,1,0,66,66,66,,,,,,,,,,,,,,,,,,,,,,,,,,,,,,,,,,,,,,,,,,,,,,,,,,,,,CS1_USpos,None,1,,,,,,,,,,,,,,,,,,19,m,75,n,2019_Nov_21_1437,ec_RRR,3.0.4,85.00428774557605,
Stahl Bading Aust Heycke and Thomasius,Das Zielwesen für diese Aufgabe ist Shelmet:,"Also sobald Shelmet (sein Name oder sein Bild) auf dem Bildschirm erscheint, drücken Sie so schnell wie möglich die Leertaste. Drücken Sie die Leertaste immer, wenn Sie ein Bild von Shelmet oder das Wort SHELMET sehen. 

Drücken Sie die Leertaste, um die Aufgabe zu starten.",target2,stimuli/t2.jpg,75,68,stimuli/filler6.jpg,filler,False,None,,,,,,,,,,,,,,0,0,0,0,,,,,0,1,1,1,0,67,67,67,,,,,,,,,,,,,,,,,,,,,,,,,,,,,,,,,,,,,,,,,,,,,,,,,,,,,CS1_USpos,None,1,,,,,,,,,,,,,,,,,,19,m,75,n,2019_Nov_21_1437,ec_RRR,3.0.4,85.00428774557605,
Stahl Bading Aust Heycke and Thomasius,Das Zielwesen für diese Aufgabe ist Shelmet:,"Also sobald Shelmet (sein Name oder sein Bild) auf dem Bildschirm erscheint, drücken Sie so schnell wie möglich die Leertaste. Drücken Sie die Leertaste immer, wenn Sie ein Bild von Shelmet oder das Wort SHELMET sehen. 

Drücken Sie die Leertaste, um die Aufgabe zu starten.",target2,stimuli/t2.jpg,75,69,stimuli/filler27.jpg,filler,False,None,,,,,,,,,,,,,,0,0,0,0,,,,,0,1,1,1,0,68,68,68,,,,,,,,,,,,,,,,,,,,,,,,,,,,,,,,,,,,,,,,,,,,,,,,,,,,,CS1_USpos,None,1,,,,,,,,,,,,,,,,,,19,m,75,n,2019_Nov_21_1437,ec_RRR,3.0.4,85.00428774557605,
Stahl Bading Aust Heycke and Thomasius,Das Zielwesen für diese Aufgabe ist Shelmet:,"Also sobald Shelmet (sein Name oder sein Bild) auf dem Bildschirm erscheint, drücken Sie so schnell wie möglich die Leertaste. Drücken Sie die Leertaste immer, wenn Sie ein Bild von Shelmet oder das Wort SHELMET sehen. 

