data_collection_site,instructions_text_top,instructions_text_bottom,block_id,example_image,participant,trial_number,stimulus,trial_type,target_trial,surveillance_correct_response,filler_1_items,filler_2_items,middle_text,left_text,right_text,evaluation_stimulus,left_stimulus,right_stimulus,evaluation_response_indicating_CS1_preferred,awareness_1_question_text,awareness_2a_question_text,awareness_2b_question_text,awareness_2_question_text,record_data_collection_site_variable.thisRepN,record_data_collection_site_variable.thisTrialN,record_data_collection_site_variable.thisN,record_data_collection_site_variable.thisIndex,surveillance_instructions_loop.thisRepN,surveillance_instructions_loop.thisTrialN,surveillance_instructions_loop.thisN,surveillance_instructions_loop.thisIndex,surveillance_blocks_loop.thisRepN,surveillance_blocks_loop.thisTrialN,surveillance_blocks_loop.thisN,surveillance_blocks_loop.thisIndex,surveillance_trials_loop.thisRepN,surveillance_trials_loop.thisTrialN,surveillance_trials_loop.thisN,surveillance_trials_loop.thisIndex,filler_1_instructions_loop.thisRepN,filler_1_instructions_loop.thisTrialN,filler_1_instructions_loop.thisN,filler_1_instructions_loop.thisIndex,filler_1_loop.thisRepN,filler_1_loop.thisTrialN,filler_1_loop.thisN,filler_1_loop.thisIndex,filler_2_instructions_loop.thisRepN,filler_2_instructions_loop.thisTrialN,filler_2_instructions_loop.thisN,filler_2_instructions_loop.thisIndex,filler_2_loop.thisRepN,filler_2_loop.thisTrialN,filler_2_loop.thisN,filler_2_loop.thisIndex,evaluation_instructions_loop.thisRepN,evaluation_instructions_loop.thisTrialN,evaluation_instructions_loop.thisN,evaluation_instructions_loop.thisIndex,evaluation_loop.thisRepN,evaluation_loop.thisTrialN,evaluation_loop.thisN,evaluation_loop.thisIndex,evaluation_trials.thisRepN,evaluation_trials.thisTrialN,evaluation_trials.thisN,evaluation_trials.thisIndex,awareness_instructions_loop.thisRepN,awareness_instructions_loop.thisTrialN,awareness_instructions_loop.thisN,awareness_instructions_loop.thisIndex,awareness_1_trials_loop.thisRepN,awareness_1_trials_loop.thisTrialN,awareness_1_trials_loop.thisN,awareness_1_trials_loop.thisIndex,awareness_2a_trials_loop.thisRepN,awareness_2a_trials_loop.thisTrialN,awareness_2a_trials_loop.thisN,awareness_2a_trials_loop.thisIndex,awareness_2b_trials_loop.thisRepN,awareness_2b_trials_loop.thisTrialN,awareness_2b_trials_loop.thisN,awareness_2b_trials_loop.thisIndex,awareness_2c_trials_loop.thisRepN,awareness_2c_trials_loop.thisTrialN,awareness_2c_trials_loop.thisN,awareness_2c_trials_loop.thisIndex,end_message_loop.thisRepN,end_message_loop.thisTrialN,end_message_loop.thisN,end_message_loop.thisIndex,condition,surveillance_response.keys,surveillance_response.corr,surveillance_response.rt,filler_1_rating.response,filler_1_rating.rt,filler_2_rating.response,filler_2_rating.rt,evaluation_response.keys,evaluation_response.corr,evaluation_response.rt,inputText,awareness_1_response.keys,awareness_1_response.rt,awareness_type_2a_rating.response,awareness_type_2a_rating.rt,awareness_type_2b_rating.response,awareness_type_2b_rating.rt,awareness_type_2c_rating.response,awareness_type_2c_rating.rt,age,gender,participant,UseMonkey,date,expName,psychopyVersion,frameRate,
Balas and Sarzynnska,"Dla tego zadania, docelową postacią jest Jangmo:","Więc gdy tylko Jangmo (jego imię lub jego podobizna) pojawi się na ekranie, naciśnij spację tak szybko jak to możliwe. Uderz w spację gdy tylko zobaczysz podobiznę Jangmoa lub słowo JANGMO.

Naciśnij spację by rozpocząć zadanie",target1,stimuli/t1.jpg,111,1,stimuli/filler12.jpg,filler,False,None,,,,,,,,,,,,,,0,0,0,0,,,,,0,0,0,0,0,0,0,0,,,,,,,,,,,,,,,,,,,,,,,,,,,,,,,,,,,,,,,,,,,,,,,,,,,,,CS1_USpos,None,1,,,,,,,,,,,,,,,,,,29,M,111,n,2019_Nov_23_1613,ec_RRR,3.0.4,59.94532224752102,
Balas and Sarzynnska,"Dla tego zadania, docelową postacią jest Jangmo:","Więc gdy tylko Jangmo (jego imię lub jego podobizna) pojawi się na ekranie, naciśnij spację tak szybko jak to możliwe. Uderz w spację gdy tylko zobaczysz podobiznę Jangmoa lub słowo JANGMO.

Naciśnij spację by rozpocząć zadanie",target1,stimuli/t1.jpg,111,2,stimuli/target1_4.jpg,target,True,space,,,,,,,,,,,,,,0,0,0,0,,,,,0,0,0,0,0,1,1,1,,,,,,,,,,,,,,,,,,,,,,,,,,,,,,,,,,,,,,,,,,,,,,,,,,,,,CS1_USpos,space,1,0.8014405462163268,,,,,,,,,,,,,,,,,29,M,111,n,2019_Nov_23_1613,ec_RRR,3.0.4,59.94532224752102,
Balas and Sarzynnska,"Dla tego zadania, docelową postacią jest Jangmo:","Więc gdy tylko Jangmo (jego imię lub jego podobizna) pojawi się na ekranie, naciśnij spację tak szybko jak to możliwe. Uderz w spację gdy tylko zobaczysz podobiznę Jangmoa lub słowo JANGMO.

Naciśnij spację by rozpocząć zadanie",target1,stimuli/t1.jpg,111,3,stimuli/filler52.jpg,filler,False,None,,,,,,,,,,,,,,0,0,0,0,,,,,0,0,0,0,0,2,2,2,,,,,,,,,,,,,,,,,,,,,,,,,,,,,,,,,,,,,,,,,,,,,,,,,,,,,CS1_USpos,None,1,,,,,,,,,,,,,,,,,,29,M,111,n,2019_Nov_23_1613,ec_RRR,3.0.4,59.94532224752102,
Balas and Sarzynnska,"Dla tego zadania, docelową postacią jest Jangmo:","Więc gdy tylko Jangmo (jego imię lub jego podobizna) pojawi się na ekranie, naciśnij spację tak szybko jak to możliwe. Uderz w spację gdy tylko zobaczysz podobiznę Jangmoa lub słowo JANGMO.

Naciśnij spację by rozpocząć zadanie",target1,stimuli/t1.jpg,111,4,stimuli/filler18.jpg,filler,False,None,,,,,,,,,,,,,,0,0,0,0,,,,,0,0,0,0,0,3,3,3,,,,,,,,,,,,,,,,,,,,,,,,,,,,,,,,,,,,,,,,,,,,,,,,,,,,,CS1_USpos,None,1,,,,,,,,,,,,,,,,,,29,M,111,n,2019_Nov_23_1613,ec_RRR,3.0.4,59.94532224752102,
Balas and Sarzynnska,"Dla tego zadania, docelową postacią jest Jangmo:","Więc gdy tylko Jangmo (jego imię lub jego podobizna) pojawi się na ekranie, naciśnij spację tak szybko jak to możliwe. Uderz w spację gdy tylko zobaczysz podobiznę Jangmoa lub słowo JANGMO.

Naciśnij spację by rozpocząć zadanie",target1,stimuli/t1.jpg,111,5,stimuli/filler48.jpg,filler,False,None,,,,,,,,,,,,,,0,0,0,0,,,,,0,0,0,0,0,4,4,4,,,,,,,,,,,,,,,,,,,,,,,,,,,,,,,,,,,,,,,,,,,,,,,,,,,,,CS1_USpos,None,1,,,,,,,,,,,,,,,,,,29,M,111,n,2019_Nov_23_1613,ec_RRR,3.0.4,59.94532224752102,
Balas and Sarzynnska,"Dla tego zadania, docelową postacią jest Jangmo:","Więc gdy tylko Jangmo (jego imię lub jego podobizna) pojawi się na ekranie, naciśnij spację tak szybko jak to możliwe. Uderz w spację gdy tylko zobaczysz podobiznę Jangmoa lub słowo JANGMO.

Naciśnij spację by rozpocząć zadanie",target1,stimuli/t1.jpg,111,6,stimuli/filler46.jpg,filler,False,None,,,,,,,,,,,,,,0,0,0,0,,,,,0,0,0,0,0,5,5,5,,,,,,,,,,,,,,,,,,,,,,,,,,,,,,,,,,,,,,,,,,,,,,,,,,,,,CS1_USpos,None,1,,,,,,,,,,,,,,,,,,29,M,111,n,2019_Nov_23_1613,ec_RRR,3.0.4,59.94532224752102,
Balas and Sarzynnska,"Dla tego zadania, docelową postacią jest Jangmo:","Więc gdy tylko Jangmo (jego imię lub jego podobizna) pojawi się na ekranie, naciśnij spację tak szybko jak to możliwe. Uderz w spację gdy tylko zobaczysz podobiznę Jangmoa lub słowo JANGMO.

Naciśnij spację by rozpocząć zadanie",target1,stimuli/t1.jpg,111,7,stimuli/filler9.jpg,filler,False,None,,,,,,,,,,,,,,0,0,0,0,,,,,0,0,0,0,0,6,6,6,,,,,,,,,,,,,,,,,,,,,,,,,,,,,,,,,,,,,,,,,,,,,,,,,,,,,CS1_USpos,None,1,,,,,,,,,,,,,,,,,,29,M,111,n,2019_Nov_23_1613,ec_RRR,3.0.4,59.94532224752102,
Balas and Sarzynnska,"Dla tego zadania, docelową postacią jest Jangmo:","Więc gdy tylko Jangmo (jego imię lub jego podobizna) pojawi się na ekranie, naciśnij spację tak szybko jak to możliwe. Uderz w spację gdy tylko zobaczysz podobiznę Jangmoa lub słowo JANGMO.

Naciśnij spację by rozpocząć zadanie",target1,stimuli/t1.jpg,111,8,stimuli/target1_6.jpg,target,True,space,,,,,,,,,,,,,,0,0,0,0,,,,,0,0,0,0,0,7,7,7,,,,,,,,,,,,,,,,,,,,,,,,,,,,,,,,,,,,,,,,,,,,,,,,,,,,,CS1_USpos,space,1,1.2517282922854065,,,,,,,,,,,,,,,,,29,M,111,n,2019_Nov_23_1613,ec_RRR,3.0.4,59.94532224752102,
Balas and Sarzynnska,"Dla tego zadania, docelową postacią jest Jangmo:","Więc gdy tylko Jangmo (jego imię lub jego podobizna) pojawi się na ekranie, naciśnij spację tak szybko jak to możliwe. Uderz w spację gdy tylko zobaczysz podobiznę Jangmoa lub słowo JANGMO.

Naciśnij spację by rozpocząć zadanie",target1,stimuli/t1.jpg,111,9,stimuli/filler36.jpg,filler,False,None,,,,,,,,,,,,,,0,0,0,0,,,,,0,0,0,0,0,8,8,8,,,,,,,,,,,,,,,,,,,,,,,,,,,,,,,,,,,,,,,,,,,,,,,,,,,,,CS1_USpos,None,1,,,,,,,,,,,,,,,,,,29,M,111,n,2019_Nov_23_1613,ec_RRR,3.0.4,59.94532224752102,
Balas and Sarzynnska,"Dla tego zadania, docelową postacią jest Jangmo:","Więc gdy tylko Jangmo (jego imię lub jego podobizna) pojawi się na ekranie, naciśnij spację tak szybko jak to możliwe. Uderz w spację gdy tylko zobaczysz podobiznę Jangmoa lub słowo JANGMO.

Naciśnij spację by rozpocząć zadanie",target1,stimuli/t1.jpg,111,10,stimuli/blank.jpg,blank,False,None,,,,,,,,,,,,,,0,0,0,0,,,,,0,0,0,0,0,9,9,9,,,,,,,,,,,,,,,,,,,,,,,,,,,,,,,,,,,,,,,,,,,,,,,,,,,,,CS1_USpos,None,1,,,,,,,,,,,,,,,,,,29,M,111,n,2019_Nov_23_1613,ec_RRR,3.0.4,59.94532224752102,
Balas and Sarzynnska,"Dla tego zadania, docelową postacią jest Jangmo:","Więc gdy tylko Jangmo (jego imię lub jego podobizna) pojawi się na ekranie, naciśnij spację tak szybko jak to możliwe. Uderz w spację gdy tylko zobaczysz podobiznę Jangmoa lub słowo JANGMO.

Naciśnij spację by rozpocząć zadanie",target1,stimuli/t1.jpg,111,11,stimuli/cs1_pos6.jpg,CSUS,False,None,,,,,,,,,,,,,,0,0,0,0,,,,,0,0,0,0,0,10,10,10,,,,,,,,,,,,,,,,,,,,,,,,,,,,,,,,,,,,,,,,,,,,,,,,,,,,,CS1_USpos,None,1,,,,,,,,,,,,,,,,,,29,M,111,n,2019_Nov_23_1613,ec_RRR,3.0.4,59.94532224752102,
Balas and Sarzynnska,"Dla tego zadania, docelową postacią jest Jangmo:","Więc gdy tylko Jangmo (jego imię lub jego podobizna) pojawi się na ekranie, naciśnij spację tak szybko jak to możliwe. Uderz w spację gdy tylko zobaczysz podobiznę Jangmoa lub słowo JANGMO.

Naciśnij spację by rozpocząć zadanie",target1,stimuli/t1.jpg,111,12,stimuli/blank.jpg,blank,False,None,,,,,,,,,,,,,,0,0,0,0,,,,,0,0,0,0,0,11,11,11,,,,,,,,,,,,,,,,,,,,,,,,,,,,,,,,,,,,,,,,,,,,,,,,,,,,,CS1_USpos,None,1,,,,,,,,,,,,,,,,,,29,M,111,n,2019_Nov_23_1613,ec_RRR,3.0.4,59.94532224752102,
Balas and Sarzynnska,"Dla tego zadania, docelową postacią jest Jangmo:","Więc gdy tylko Jangmo (jego imię lub jego podobizna) pojawi się na ekranie, naciśnij spację tak szybko jak to możliwe. Uderz w spację gdy tylko zobaczysz podobiznę Jangmoa lub słowo JANGMO.

Naciśnij spację by rozpocząć zadanie",target1,stimuli/t1.jpg,111,13,stimuli/target1_9.jpg,target,True,space,,,,,,,,,,,,,,0,0,0,0,,,,,0,0,0,0,0,12,12,12,,,,,,,,,,,,,,,,,,,,,,,,,,,,,,,,,,,,,,,,,,,,,,,,,,,,,CS1_USpos,space,1,0.8180515261010441,,,,,,,,,,,,,,,,,29,M,111,n,2019_Nov_23_1613,ec_RRR,3.0.4,59.94532224752102,
Balas and Sarzynnska,"Dla tego zadania, docelową postacią jest Jangmo:","Więc gdy tylko Jangmo (jego imię lub jego podobizna) pojawi się na ekranie, naciśnij spację tak szybko jak to możliwe. Uderz w spację gdy tylko zobaczysz podobiznę Jangmoa lub słowo JANGMO.

Naciśnij spację by rozpocząć zadanie",target1,stimuli/t1.jpg,111,14,stimuli/filler45.jpg,filler,False,None,,,,,,,,,,,,,,0,0,0,0,,,,,0,0,0,0,0,13,13,13,,,,,,,,,,,,,,,,,,,,,,,,,,,,,,,,,,,,,,,,,,,,,,,,,,,,,CS1_USpos,None,1,,,,,,,,,,,,,,,,,,29,M,111,n,2019_Nov_23_1613,ec_RRR,3.0.4,59.94532224752102,
Balas and Sarzynnska,"Dla tego zadania, docelową postacią jest Jangmo:","Więc gdy tylko Jangmo (jego imię lub jego podobizna) pojawi się na ekranie, naciśnij spację tak szybko jak to możliwe. Uderz w spację gdy tylko zobaczysz podobiznę Jangmoa lub słowo JANGMO.

Naciśnij spację by rozpocząć zadanie",target1,stimuli/t1.jpg,111,15,stimuli/filler51.jpg,filler,False,None,,,,,,,,,,,,,,0,0,0,0,,,,,0,0,0,0,0,14,14,14,,,,,,,,,,,,,,,,,,,,,,,,,,,,,,,,,,,,,,,,,,,,,,,,,,,,,CS1_USpos,None,1,,,,,,,,,,,,,,,,,,29,M,111,n,2019_Nov_23_1613,ec_RRR,3.0.4,59.94532224752102,
Balas and Sarzynnska,"Dla tego zadania, docelową postacią jest Jangmo:","Więc gdy tylko Jangmo (jego imię lub jego podobizna) pojawi się na ekranie, naciśnij spację tak szybko jak to możliwe. Uderz w spację gdy tylko zobaczysz podobiznę Jangmoa lub słowo JANGMO.

Naciśnij spację by rozpocząć zadanie",target1,stimuli/t1.jpg,111,16,stimuli/filler34.jpg,filler,False,None,,,,,,,,,,,,,,0,0,0,0,,,,,0,0,0,0,0,15,15,15,,,,,,,,,,,,,,,,,,,,,,,,,,,,,,,,,,,,,,,,,,,,,,,,,,,,,CS1_USpos,None,1,,,,,,,,,,,,,,,,,,29,M,111,n,2019_Nov_23_1613,ec_RRR,3.0.4,59.94532224752102,
Balas and Sarzynnska,"Dla tego zadania, docelową postacią jest Jangmo:","Więc gdy tylko Jangmo (jego imię lub jego podobizna) pojawi się na ekranie, naciśnij spację tak szybko jak to możliwe. Uderz w spację gdy tylko zobaczysz podobiznę Jangmoa lub słowo JANGMO.

Naciśnij spację by rozpocząć zadanie",target1,stimuli/t1.jpg,111,17,stimuli/filler40.jpg,filler,False,None,,,,,,,,,,,,,,0,0,0,0,,,,,0,0,0,0,0,16,16,16,,,,,,,,,,,,,,,,,,,,,,,,,,,,,,,,,,,,,,,,,,,,,,,,,,,,,CS1_USpos,None,1,,,,,,,,,,,,,,,,,,29,M,111,n,2019_Nov_23_1613,ec_RRR,3.0.4,59.94532224752102,
Balas and Sarzynnska,"Dla tego zadania, docelową postacią jest Jangmo:","Więc gdy tylko Jangmo (jego imię lub jego podobizna) pojawi się na ekranie, naciśnij spację tak szybko jak to możliwe. Uderz w spację gdy tylko zobaczysz podobiznę Jangmoa lub słowo JANGMO.

Naciśnij spację by rozpocząć zadanie",target1,stimuli/t1.jpg,111,18,stimuli/filler17.jpg,filler,False,None,,,,,,,,,,,,,,0,0,0,0,,,,,0,0,0,0,0,17,17,17,,,,,,,,,,,,,,,,,,,,,,,,,,,,,,,,,,,,,,,,,,,,,,,,,,,,,CS1_USpos,None,1,,,,,,,,,,,,,,,,,,29,M,111,n,2019_Nov_23_1613,ec_RRR,3.0.4,59.94532224752102,
Balas and Sarzynnska,"Dla tego zadania, docelową postacią jest Jangmo:","Więc gdy tylko Jangmo (jego imię lub jego podobizna) pojawi się na ekranie, naciśnij spację tak szybko jak to możliwe. Uderz w spację gdy tylko zobaczysz podobiznę Jangmoa lub słowo JANGMO.

Naciśnij spację by rozpocząć zadanie",target1,stimuli/t1.jpg,111,19,stimuli/filler24.jpg,filler,False,None,,,,,,,,,,,,,,0,0,0,0,,,,,0,0,0,0,0,18,18,18,,,,,,,,,,,,,,,,,,,,,,,,,,,,,,,,,,,,,,,,,,,,,,,,,,,,,CS1_USpos,None,1,,,,,,,,,,,,,,,,,,29,M,111,n,2019_Nov_23_1613,ec_RRR,3.0.4,59.94532224752102,
Balas and Sarzynnska,"Dla tego zadania, docelową postacią jest Jangmo:","Więc gdy tylko Jangmo (jego imię lub jego podobizna) pojawi się na ekranie, naciśnij spację tak szybko jak to możliwe. Uderz w spację gdy tylko zobaczysz podobiznę Jangmoa lub słowo JANGMO.

Naciśnij spację by rozpocząć zadanie",target1,stimuli/t1.jpg,111,20,stimuli/blank.jpg,blank,False,None,,,,,,,,,,,,,,0,0,0,0,,,,,0,0,0,0,0,19,19,19,,,,,,,,,,,,,,,,,,,,,,,,,,,,,,,,,,,,,,,,,,,,,,,,,,,,,CS1_USpos,None,1,,,,,,,,,,,,,,,,,,29,M,111,n,2019_Nov_23_1613,ec_RRR,3.0.4,59.94532224752102,
Balas and Sarzynnska,"Dla tego zadania, docelową postacią jest Jangmo:","Więc gdy tylko Jangmo (jego imię lub jego podobizna) pojawi się na ekranie, naciśnij spację tak szybko jak to możliwe. Uderz w spację gdy tylko zobaczysz podobiznę Jangmoa lub słowo JANGMO.

Naciśnij spację by rozpocząć zadanie",target1,stimuli/t1.jpg,111,21,stimuli/cs2_neg2.jpg,CSUS,False,None,,,,,,,,,,,,,,0,0,0,0,,,,,0,0,0,0,0,20,20,20,,,,,,,,,,,,,,,,,,,,,,,,,,,,,,,,,,,,,,,,,,,,,,,,,,,,,CS1_USpos,None,1,,,,,,,,,,,,,,,,,,29,M,111,n,2019_Nov_23_1613,ec_RRR,3.0.4,59.94532224752102,
Balas and Sarzynnska,"Dla tego zadania, docelową postacią jest Jangmo:","Więc gdy tylko Jangmo (jego imię lub jego podobizna) pojawi się na ekranie, naciśnij spację tak szybko jak to możliwe. Uderz w spację gdy tylko zobaczysz podobiznę Jangmoa lub słowo JANGMO.

Naciśnij spację by rozpocząć zadanie",target1,stimuli/t1.jpg,111,22,stimuli/blank.jpg,blank,False,None,,,,,,,,,,,,,,0,0,0,0,,,,,0,0,0,0,0,21,21,21,,,,,,,,,,,,,,,,,,,,,,,,,,,,,,,,,,,,,,,,,,,,,,,,,,,,,CS1_USpos,None,1,,,,,,,,,,,,,,,,,,29,M,111,n,2019_Nov_23_1613,ec_RRR,3.0.4,59.94532224752102,
Balas and Sarzynnska,"Dla tego zadania, docelową postacią jest Jangmo:","Więc gdy tylko Jangmo (jego imię lub jego podobizna) pojawi się na ekranie, naciśnij spację tak szybko jak to możliwe. Uderz w spację gdy tylko zobaczysz podobiznę Jangmoa lub słowo JANGMO.

Naciśnij spację by rozpocząć zadanie",target1,stimuli/t1.jpg,111,23,stimuli/filler4.jpg,filler,False,None,,,,,,,,,,,,,,0,0,0,0,,,,,0,0,0,0,0,22,22,22,,,,,,,,,,,,,,,,,,,,,,,,,,,,,,,,,,,,,,,,,,,,,,,,,,,,,CS1_USpos,None,1,,,,,,,,,,,,,,,,,,29,M,111,n,2019_Nov_23_1613,ec_RRR,3.0.4,59.94532224752102,
Balas and Sarzynnska,"Dla tego zadania, docelową postacią jest Jangmo:","Więc gdy tylko Jangmo (jego imię lub jego podobizna) pojawi się na ekranie, naciśnij spację tak szybko jak to możliwe. Uderz w spację gdy tylko zobaczysz podobiznę Jangmoa lub słowo JANGMO.

Naciśnij spację by rozpocząć zadanie",target1,stimuli/t1.jpg,111,24,stimuli/filler37.jpg,filler,False,None,,,,,,,,,,,,,,0,0,0,0,,,,,0,0,0,0,0,23,23,23,,,,,,,,,,,,,,,,,,,,,,,,,,,,,,,,,,,,,,,,,,,,,,,,,,,,,CS1_USpos,None,1,,,,,,,,,,,,,,,,,,29,M,111,n,2019_Nov_23_1613,ec_RRR,3.0.4,59.94532224752102,
Balas and Sarzynnska,"Dla tego zadania, docelową postacią jest Jangmo:","Więc gdy tylko Jangmo (jego imię lub jego podobizna) pojawi się na ekranie, naciśnij spację tak szybko jak to możliwe. Uderz w spację gdy tylko zobaczysz podobiznę Jangmoa lub słowo JANGMO.

Naciśnij spację by rozpocząć zadanie",target1,stimuli/t1.jpg,111,25,stimuli/filler14.jpg,filler,False,None,,,,,,,,,,,,,,0,0,0,0,,,,,0,0,0,0,0,24,24,24,,,,,,,,,,,,,,,,,,,,,,,,,,,,,,,,,,,,,,,,,,,,,,,,,,,,,CS1_USpos,None,1,,,,,,,,,,,,,,,,,,29,M,111,n,2019_Nov_23_1613,ec_RRR,3.0.4,59.94532224752102,
Balas and Sarzynnska,"Dla tego zadania, docelową postacią jest Jangmo:","Więc gdy tylko Jangmo (jego imię lub jego podobizna) pojawi się na ekranie, naciśnij spację tak szybko jak to możliwe. Uderz w spację gdy tylko zobaczysz podobiznę Jangmoa lub słowo JANGMO.

Naciśnij spację by rozpocząć zadanie",target1,stimuli/t1.jpg,111,26,stimuli/filler27.jpg,filler,False,None,,,,,,,,,,,,,,0,0,0,0,,,,,0,0,0,0,0,25,25,25,,,,,,,,,,,,,,,,,,,,,,,,,,,,,,,,,,,,,,,,,,,,,,,,,,,,,CS1_USpos,None,1,,,,,,,,,,,,,,,,,,29,M,111,n,2019_Nov_23_1613,ec_RRR,3.0.4,59.94532224752102,
Balas and Sarzynnska,"Dla tego zadania, docelową postacią jest Jangmo:","Więc gdy tylko Jangmo (jego imię lub jego podobizna) pojawi się na ekranie, naciśnij spację tak szybko jak to możliwe. Uderz w spację gdy tylko zobaczysz podobiznę Jangmoa lub słowo JANGMO.

Naciśnij spację by rozpocząć zadanie",target1,stimuli/t1.jpg,111,27,stimuli/filler30.jpg,filler,False,None,,,,,,,,,,,,,,0,0,0,0,,,,,0,0,0,0,0,26,26,26,,,,,,,,,,,,,,,,,,,,,,,,,,,,,,,,,,,,,,,,,,,,,,,,,,,,,CS1_USpos,None,1,,,,,,,,,,,,,,,,,,29,M,111,n,2019_Nov_23_1613,ec_RRR,3.0.4,59.94532224752102,
Balas and Sarzynnska,"Dla tego zadania, docelową postacią jest Jangmo:","Więc gdy tylko Jangmo (jego imię lub jego podobizna) pojawi się na ekranie, naciśnij spację tak szybko jak to możliwe. Uderz w spację gdy tylko zobaczysz podobiznę Jangmoa lub słowo JANGMO.

Naciśnij spację by rozpocząć zadanie",target1,stimuli/t1.jpg,111,28,stimuli/filler22.jpg,filler,False,None,,,,,,,,,,,,,,0,0,0,0,,,,,0,0,0,0,0,27,27,27,,,,,,,,,,,,,,,,,,,,,,,,,,,,,,,,,,,,,,,,,,,,,,,,,,,,,CS1_USpos,None,1,,,,,,,,,,,,,,,,,,29,M,111,n,2019_Nov_23_1613,ec_RRR,3.0.4,59.94532224752102,
Balas and Sarzynnska,"Dla tego zadania, docelową postacią jest Jangmo:","Więc gdy tylko Jangmo (jego imię lub jego podobizna) pojawi się na ekranie, naciśnij spację tak szybko jak to możliwe. Uderz w spację gdy tylko zobaczysz podobiznę Jangmoa lub słowo JANGMO.

Naciśnij spację by rozpocząć zadanie",target1,stimuli/t1.jpg,111,29,stimuli/target1_3.jpg,target,True,space,,,,,,,,,,,,,,0,0,0,0,,,,,0,0,0,0,0,28,28,28,,,,,,,,,,,,,,,,,,,,,,,,,,,,,,,,,,,,,,,,,,,,,,,,,,,,,CS1_USpos,space,1,0.5344890900960308,,,,,,,,,,,,,,,,,29,M,111,n,2019_Nov_23_1613,ec_RRR,3.0.4,59.94532224752102,
Balas and Sarzynnska,"Dla tego zadania, docelową postacią jest Jangmo:","Więc gdy tylko Jangmo (jego imię lub jego podobizna) pojawi się na ekranie, naciśnij spację tak szybko jak to możliwe. Uderz w spację gdy tylko zobaczysz podobiznę Jangmoa lub słowo JANGMO.

Naciśnij spację by rozpocząć zadanie",target1,stimuli/t1.jpg,111,30,stimuli/blank.jpg,blank,False,None,,,,,,,,,,,,,,0,0,0,0,,,,,0,0,0,0,0,29,29,29,,,,,,,,,,,,,,,,,,,,,,,,,,,,,,,,,,,,,,,,,,,,,,,,,,,,,CS1_USpos,None,1,,,,,,,,,,,,,,,,,,29,M,111,n,2019_Nov_23_1613,ec_RRR,3.0.4,59.94532224752102,
Balas and Sarzynnska,"Dla tego zadania, docelową postacią jest Jangmo:","Więc gdy tylko Jangmo (jego imię lub jego podobizna) pojawi się na ekranie, naciśnij spację tak szybko jak to możliwe. Uderz w spację gdy tylko zobaczysz podobiznę Jangmoa lub słowo JANGMO.

Naciśnij spację by rozpocząć zadanie",target1,stimuli/t1.jpg,111,31,stimuli/cs1_pos2.jpg,CSUS,False,None,,,,,,,,,,,,,,0,0,0,0,,,,,0,0,0,0,0,30,30,30,,,,,,,,,,,,,,,,,,,,,,,,,,,,,,,,,,,,,,,,,,,,,,,,,,,,,CS1_USpos,None,1,,,,,,,,,,,,,,,,,,29,M,111,n,2019_Nov_23_1613,ec_RRR,3.0.4,59.94532224752102,
Balas and Sarzynnska,"Dla tego zadania, docelową postacią jest Jangmo:","Więc gdy tylko Jangmo (jego imię lub jego podobizna) pojawi się na ekranie, naciśnij spację tak szybko jak to możliwe. Uderz w spację gdy tylko zobaczysz podobiznę Jangmoa lub słowo JANGMO.

Naciśnij spację by rozpocząć zadanie",target1,stimuli/t1.jpg,111,32,stimuli/blank.jpg,blank,False,None,,,,,,,,,,,,,,0,0,0,0,,,,,0,0,0,0,0,31,31,31,,,,,,,,,,,,,,,,,,,,,,,,,,,,,,,,,,,,,,,,,,,,,,,,,,,,,CS1_USpos,None,1,,,,,,,,,,,,,,,,,,29,M,111,n,2019_Nov_23_1613,ec_RRR,3.0.4,59.94532224752102,
Balas and Sarzynnska,"Dla tego zadania, docelową postacią jest Jangmo:","Więc gdy tylko Jangmo (jego imię lub jego podobizna) pojawi się na ekranie, naciśnij spację tak szybko jak to możliwe. Uderz w spację gdy tylko zobaczysz podobiznę Jangmoa lub słowo JANGMO.

Naciśnij spację by rozpocząć zadanie",target1,stimuli/t1.jpg,111,33,stimuli/filler41.jpg,filler,False,None,,,,,,,,,,,,,,0,0,0,0,,,,,0,0,0,0,0,32,32,32,,,,,,,,,,,,,,,,,,,,,,,,,,,,,,,,,,,,,,,,,,,,,,,,,,,,,CS1_USpos,None,1,,,,,,,,,,,,,,,,,,29,M,111,n,2019_Nov_23_1613,ec_RRR,3.0.4,59.94532224752102,
Balas and Sarzynnska,"Dla tego zadania, docelową postacią jest Jangmo:","Więc gdy tylko Jangmo (jego imię lub jego podobizna) pojawi się na ekranie, naciśnij spację tak szybko jak to możliwe. Uderz w spację gdy tylko zobaczysz podobiznę Jangmoa lub słowo JANGMO.

Naciśnij spację by rozpocząć zadanie",target1,stimuli/t1.jpg,111,34,stimuli/filler13.jpg,filler,False,None,,,,,,,,,,,,,,0,0,0,0,,,,,0,0,0,0,0,33,33,33,,,,,,,,,,,,,,,,,,,,,,,,,,,,,,,,,,,,,,,,,,,,,,,,,,,,,CS1_USpos,None,1,,,,,,,,,,,,,,,,,,29,M,111,n,2019_Nov_23_1613,ec_RRR,3.0.4,59.94532224752102,
Balas and Sarzynnska,"Dla tego zadania, docelową postacią jest Jangmo:","Więc gdy tylko Jangmo (jego imię lub jego podobizna) pojawi się na ekranie, naciśnij spację tak szybko jak to możliwe. Uderz w spację gdy tylko zobaczysz podobiznę Jangmoa lub słowo JANGMO.

Naciśnij spację by rozpocząć zadanie",target1,stimuli/t1.jpg,111,35,stimuli/filler23.jpg,filler,False,None,,,,,,,,,,,,,,0,0,0,0,,,,,0,0,0,0,0,34,34,34,,,,,,,,,,,,,,,,,,,,,,,,,,,,,,,,,,,,,,,,,,,,,,,,,,,,,CS1_USpos,None,1,,,,,,,,,,,,,,,,,,29,M,111,n,2019_Nov_23_1613,ec_RRR,3.0.4,59.94532224752102,
Balas and Sarzynnska,"Dla tego zadania, docelową postacią jest Jangmo:","Więc gdy tylko Jangmo (jego imię lub jego podobizna) pojawi się na ekranie, naciśnij spację tak szybko jak to możliwe. Uderz w spację gdy tylko zobaczysz podobiznę Jangmoa lub słowo JANGMO.

Naciśnij spację by rozpocząć zadanie",target1,stimuli/t1.jpg,111,36,stimuli/filler47.jpg,filler,False,None,,,,,,,,,,,,,,0,0,0,0,,,,,0,0,0,0,0,35,35,35,,,,,,,,,,,,,,,,,,,,,,,,,,,,,,,,,,,,,,,,,,,,,,,,,,,,,CS1_USpos,None,1,,,,,,,,,,,,,,,,,,29,M,111,n,2019_Nov_23_1613,ec_RRR,3.0.4,59.94532224752102,
Balas and Sarzynnska,"Dla tego zadania, docelową postacią jest Jangmo:","Więc gdy tylko Jangmo (jego imię lub jego podobizna) pojawi się na ekranie, naciśnij spację tak szybko jak to możliwe. Uderz w spację gdy tylko zobaczysz podobiznę Jangmoa lub słowo JANGMO.

Naciśnij spację by rozpocząć zadanie",target1,stimuli/t1.jpg,111,37,stimuli/filler19.jpg,filler,False,None,,,,,,,,,,,,,,0,0,0,0,,,,,0,0,0,0,0,36,36,36,,,,,,,,,,,,,,,,,,,,,,,,,,,,,,,,,,,,,,,,,,,,,,,,,,,,,CS1_USpos,None,1,,,,,,,,,,,,,,,,,,29,M,111,n,2019_Nov_23_1613,ec_RRR,3.0.4,59.94532224752102,
Balas and Sarzynnska,"Dla tego zadania, docelową postacią jest Jangmo:","Więc gdy tylko Jangmo (jego imię lub jego podobizna) pojawi się na ekranie, naciśnij spację tak szybko jak to możliwe. Uderz w spację gdy tylko zobaczysz podobiznę Jangmoa lub słowo JANGMO.

Naciśnij spację by rozpocząć zadanie",target1,stimuli/t1.jpg,111,38,stimuli/filler7.jpg,filler,False,None,,,,,,,,,,,,,,0,0,0,0,,,,,0,0,0,0,0,37,37,37,,,,,,,,,,,,,,,,,,,,,,,,,,,,,,,,,,,,,,,,,,,,,,,,,,,,,CS1_USpos,None,1,,,,,,,,,,,,,,,,,,29,M,111,n,2019_Nov_23_1613,ec_RRR,3.0.4,59.94532224752102,
Balas and Sarzynnska,"Dla tego zadania, docelową postacią jest Jangmo:","Więc gdy tylko Jangmo (jego imię lub jego podobizna) pojawi się na ekranie, naciśnij spację tak szybko jak to możliwe. Uderz w spację gdy tylko zobaczysz podobiznę Jangmoa lub słowo JANGMO.

Naciśnij spację by rozpocząć zadanie",target1,stimuli/t1.jpg,111,39,stimuli/filler8.jpg,filler,False,None,,,,,,,,,,,,,,0,0,0,0,,,,,0,0,0,0,0,38,38,38,,,,,,,,,,,,,,,,,,,,,,,,,,,,,,,,,,,,,,,,,,,,,,,,,,,,,CS1_USpos,None,1,,,,,,,,,,,,,,,,,,29,M,111,n,2019_Nov_23_1613,ec_RRR,3.0.4,59.94532224752102,
Balas and Sarzynnska,"Dla tego zadania, docelową postacią jest Jangmo:","Więc gdy tylko Jangmo (jego imię lub jego podobizna) pojawi się na ekranie, naciśnij spację tak szybko jak to możliwe. Uderz w spację gdy tylko zobaczysz podobiznę Jangmoa lub słowo JANGMO.

Naciśnij spację by rozpocząć zadanie",target1,stimuli/t1.jpg,111,40,stimuli/blank.jpg,blank,False,None,,,,,,,,,,,,,,0,0,0,0,,,,,0,0,0,0,0,39,39,39,,,,,,,,,,,,,,,,,,,,,,,,,,,,,,,,,,,,,,,,,,,,,,,,,,,,,CS1_USpos,None,1,,,,,,,,,,,,,,,,,,29,M,111,n,2019_Nov_23_1613,ec_RRR,3.0.4,59.94532224752102,
Balas and Sarzynnska,"Dla tego zadania, docelową postacią jest Jangmo:","Więc gdy tylko Jangmo (jego imię lub jego podobizna) pojawi się na ekranie, naciśnij spację tak szybko jak to możliwe. Uderz w spację gdy tylko zobaczysz podobiznę Jangmoa lub słowo JANGMO.

Naciśnij spację by rozpocząć zadanie",target1,stimuli/t1.jpg,111,41,stimuli/cs2_neg9.jpg,CSUS,False,None,,,,,,,,,,,,,,0,0,0,0,,,,,0,0,0,0,0,40,40,40,,,,,,,,,,,,,,,,,,,,,,,,,,,,,,,,,,,,,,,,,,,,,,,,,,,,,CS1_USpos,None,1,,,,,,,,,,,,,,,,,,29,M,111,n,2019_Nov_23_1613,ec_RRR,3.0.4,59.94532224752102,
Balas and Sarzynnska,"Dla tego zadania, docelową postacią jest Jangmo:","Więc gdy tylko Jangmo (jego imię lub jego podobizna) pojawi się na ekranie, naciśnij spację tak szybko jak to możliwe. Uderz w spację gdy tylko zobaczysz podobiznę Jangmoa lub słowo JANGMO.

Naciśnij spację by rozpocząć zadanie",target1,stimuli/t1.jpg,111,42,stimuli/blank.jpg,blank,False,None,,,,,,,,,,,,,,0,0,0,0,,,,,0,0,0,0,0,41,41,41,,,,,,,,,,,,,,,,,,,,,,,,,,,,,,,,,,,,,,,,,,,,,,,,,,,,,CS1_USpos,None,1,,,,,,,,,,,,,,,,,,29,M,111,n,2019_Nov_23_1613,ec_RRR,3.0.4,59.94532224752102,
Balas and Sarzynnska,"Dla tego zadania, docelową postacią jest Jangmo:","Więc gdy tylko Jangmo (jego imię lub jego podobizna) pojawi się na ekranie, naciśnij spację tak szybko jak to możliwe. Uderz w spację gdy tylko zobaczysz podobiznę Jangmoa lub słowo JANGMO.

Naciśnij spację by rozpocząć zadanie",target1,stimuli/t1.jpg,111,43,stimuli/filler28.jpg,filler,False,None,,,,,,,,,,,,,,0,0,0,0,,,,,0,0,0,0,0,42,42,42,,,,,,,,,,,,,,,,,,,,,,,,,,,,,,,,,,,,,,,,,,,,,,,,,,,,,CS1_USpos,None,1,,,,,,,,,,,,,,,,,,29,M,111,n,2019_Nov_23_1613,ec_RRR,3.0.4,59.94532224752102,
Balas and Sarzynnska,"Dla tego zadania, docelową postacią jest Jangmo:","Więc gdy tylko Jangmo (jego imię lub jego podobizna) pojawi się na ekranie, naciśnij spację tak szybko jak to możliwe. Uderz w spację gdy tylko zobaczysz podobiznę Jangmoa lub słowo JANGMO.

Naciśnij spację by rozpocząć zadanie",target1,stimuli/t1.jpg,111,44,stimuli/filler32.jpg,filler,False,None,,,,,,,,,,,,,,0,0,0,0,,,,,0,0,0,0,0,43,43,43,,,,,,,,,,,,,,,,,,,,,,,,,,,,,,,,,,,,,,,,,,,,,,,,,,,,,CS1_USpos,None,1,,,,,,,,,,,,,,,,,,29,M,111,n,2019_Nov_23_1613,ec_RRR,3.0.4,59.94532224752102,
Balas and Sarzynnska,"Dla tego zadania, docelową postacią jest Jangmo:","Więc gdy tylko Jangmo (jego imię lub jego podobizna) pojawi się na ekranie, naciśnij spację tak szybko jak to możliwe. Uderz w spację gdy tylko zobaczysz podobiznę Jangmoa lub słowo JANGMO.

Naciśnij spację by rozpocząć zadanie",target1,stimuli/t1.jpg,111,45,stimuli/filler5.jpg,filler,False,None,,,,,,,,,,,,,,0,0,0,0,,,,,0,0,0,0,0,44,44,44,,,,,,,,,,,,,,,,,,,,,,,,,,,,,,,,,,,,,,,,,,,,,,,,,,,,,CS1_USpos,None,1,,,,,,,,,,,,,,,,,,29,M,111,n,2019_Nov_23_1613,ec_RRR,3.0.4,59.94532224752102,
Balas and Sarzynnska,"Dla tego zadania, docelową postacią jest Jangmo:","Więc gdy tylko Jangmo (jego imię lub jego podobizna) pojawi się na ekranie, naciśnij spację tak szybko jak to możliwe. Uderz w spację gdy tylko zobaczysz podobiznę Jangmoa lub słowo JANGMO.

Naciśnij spację by rozpocząć zadanie",target1,stimuli/t1.jpg,111,46,stimuli/filler33.jpg,filler,False,None,,,,,,,,,,,,,,0,0,0,0,,,,,0,0,0,0,0,45,45,45,,,,,,,,,,,,,,,,,,,,,,,,,,,,,,,,,,,,,,,,,,,,,,,,,,,,,CS1_USpos,None,1,,,,,,,,,,,,,,,,,,29,M,111,n,2019_Nov_23_1613,ec_RRR,3.0.4,59.94532224752102,
Balas and Sarzynnska,"Dla tego zadania, docelową postacią jest Jangmo:","Więc gdy tylko Jangmo (jego imię lub jego podobizna) pojawi się na ekranie, naciśnij spację tak szybko jak to możliwe. Uderz w spację gdy tylko zobaczysz podobiznę Jangmoa lub słowo JANGMO.

Naciśnij spację by rozpocząć zadanie",target1,stimuli/t1.jpg,111,47,stimuli/target1_7.jpg,target,True,space,,,,,,,,,,,,,,0,0,0,0,,,,,0,0,0,0,0,46,46,46,,,,,,,,,,,,,,,,,,,,,,,,,,,,,,,,,,,,,,,,,,,,,,,,,,,,,CS1_USpos,space,1,0.8347353504432249,,,,,,,,,,,,,,,,,29,M,111,n,2019_Nov_23_1613,ec_RRR,3.0.4,59.94532224752102,
Balas and Sarzynnska,"Dla tego zadania, docelową postacią jest Jangmo:","Więc gdy tylko Jangmo (jego imię lub jego podobizna) pojawi się na ekranie, naciśnij spację tak szybko jak to możliwe. Uderz w spację gdy tylko zobaczysz podobiznę Jangmoa lub słowo JANGMO.

Naciśnij spację by rozpocząć zadanie",target1,stimuli/t1.jpg,111,48,stimuli/filler50.jpg,filler,False,None,,,,,,,,,,,,,,0,0,0,0,,,,,0,0,0,0,0,47,47,47,,,,,,,,,,,,,,,,,,,,,,,,,,,,,,,,,,,,,,,,,,,,,,,,,,,,,CS1_USpos,None,1,,,,,,,,,,,,,,,,,,29,M,111,n,2019_Nov_23_1613,ec_RRR,3.0.4,59.94532224752102,
Balas and Sarzynnska,"Dla tego zadania, docelową postacią jest Jangmo:","Więc gdy tylko Jangmo (jego imię lub jego podobizna) pojawi się na ekranie, naciśnij spację tak szybko jak to możliwe. Uderz w spację gdy tylko zobaczysz podobiznę Jangmoa lub słowo JANGMO.

Naciśnij spację by rozpocząć zadanie",target1,stimuli/t1.jpg,111,49,stimuli/target1_8.jpg,target,True,space,,,,,,,,,,,,,,0,0,0,0,,,,,0,0,0,0,0,48,48,48,,,,,,,,,,,,,,,,,,,,,,,,,,,,,,,,,,,,,,,,,,,,,,,,,,,,,CS1_USpos,space,1,0.51781308797581,,,,,,,,,,,,,,,,,29,M,111,n,2019_Nov_23_1613,ec_RRR,3.0.4,59.94532224752102,
Balas and Sarzynnska,"Dla tego zadania, docelową postacią jest Jangmo:","Więc gdy tylko Jangmo (jego imię lub jego podobizna) pojawi się na ekranie, naciśnij spację tak szybko jak to możliwe. Uderz w spację gdy tylko zobaczysz podobiznę Jangmoa lub słowo JANGMO.

Naciśnij spację by rozpocząć zadanie",target1,stimuli/t1.jpg,111,50,stimuli/blank.jpg,blank,False,None,,,,,,,,,,,,,,0,0,0,0,,,,,0,0,0,0,0,49,49,49,,,,,,,,,,,,,,,,,,,,,,,,,,,,,,,,,,,,,,,,,,,,,,,,,,,,,CS1_USpos,None,1,,,,,,,,,,,,,,,,,,29,M,111,n,2019_Nov_23_1613,ec_RRR,3.0.4,59.94532224752102,
Balas and Sarzynnska,"Dla tego zadania, docelową postacią jest Jangmo:","Więc gdy tylko Jangmo (jego imię lub jego podobizna) pojawi się na ekranie, naciśnij spację tak szybko jak to możliwe. Uderz w spację gdy tylko zobaczysz podobiznę Jangmoa lub słowo JANGMO.

Naciśnij spację by rozpocząć zadanie",target1,stimuli/t1.jpg,111,51,stimuli/cs1_pos4.jpg,CSUS,False,None,,,,,,,,,,,,,,0,0,0,0,,,,,0,0,0,0,0,50,50,50,,,,,,,,,,,,,,,,,,,,,,,,,,,,,,,,,,,,,,,,,,,,,,,,,,,,,CS1_USpos,None,1,,,,,,,,,,,,,,,,,,29,M,111,n,2019_Nov_23_1613,ec_RRR,3.0.4,59.94532224752102,
Balas and Sarzynnska,"Dla tego zadania, docelową postacią jest Jangmo:","Więc gdy tylko Jangmo (jego imię lub jego podobizna) pojawi się na ekranie, naciśnij spację tak szybko jak to możliwe. Uderz w spację gdy tylko zobaczysz podobiznę Jangmoa lub słowo JANGMO.

Naciśnij spację by rozpocząć zadanie",target1,stimuli/t1.jpg,111,52,stimuli/blank.jpg,blank,False,None,,,,,,,,,,,,,,0,0,0,0,,,,,0,0,0,0,0,51,51,51,,,,,,,,,,,,,,,,,,,,,,,,,,,,,,,,,,,,,,,,,,,,,,,,,,,,,CS1_USpos,None,1,,,,,,,,,,,,,,,,,,29,M,111,n,2019_Nov_23_1613,ec_RRR,3.0.4,59.94532224752102,
Balas and Sarzynnska,"Dla tego zadania, docelową postacią jest Jangmo:","Więc gdy tylko Jangmo (jego imię lub jego podobizna) pojawi się na ekranie, naciśnij spację tak szybko jak to możliwe. Uderz w spację gdy tylko zobaczysz podobiznę Jangmoa lub słowo JANGMO.

Naciśnij spację by rozpocząć zadanie",target1,stimuli/t1.jpg,111,53,stimuli/filler25.jpg,filler,False,None,,,,,,,,,,,,,,0,0,0,0,,,,,0,0,0,0,0,52,52,52,,,,,,,,,,,,,,,,,,,,,,,,,,,,,,,,,,,,,,,,,,,,,,,,,,,,,CS1_USpos,None,1,,,,,,,,,,,,,,,,,,29,M,111,n,2019_Nov_23_1613,ec_RRR,3.0.4,59.94532224752102,
Balas and Sarzynnska,"Dla tego zadania, docelową postacią jest Jangmo:","Więc gdy tylko Jangmo (jego imię lub jego podobizna) pojawi się na ekranie, naciśnij spację tak szybko jak to możliwe. Uderz w spację gdy tylko zobaczysz podobiznę Jangmoa lub słowo JANGMO.

Naciśnij spację by rozpocząć zadanie",target1,stimuli/t1.jpg,111,54,stimuli/filler43.jpg,filler,False,None,,,,,,,,,,,,,,0,0,0,0,,,,,0,0,0,0,0,53,53,53,,,,,,,,,,,,,,,,,,,,,,,,,,,,,,,,,,,,,,,,,,,,,,,,,,,,,CS1_USpos,None,1,,,,,,,,,,,,,,,,,,29,M,111,n,2019_Nov_23_1613,ec_RRR,3.0.4,59.94532224752102,
Balas and Sarzynnska,"Dla tego zadania, docelową postacią jest Jangmo:","Więc gdy tylko Jangmo (jego imię lub jego podobizna) pojawi się na ekranie, naciśnij spację tak szybko jak to możliwe. Uderz w spację gdy tylko zobaczysz podobiznę Jangmoa lub słowo JANGMO.

Naciśnij spację by rozpocząć zadanie",target1,stimuli/t1.jpg,111,55,stimuli/filler31.jpg,filler,False,None,,,,,,,,,,,,,,0,0,0,0,,,,,0,0,0,0,0,54,54,54,,,,,,,,,,,,,,,,,,,,,,,,,,,,,,,,,,,,,,,,,,,,,,,,,,,,,CS1_USpos,None,1,,,,,,,,,,,,,,,,,,29,M,111,n,2019_Nov_23_1613,ec_RRR,3.0.4,59.94532224752102,
Balas and Sarzynnska,"Dla tego zadania, docelową postacią jest Jangmo:","Więc gdy tylko Jangmo (jego imię lub jego podobizna) pojawi się na ekranie, naciśnij spację tak szybko jak to możliwe. Uderz w spację gdy tylko zobaczysz podobiznę Jangmoa lub słowo JANGMO.

Naciśnij spację by rozpocząć zadanie",target1,stimuli/t1.jpg,111,56,stimuli/filler29.jpg,filler,False,None,,,,,,,,,,,,,,0,0,0,0,,,,,0,0,0,0,0,55,55,55,,,,,,,,,,,,,,,,,,,,,,,,,,,,,,,,,,,,,,,,,,,,,,,,,,,,,CS1_USpos,None,1,,,,,,,,,,,,,,,,,,29,M,111,n,2019_Nov_23_1613,ec_RRR,3.0.4,59.94532224752102,
Balas and Sarzynnska,"Dla tego zadania, docelową postacią jest Jangmo:","Więc gdy tylko Jangmo (jego imię lub jego podobizna) pojawi się na ekranie, naciśnij spację tak szybko jak to możliwe. Uderz w spację gdy tylko zobaczysz podobiznę Jangmoa lub słowo JANGMO.

Naciśnij spację by rozpocząć zadanie",target1,stimuli/t1.jpg,111,57,stimuli/filler39.jpg,filler,False,None,,,,,,,,,,,,,,0,0,0,0,,,,,0,0,0,0,0,56,56,56,,,,,,,,,,,,,,,,,,,,,,,,,,,,,,,,,,,,,,,,,,,,,,,,,,,,,CS1_USpos,None,1,,,,,,,,,,,,,,,,,,29,M,111,n,2019_Nov_23_1613,ec_RRR,3.0.4,59.94532224752102,
Balas and Sarzynnska,"Dla tego zadania, docelową postacią jest Jangmo:","Więc gdy tylko Jangmo (jego imię lub jego podobizna) pojawi się na ekranie, naciśnij spację tak szybko jak to możliwe. Uderz w spację gdy tylko zobaczysz podobiznę Jangmoa lub słowo JANGMO.

Naciśnij spację by rozpocząć zadanie",target1,stimuli/t1.jpg,111,58,stimuli/filler3.jpg,filler,False,None,,,,,,,,,,,,,,0,0,0,0,,,,,0,0,0,0,0,57,57,57,,,,,,,,,,,,,,,,,,,,,,,,,,,,,,,,,,,,,,,,,,,,,,,,,,,,,CS1_USpos,None,1,,,,,,,,,,,,,,,,,,29,M,111,n,2019_Nov_23_1613,ec_RRR,3.0.4,59.94532224752102,
Balas and Sarzynnska,"Dla tego zadania, docelową postacią jest Jangmo:","Więc gdy tylko Jangmo (jego imię lub jego podobizna) pojawi się na ekranie, naciśnij spację tak szybko jak to możliwe. Uderz w spację gdy tylko zobaczysz podobiznę Jangmoa lub słowo JANGMO.

Naciśnij spację by rozpocząć zadanie",target1,stimuli/t1.jpg,111,59,stimuli/filler15.jpg,filler,False,None,,,,,,,,,,,,,,0,0,0,0,,,,,0,0,0,0,0,58,58,58,,,,,,,,,,,,,,,,,,,,,,,,,,,,,,,,,,,,,,,,,,,,,,,,,,,,,CS1_USpos,None,1,,,,,,,,,,,,,,,,,,29,M,111,n,2019_Nov_23_1613,ec_RRR,3.0.4,59.94532224752102,
Balas and Sarzynnska,"Dla tego zadania, docelową postacią jest Jangmo:","Więc gdy tylko Jangmo (jego imię lub jego podobizna) pojawi się na ekranie, naciśnij spację tak szybko jak to możliwe. Uderz w spację gdy tylko zobaczysz podobiznę Jangmoa lub słowo JANGMO.

Naciśnij spację by rozpocząć zadanie",target1,stimuli/t1.jpg,111,60,stimuli/blank.jpg,blank,False,None,,,,,,,,,,,,,,0,0,0,0,,,,,0,0,0,0,0,59,59,59,,,,,,,,,,,,,,,,,,,,,,,,,,,,,,,,,,,,,,,,,,,,,,,,,,,,,CS1_USpos,None,1,,,,,,,,,,,,,,,,,,29,M,111,n,2019_Nov_23_1613,ec_RRR,3.0.4,59.94532224752102,
Balas and Sarzynnska,"Dla tego zadania, docelową postacią jest Jangmo:","Więc gdy tylko Jangmo (jego imię lub jego podobizna) pojawi się na ekranie, naciśnij spację tak szybko jak to możliwe. Uderz w spację gdy tylko zobaczysz podobiznę Jangmoa lub słowo JANGMO.

Naciśnij spację by rozpocząć zadanie",target1,stimuli/t1.jpg,111,61,stimuli/cs2_neg10.jpg,CSUS,False,None,,,,,,,,,,,,,,0,0,0,0,,,,,0,0,0,0,0,60,60,60,,,,,,,,,,,,,,,,,,,,,,,,,,,,,,,,,,,,,,,,,,,,,,,,,,,,,CS1_USpos,None,1,,,,,,,,,,,,,,,,,,29,M,111,n,2019_Nov_23_1613,ec_RRR,3.0.4,59.94532224752102,
Balas and Sarzynnska,"Dla tego zadania, docelową postacią jest Jangmo:","Więc gdy tylko Jangmo (jego imię lub jego podobizna) pojawi się na ekranie, naciśnij spację tak szybko jak to możliwe. Uderz w spację gdy tylko zobaczysz podobiznę Jangmoa lub słowo JANGMO.

Naciśnij spację by rozpocząć zadanie",target1,stimuli/t1.jpg,111,62,stimuli/blank.jpg,blank,False,None,,,,,,,,,,,,,,0,0,0,0,,,,,0,0,0,0,0,61,61,61,,,,,,,,,,,,,,,,,,,,,,,,,,,,,,,,,,,,,,,,,,,,,,,,,,,,,CS1_USpos,None,1,,,,,,,,,,,,,,,,,,29,M,111,n,2019_Nov_23_1613,ec_RRR,3.0.4,59.94532224752102,
Balas and Sarzynnska,"Dla tego zadania, docelową postacią jest Jangmo:","Więc gdy tylko Jangmo (jego imię lub jego podobizna) pojawi się na ekranie, naciśnij spację tak szybko jak to możliwe. Uderz w spację gdy tylko zobaczysz podobiznę Jangmoa lub słowo JANGMO.

Naciśnij spację by rozpocząć zadanie",target1,stimuli/t1.jpg,111,63,stimuli/filler26.jpg,filler,False,None,,,,,,,,,,,,,,0,0,0,0,,,,,0,0,0,0,0,62,62,62,,,,,,,,,,,,,,,,,,,,,,,,,,,,,,,,,,,,,,,,,,,,,,,,,,,,,CS1_USpos,None,1,,,,,,,,,,,,,,,,,,29,M,111,n,2019_Nov_23_1613,ec_RRR,3.0.4,59.94532224752102,
Balas and Sarzynnska,"Dla tego zadania, docelową postacią jest Jangmo:","Więc gdy tylko Jangmo (jego imię lub jego podobizna) pojawi się na ekranie, naciśnij spację tak szybko jak to możliwe. Uderz w spację gdy tylko zobaczysz podobiznę Jangmoa lub słowo JANGMO.

Naciśnij spację by rozpocząć zadanie",target1,stimuli/t1.jpg,111,64,stimuli/target1_2.jpg,target,True,space,,,,,,,,,,,,,,0,0,0,0,,,,,0,0,0,0,0,63,63,63,,,,,,,,,,,,,,,,,,,,,,,,,,,,,,,,,,,,,,,,,,,,,,,,,,,,,CS1_USpos,space,1,0.5010060636195703,,,,,,,,,,,,,,,,,29,M,111,n,2019_Nov_23_1613,ec_RRR,3.0.4,59.94532224752102,
Balas and Sarzynnska,"Dla tego zadania, docelową postacią jest Jangmo:","Więc gdy tylko Jangmo (jego imię lub jego podobizna) pojawi się na ekranie, naciśnij spację tak szybko jak to możliwe. Uderz w spację gdy tylko zobaczysz podobiznę Jangmoa lub słowo JANGMO.

Naciśnij spację by rozpocząć zadanie",target1,stimuli/t1.jpg,111,65,stimuli/filler21.jpg,filler,False,None,,,,,,,,,,,,,,0,0,0,0,,,,,0,0,0,0,0,64,64,64,,,,,,,,,,,,,,,,,,,,,,,,,,,,,,,,,,,,,,,,,,,,,,,,,,,,,CS1_USpos,None,1,,,,,,,,,,,,,,,,,,29,M,111,n,2019_Nov_23_1613,ec_RRR,3.0.4,59.94532224752102,
Balas and Sarzynnska,"Dla tego zadania, docelową postacią jest Jangmo:","Więc gdy tylko Jangmo (jego imię lub jego podobizna) pojawi się na ekranie, naciśnij spację tak szybko jak to możliwe. Uderz w spację gdy tylko zobaczysz podobiznę Jangmoa lub słowo JANGMO.

Naciśnij spację by rozpocząć zadanie",target1,stimuli/t1.jpg,111,66,stimuli/filler16.jpg,filler,False,None,,,,,,,,,,,,,,0,0,0,0,,,,,0,0,0,0,0,65,65,65,,,,,,,,,,,,,,,,,,,,,,,,,,,,,,,,,,,,,,,,,,,,,,,,,,,,,CS1_USpos,None,1,,,,,,,,,,,,,,,,,,29,M,111,n,2019_Nov_23_1613,ec_RRR,3.0.4,59.94532224752102,
Balas and Sarzynnska,"Dla tego zadania, docelową postacią jest Jangmo:","Więc gdy tylko Jangmo (jego imię lub jego podobizna) pojawi się na ekranie, naciśnij spację tak szybko jak to możliwe. Uderz w spację gdy tylko zobaczysz podobiznę Jangmoa lub słowo JANGMO.

Naciśnij spację by rozpocząć zadanie",target1,stimuli/t1.jpg,111,67,stimuli/filler44.jpg,filler,False,None,,,,,,,,,,,,,,0,0,0,0,,,,,0,0,0,0,0,66,66,66,,,,,,,,,,,,,,,,,,,,,,,,,,,,,,,,,,,,,,,,,,,,,,,,,,,,,CS1_USpos,None,1,,,,,,,,,,,,,,,,,,29,M,111,n,2019_Nov_23_1613,ec_RRR,3.0.4,59.94532224752102,
Balas and Sarzynnska,"Dla tego zadania, docelową postacią jest Jangmo:","Więc gdy tylko Jangmo (jego imię lub jego podobizna) pojawi się na ekranie, naciśnij spację tak szybko jak to możliwe. Uderz w spację gdy tylko zobaczysz podobiznę Jangmoa lub słowo JANGMO.

Naciśnij spację by rozpocząć zadanie",target1,stimuli/t1.jpg,111,68,stimuli/target1_1.jpg,target,True,space,,,,,,,,,,,,,,0,0,0,0,,,,,0,0,0,0,0,67,67,67,,,,,,,,,,,,,,,,,,,,,,,,,,,,,,,,,,,,,,,,,,,,,,,,,,,,,CS1_USpos,space,1,0.4179027641803259,,,,,,,,,,,,,,,,,29,M,111,n,2019_Nov_23_1613,ec_RRR,3.0.4,59.94532224752102,
Balas and Sarzynnska,"Dla tego zadania, docelową postacią jest Jangmo:","Więc gdy tylko Jangmo (jego imię lub jego podobizna) pojawi się na ekranie, naciśnij spację tak szybko jak to możliwe. Uderz w spację gdy tylko zobaczysz podobiznę Jangmoa lub słowo JANGMO.

Naciśnij spację by rozpocząć zadanie",target1,stimuli/t1.jpg,111,69,stimuli/filler1.jpg,filler,False,None,,,,,,,,,,,,,,0,0,0,0,,,,,0,0,0,0,0,68,68,68,,,,,,,,,,,,,,,,,,,,,,,,,,,,,,,,,,,,,,,,,,,,,,,,,,,,,CS1_USpos,None,1,,,,,,,,,,,,,,,,,,29,M,111,n,2019_Nov_23_1613,ec_RRR,3.0.4,59.94532224752102,
Balas and Sarzynnska,"Dla tego zadania, docelową postacią jest Jangmo:","Więc gdy tylko Jangmo (jego imię lub jego podobizna) pojawi się na ekranie, naciśnij spację tak szybko jak to możliwe. Uderz w spację gdy tylko zobaczysz podobiznę Jangmoa lub słowo JANGMO.

Naciśnij spację by rozpocząć zadanie",target1,stimuli/t1.jpg,111,70,stimuli/blank.jpg,blank,False,None,,,,,,,,,,,,,,0,0,0,0,,,,,0,0,0,0,0,69,69,69,,,,,,,,,,,,,,,,,,,,,,,,,,,,,,,,,,,,,,,,,,,,,,,,,,,,,CS1_USpos,None,1,,,,,,,,,,,,,,,,,,29,M,111,n,2019_Nov_23_1613,ec_RRR,3.0.4,59.94532224752102,
Balas and Sarzynnska,"Dla tego zadania, docelową postacią jest Jangmo:","Więc gdy tylko Jangmo (jego imię lub jego podobizna) pojawi się na ekranie, naciśnij spację tak szybko jak to możliwe. Uderz w spację gdy tylko zobaczysz podobiznę Jangmoa lub słowo JANGMO.

Naciśnij spację by rozpocząć zadanie",target1,stimuli/t1.jpg,111,71,stimuli/cs1_pos8.jpg,CSUS,False,None,,,,,,,,,,,,,,0,0,0,0,,,,,0,0,0,0,0,70,70,70,,,,,,,,,,,,,,,,,,,,,,,,,,,,,,,,,,,,,,,,,,,,,,,,,,,,,CS1_USpos,None,1,,,,,,,,,,,,,,,,,,29,M,111,n,2019_Nov_23_1613,ec_RRR,3.0.4,59.94532224752102,
Balas and Sarzynnska,"Dla tego zadania, docelową postacią jest Jangmo:","Więc gdy tylko Jangmo (jego imię lub jego podobizna) pojawi się na ekranie, naciśnij spację tak szybko jak to możliwe. Uderz w spację gdy tylko zobaczysz podobiznę Jangmoa lub słowo JANGMO.

Naciśnij spację by rozpocząć zadanie",target1,stimuli/t1.jpg,111,72,stimuli/blank.jpg,blank,False,None,,,,,,,,,,,,,,0,0,0,0,,,,,0,0,0,0,0,71,71,71,,,,,,,,,,,,,,,,,,,,,,,,,,,,,,,,,,,,,,,,,,,,,,,,,,,,,CS1_USpos,None,1,,,,,,,,,,,,,,,,,,29,M,111,n,2019_Nov_23_1613,ec_RRR,3.0.4,59.94532224752102,
Balas and Sarzynnska,"Dla tego zadania, docelową postacią jest Jangmo:","Więc gdy tylko Jangmo (jego imię lub jego podobizna) pojawi się na ekranie, naciśnij spację tak szybko jak to możliwe. Uderz w spację gdy tylko zobaczysz podobiznę Jangmoa lub słowo JANGMO.

Naciśnij spację by rozpocząć zadanie",target1,stimuli/t1.jpg,111,73,stimuli/filler2.jpg,filler,False,None,,,,,,,,,,,,,,0,0,0,0,,,,,0,0,0,0,0,72,72,72,,,,,,,,,,,,,,,,,,,,,,,,,,,,,,,,,,,,,,,,,,,,,,,,,,,,,CS1_USpos,None,1,,,,,,,,,,,,,,,,,,29,M,111,n,2019_Nov_23_1613,ec_RRR,3.0.4,59.94532224752102,
Balas and Sarzynnska,"Dla tego zadania, docelową postacią jest Jangmo:","Więc gdy tylko Jangmo (jego imię lub jego podobizna) pojawi się na ekranie, naciśnij spację tak szybko jak to możliwe. Uderz w spację gdy tylko zobaczysz podobiznę Jangmoa lub słowo JANGMO.

Naciśnij spację by rozpocząć zadanie",target1,stimuli/t1.jpg,111,74,stimuli/filler42.jpg,filler,False,None,,,,,,,,,,,,,,0,0,0,0,,,,,0,0,0,0,0,73,73,73,,,,,,,,,,,,,,,,,,,,,,,,,,,,,,,,,,,,,,,,,,,,,,,,,,,,,CS1_USpos,None,1,,,,,,,,,,,,,,,,,,29,M,111,n,2019_Nov_23_1613,ec_RRR,3.0.4,59.94532224752102,
Balas and Sarzynnska,"Dla tego zadania, docelową postacią jest Jangmo:","Więc gdy tylko Jangmo (jego imię lub jego podobizna) pojawi się na ekranie, naciśnij spację tak szybko jak to możliwe. Uderz w spację gdy tylko zobaczysz podobiznę Jangmoa lub słowo JANGMO.

Naciśnij spację by rozpocząć zadanie",target1,stimuli/t1.jpg,111,75,stimuli/filler35.jpg,filler,False,None,,,,,,,,,,,,,,0,0,0,0,,,,,0,0,0,0,0,74,74,74,,,,,,,,,,,,,,,,,,,,,,,,,,,,,,,,,,,,,,,,,,,,,,,,,,,,,CS1_USpos,None,1,,,,,,,,,,,,,,,,,,29,M,111,n,2019_Nov_23_1613,ec_RRR,3.0.4,59.94532224752102,
Balas and Sarzynnska,"Dla tego zadania, docelową postacią jest Jangmo:","Więc gdy tylko Jangmo (jego imię lub jego podobizna) pojawi się na ekranie, naciśnij spację tak szybko jak to możliwe. Uderz w spację gdy tylko zobaczysz podobiznę Jangmoa lub słowo JANGMO.

Naciśnij spację by rozpocząć zadanie",target1,stimuli/t1.jpg,111,76,stimuli/filler6.jpg,filler,False,None,,,,,,,,,,,,,,0,0,0,0,,,,,0,0,0,0,0,75,75,75,,,,,,,,,,,,,,,,,,,,,,,,,,,,,,,,,,,,,,,,,,,,,,,,,,,,,CS1_USpos,None,1,,,,,,,,,,,,,,,,,,29,M,111,n,2019_Nov_23_1613,ec_RRR,3.0.4,59.94532224752102,
Balas and Sarzynnska,"Dla tego zadania, docelową postacią jest Jangmo:","Więc gdy tylko Jangmo (jego imię lub jego podobizna) pojawi się na ekranie, naciśnij spację tak szybko jak to możliwe. Uderz w spację gdy tylko zobaczysz podobiznę Jangmoa lub słowo JANGMO.

Naciśnij spację by rozpocząć zadanie",target1,stimuli/t1.jpg,111,77,stimuli/filler11.jpg,filler,False,None,,,,,,,,,,,,,,0,0,0,0,,,,,0,0,0,0,0,76,76,76,,,,,,,,,,,,,,,,,,,,,,,,,,,,,,,,,,,,,,,,,,,,,,,,,,,,,CS1_USpos,None,1,,,,,,,,,,,,,,,,,,29,M,111,n,2019_Nov_23_1613,ec_RRR,3.0.4,59.94532224752102,
Balas and Sarzynnska,"Dla tego zadania, docelową postacią jest Jangmo:","Więc gdy tylko Jangmo (jego imię lub jego podobizna) pojawi się na ekranie, naciśnij spację tak szybko jak to możliwe. Uderz w spację gdy tylko zobaczysz podobiznę Jangmoa lub słowo JANGMO.

Naciśnij spację by rozpocząć zadanie",target1,stimuli/t1.jpg,111,78,stimuli/filler10.jpg,filler,False,None,,,,,,,,,,,,,,0,0,0,0,,,,,0,0,0,0,0,77,77,77,,,,,,,,,,,,,,,,,,,,,,,,,,,,,,,,,,,,,,,,,,,,,,,,,,,,,CS1_USpos,None,1,,,,,,,,,,,,,,,,,,29,M,111,n,2019_Nov_23_1613,ec_RRR,3.0.4,59.94532224752102,
Balas and Sarzynnska,"Dla tego zadania, docelową postacią jest Jangmo:","Więc gdy tylko Jangmo (jego imię lub jego podobizna) pojawi się na ekranie, naciśnij spację tak szybko jak to możliwe. Uderz w spację gdy tylko zobaczysz podobiznę Jangmoa lub słowo JANGMO.

Naciśnij spację by rozpocząć zadanie",target1,stimuli/t1.jpg,111,79,stimuli/target1_5.jpg,target,True,space,,,,,,,,,,,,,,0,0,0,0,,,,,0,0,0,0,0,78,78,78,,,,,,,,,,,,,,,,,,,,,,,,,,,,,,,,,,,,,,,,,,,,,,,,,,,,,CS1_USpos,space,1,0.6844107980177796,,,,,,,,,,,,,,,,,29,M,111,n,2019_Nov_23_1613,ec_RRR,3.0.4,59.94532224752102,
Balas and Sarzynnska,"Dla tego zadania, docelową postacią jest Jangmo:","Więc gdy tylko Jangmo (jego imię lub jego podobizna) pojawi się na ekranie, naciśnij spację tak szybko jak to możliwe. Uderz w spację gdy tylko zobaczysz podobiznę Jangmoa lub słowo JANGMO.

Naciśnij spację by rozpocząć zadanie",target1,stimuli/t1.jpg,111,80,stimuli/blank.jpg,blank,False,None,,,,,,,,,,,,,,0,0,0,0,,,,,0,0,0,0,0,79,79,79,,,,,,,,,,,,,,,,,,,,,,,,,,,,,,,,,,,,,,,,,,,,,,,,,,,,,CS1_USpos,None,1,,,,,,,,,,,,,,,,,,29,M,111,n,2019_Nov_23_1613,ec_RRR,3.0.4,59.94532224752102,
Balas and Sarzynnska,"Dla tego zadania, docelową postacią jest Jangmo:","Więc gdy tylko Jangmo (jego imię lub jego podobizna) pojawi się na ekranie, naciśnij spację tak szybko jak to możliwe. Uderz w spację gdy tylko zobaczysz podobiznę Jangmoa lub słowo JANGMO.

Naciśnij spację by rozpocząć zadanie",target1,stimuli/t1.jpg,111,81,stimuli/cs2_neg8.jpg,CSUS,False,None,,,,,,,,,,,,,,0,0,0,0,,,,,0,0,0,0,0,80,80,80,,,,,,,,,,,,,,,,,,,,,,,,,,,,,,,,,,,,,,,,,,,,,,,,,,,,,CS1_USpos,None,1,,,,,,,,,,,,,,,,,,29,M,111,n,2019_Nov_23_1613,ec_RRR,3.0.4,59.94532224752102,
Balas and Sarzynnska,"Dla tego zadania, docelową postacią jest Jangmo:","Więc gdy tylko Jangmo (jego imię lub jego podobizna) pojawi się na ekranie, naciśnij spację tak szybko jak to możliwe. Uderz w spację gdy tylko zobaczysz podobiznę Jangmoa lub słowo JANGMO.

Naciśnij spację by rozpocząć zadanie",target1,stimuli/t1.jpg,111,82,stimuli/blank.jpg,blank,False,None,,,,,,,,,,,,,,0,0,0,0,,,,,0,0,0,0,0,81,81,81,,,,,,,,,,,,,,,,,,,,,,,,,,,,,,,,,,,,,,,,,,,,,,,,,,,,,CS1_USpos,None,1,,,,,,,,,,,,,,,,,,29,M,111,n,2019_Nov_23_1613,ec_RRR,3.0.4,59.94532224752102,
Balas and Sarzynnska,"Dla tego zadania, docelową postacią jest Jangmo:","Więc gdy tylko Jangmo (jego imię lub jego podobizna) pojawi się na ekranie, naciśnij spację tak szybko jak to możliwe. Uderz w spację gdy tylko zobaczysz podobiznę Jangmoa lub słowo JANGMO.

Naciśnij spację by rozpocząć zadanie",target1,stimuli/t1.jpg,111,83,stimuli/filler20.jpg,filler,False,None,,,,,,,,,,,,,,0,0,0,0,,,,,0,0,0,0,0,82,82,82,,,,,,,,,,,,,,,,,,,,,,,,,,,,,,,,,,,,,,,,,,,,,,,,,,,,,CS1_USpos,None,1,,,,,,,,,,,,,,,,,,29,M,111,n,2019_Nov_23_1613,ec_RRR,3.0.4,59.94532224752102,
Balas and Sarzynnska,"Dla tego zadania, docelową postacią jest Jangmo:","Więc gdy tylko Jangmo (jego imię lub jego podobizna) pojawi się na ekranie, naciśnij spację tak szybko jak to możliwe. Uderz w spację gdy tylko zobaczysz podobiznę Jangmoa lub słowo JANGMO.

Naciśnij spację by rozpocząć zadanie",target1,stimuli/t1.jpg,111,84,stimuli/filler38.jpg,filler,False,None,,,,,,,,,,,,,,0,0,0,0,,,,,0,0,0,0,0,83,83,83,,,,,,,,,,,,,,,,,,,,,,,,,,,,,,,,,,,,,,,,,,,,,,,,,,,,,CS1_USpos,None,1,,,,,,,,,,,,,,,,,,29,M,111,n,2019_Nov_23_1613,ec_RRR,3.0.4,59.94532224752102,
Balas and Sarzynnska,"Dla tego zadania, docelową postacią jest Jangmo:","Więc gdy tylko Jangmo (jego imię lub jego podobizna) pojawi się na ekranie, naciśnij spację tak szybko jak to możliwe. Uderz w spację gdy tylko zobaczysz podobiznę Jangmoa lub słowo JANGMO.

Naciśnij spację by rozpocząć zadanie",target1,stimuli/t1.jpg,111,85,stimuli/target1_10.jpg,target,True,space,,,,,,,,,,,,,,0,0,0,0,,,,,0,0,0,0,0,84,84,84,,,,,,,,,,,,,,,,,,,,,,,,,,,,,,,,,,,,,,,,,,,,,,,,,,,,,CS1_USpos,space,1,0.4845559282002796,,,,,,,,,,,,,,,,,29,M,111,n,2019_Nov_23_1613,ec_RRR,3.0.4,59.94532224752102,
Balas and Sarzynnska,"Dla tego zadania, docelową postacią jest Jangmo:","Więc gdy tylko Jangmo (jego imię lub jego podobizna) pojawi się na ekranie, naciśnij spację tak szybko jak to możliwe. Uderz w spację gdy tylko zobaczysz podobiznę Jangmoa lub słowo JANGMO.

Naciśnij spację by rozpocząć zadanie",target1,stimuli/t1.jpg,111,86,stimuli/filler49.jpg,filler,False,None,,,,,,,,,,,,,,0,0,0,0,,,,,0,0,0,0,0,85,85,85,,,,,,,,,,,,,,,,,,,,,,,,,,,,,,,,,,,,,,,,,,,,,,,,,,,,,CS1_USpos,None,1,,,,,,,,,,,,,,,,,,29,M,111,n,2019_Nov_23_1613,ec_RRR,3.0.4,59.94532224752102,
Balas and Sarzynnska,"Dla tego zadania, docelową postacią jest Scatterbug:","Więc gdy tylko Scatterbug (jego imię lub jego podobizna) pojawi się na ekranie, naciśnij spację tak szybko jak to możliwe. Uderz w spację gdy tylko zobaczysz podobiznę Scatterbuga lub słowo SCATTERBUG.

Naciśnij spację by rozpocząć zadanie",target5,stimuli/t5.jpg,111,1,stimuli/target5_4.jpg,target,True,space,,,,,,,,,,,,,,0,0,0,0,,,,,0,1,1,4,0,0,0,0,,,,,,,,,,,,,,,,,,,,,,,,,,,,,,,,,,,,,,,,,,,,,,,,,,,,,CS1_USpos,space,1,0.8013897017663112,,,,,,,,,,,,,,,,,29,M,111,n,2019_Nov_23_1613,ec_RRR,3.0.4,59.94532224752102,
Balas and Sarzynnska,"Dla tego zadania, docelową postacią jest Scatterbug:","Więc gdy tylko Scatterbug (jego imię lub jego podobizna) pojawi się na ekranie, naciśnij spację tak szybko jak to możliwe. Uderz w spację gdy tylko zobaczysz podobiznę Scatterbuga lub słowo SCATTERBUG.

Naciśnij spację by rozpocząć zadanie",target5,stimuli/t5.jpg,111,2,stimuli/target5_6.jpg,target,True,space,,,,,,,,,,,,,,0,0,0,0,,,,,0,1,1,4,0,1,1,1,,,,,,,,,,,,,,,,,,,,,,,,,,,,,,,,,,,,,,,,,,,,,,,,,,,,,CS1_USpos,space,1,0.8012586795266543,,,,,,,,,,,,,,,,,29,M,111,n,2019_Nov_23_1613,ec_RRR,3.0.4,59.94532224752102,
Balas and Sarzynnska,"Dla tego zadania, docelową postacią jest Scatterbug:","Więc gdy tylko Scatterbug (jego imię lub jego podobizna) pojawi się na ekranie, naciśnij spację tak szybko jak to możliwe. Uderz w spację gdy tylko zobaczysz podobiznę Scatterbuga lub słowo SCATTERBUG.

Naciśnij spację by rozpocząć zadanie",target5,stimuli/t5.jpg,111,3,stimuli/target5_3.jpg,target,True,space,,,,,,,,,,,,,,0,0,0,0,,,,,0,1,1,4,0,2,2,2,,,,,,,,,,,,,,,,,,,,,,,,,,,,,,,,,,,,,,,,,,,,,,,,,,,,,CS1_USpos,space,1,0.43429374403785914,,,,,,,,,,,,,,,,,29,M,111,n,2019_Nov_23_1613,ec_RRR,3.0.4,59.94532224752102,
Balas and Sarzynnska,"Dla tego zadania, docelową postacią jest Scatterbug:","Więc gdy tylko Scatterbug (jego imię lub jego podobizna) pojawi się na ekranie, naciśnij spację tak szybko jak to możliwe. Uderz w spację gdy tylko zobaczysz podobiznę Scatterbuga lub słowo SCATTERBUG.

Naciśnij spację by rozpocząć zadanie",target5,stimuli/t5.jpg,111,4,stimuli/filler4.jpg,filler,False,None,,,,,,,,,,,,,,0,0,0,0,,,,,0,1,1,4,0,3,3,3,,,,,,,,,,,,,,,,,,,,,,,,,,,,,,,,,,,,,,,,,,,,,,,,,,,,,CS1_USpos,space,0,0.5339513122489734,,,,,,,,,,,,,,,,,29,M,111,n,2019_Nov_23_1613,ec_RRR,3.0.4,59.94532224752102,
Balas and Sarzynnska,"Dla tego zadania, docelową postacią jest Scatterbug:","Więc gdy tylko Scatterbug (jego imię lub jego podobizna) pojawi się na ekranie, naciśnij spację tak szybko jak to możliwe. Uderz w spację gdy tylko zobaczysz podobiznę Scatterbuga lub słowo SCATTERBUG.

Naciśnij spację by rozpocząć zadanie",target5,stimuli/t5.jpg,111,5,stimuli/filler27.jpg,filler,False,None,,,,,,,,,,,,,,0,0,0,0,,,,,0,1,1,4,0,4,4,4,,,,,,,,,,,,,,,,,,,,,,,,,,,,,,,,,,,,,,,,,,,,,,,,,,,,,CS1_USpos,None,1,,,,,,,,,,,,,,,,,,29,M,111,n,2019_Nov_23_1613,ec_RRR,3.0.4,59.94532224752102,
Balas and Sarzynnska,"Dla tego zadania, docelową postacią jest Scatterbug:","Więc gdy tylko Scatterbug (jego imię lub jego podobizna) pojawi się na ekranie, naciśnij spację tak szybko jak to możliwe. Uderz w spację gdy tylko zobaczysz podobiznę Scatterbuga lub słowo SCATTERBUG.

Naciśnij spację by rozpocząć zadanie",target5,stimuli/t5.jpg,111,6,stimuli/filler20.jpg,filler,False,None,,,,,,,,,,,,,,0,0,0,0,,,,,0,1,1,4,0,5,5,5,,,,,,,,,,,,,,,,,,,,,,,,,,,,,,,,,,,,,,,,,,,,,,,,,,,,,CS1_USpos,None,1,,,,,,,,,,,,,,,,,,29,M,111,n,2019_Nov_23_1613,ec_RRR,3.0.4,59.94532224752102,
Balas and Sarzynnska,"Dla tego zadania, docelową postacią jest Scatterbug:","Więc gdy tylko Scatterbug (jego imię lub jego podobizna) pojawi się na ekranie, naciśnij spację tak szybko jak to możliwe. Uderz w spację gdy tylko zobaczysz podobiznę Scatterbuga lub słowo SCATTERBUG.

Naciśnij spację by rozpocząć zadanie",target5,stimuli/t5.jpg,111,7,stimuli/filler11.jpg,filler,False,None,,,,,,,,,,,,,,0,0,0,0,,,,,0,1,1,4,0,6,6,6,,,,,,,,,,,,,,,,,,,,,,,,,,,,,,,,,,,,,,,,,,,,,,,,,,,,,CS1_USpos,None,1,,,,,,,,,,,,,,,,,,29,M,111,n,2019_Nov_23_1613,ec_RRR,3.0.4,59.94532224752102,
Balas and Sarzynnska,"Dla tego zadania, docelową postacią jest Scatterbug:","Więc gdy tylko Scatterbug (jego imię lub jego podobizna) pojawi się na ekranie, naciśnij spację tak szybko jak to możliwe. Uderz w spację gdy tylko zobaczysz podobiznę Scatterbuga lub słowo SCATTERBUG.

Naciśnij spację by rozpocząć zadanie",target5,stimuli/t5.jpg,111,8,stimuli/filler49.jpg,filler,False,None,,,,,,,,,,,,,,0,0,0,0,,,,,0,1,1,4,0,7,7,7,,,,,,,,,,,,,,,,,,,,,,,,,,,,,,,,,,,,,,,,,,,,,,,,,,,,,CS1_USpos,None,1,,,,,,,,,,,,,,,,,,29,M,111,n,2019_Nov_23_1613,ec_RRR,3.0.4,59.94532224752102,
Balas and Sarzynnska,"Dla tego zadania, docelową postacią jest Scatterbug:","Więc gdy tylko Scatterbug (jego imię lub jego podobizna) pojawi się na ekranie, naciśnij spację tak szybko jak to możliwe. Uderz w spację gdy tylko zobaczysz podobiznę Scatterbuga lub słowo SCATTERBUG.

Naciśnij spację by rozpocząć zadanie",target5,stimuli/t5.jpg,111,9,stimuli/filler22.jpg,filler,False,None,,,,,,,,,,,,,,0,0,0,0,,,,,0,1,1,4,0,8,8,8,,,,,,,,,,,,,,,,,,,,,,,,,,,,,,,,,,,,,,,,,,,,,,,,,,,,,CS1_USpos,None,1,,,,,,,,,,,,,,,,,,29,M,111,n,2019_Nov_23_1613,ec_RRR,3.0.4,59.94532224752102,
Balas and Sarzynnska,"Dla tego zadania, docelową postacią jest Scatterbug:","Więc gdy tylko Scatterbug (jego imię lub jego podobizna) pojawi się na ekranie, naciśnij spację tak szybko jak to możliwe. Uderz w spację gdy tylko zobaczysz podobiznę Scatterbuga lub słowo SCATTERBUG.

Naciśnij spację by rozpocząć zadanie",target5,stimuli/t5.jpg,111,10,stimuli/blank.jpg,blank,False,None,,,,,,,,,,,,,,0,0,0,0,,,,,0,1,1,4,0,9,9,9,,,,,,,,,,,,,,,,,,,,,,,,,,,,,,,,,,,,,,,,,,,,,,,,,,,,,CS1_USpos,None,1,,,,,,,,,,,,,,,,,,29,M,111,n,2019_Nov_23_1613,ec_RRR,3.0.4,59.94532224752102,
Balas and Sarzynnska,"Dla tego zadania, docelową postacią jest Scatterbug:","Więc gdy tylko Scatterbug (jego imię lub jego podobizna) pojawi się na ekranie, naciśnij spację tak szybko jak to możliwe. Uderz w spację gdy tylko zobaczysz podobiznę Scatterbuga lub słowo SCATTERBUG.

Naciśnij spację by rozpocząć zadanie",target5,stimuli/t5.jpg,111,11,stimuli/cs1_pos5.jpg,CSUS,False,None,,,,,,,,,,,,,,0,0,0,0,,,,,0,1,1,4,0,10,10,10,,,,,,,,,,,,,,,,,,,,,,,,,,,,,,,,,,,,,,,,,,,,,,,,,,,,,CS1_USpos,None,1,,,,,,,,,,,,,,,,,,29,M,111,n,2019_Nov_23_1613,ec_RRR,3.0.4,59.94532224752102,
Balas and Sarzynnska,"Dla tego zadania, docelową postacią jest Scatterbug:","Więc gdy tylko Scatterbug (jego imię lub jego podobizna) pojawi się na ekranie, naciśnij spację tak szybko jak to możliwe. Uderz w spację gdy tylko zobaczysz podobiznę Scatterbuga lub słowo SCATTERBUG.

Naciśnij spację by rozpocząć zadanie",target5,stimuli/t5.jpg,111,12,stimuli/blank.jpg,blank,False,None,,,,,,,,,,,,,,0,0,0,0,,,,,0,1,1,4,0,11,11,11,,,,,,,,,,,,,,,,,,,,,,,,,,,,,,,,,,,,,,,,,,,,,,,,,,,,,CS1_USpos,None,1,,,,,,,,,,,,,,,,,,29,M,111,n,2019_Nov_23_1613,ec_RRR,3.0.4,59.94532224752102,
Balas and Sarzynnska,"Dla tego zadania, docelową postacią jest Scatterbug:","Więc gdy tylko Scatterbug (jego imię lub jego podobizna) pojawi się na ekranie, naciśnij spację tak szybko jak to możliwe. Uderz w spację gdy tylko zobaczysz podobiznę Scatterbuga lub słowo SCATTERBUG.

Naciśnij spację by rozpocząć zadanie",target5,stimuli/t5.jpg,111,13,stimuli/filler3.jpg,filler,False,None,,,,,,,,,,,,,,0,0,0,0,,,,,0,1,1,4,0,12,12,12,,,,,,,,,,,,,,,,,,,,,,,,,,,,,,,,,,,,,,,,,,,,,,,,,,,,,CS1_USpos,None,1,,,,,,,,,,,,,,,,,,29,M,111,n,2019_Nov_23_1613,ec_RRR,3.0.4,59.94532224752102,
Balas and Sarzynnska,"Dla tego zadania, docelową postacią jest Scatterbug:","Więc gdy tylko Scatterbug (jego imię lub jego podobizna) pojawi się na ekranie, naciśnij spację tak szybko jak to możliwe. Uderz w spację gdy tylko zobaczysz podobiznę Scatterbuga lub słowo SCATTERBUG.

Naciśnij spację by rozpocząć zadanie",target5,stimuli/t5.jpg,111,14,stimuli/filler28.jpg,filler,False,None,,,,,,,,,,,,,,0,0,0,0,,,,,0,1,1,4,0,13,13,13,,,,,,,,,,,,,,,,,,,,,,,,,,,,,,,,,,,,,,,,,,,,,,,,,,,,,CS1_USpos,None,1,,,,,,,,,,,,,,,,,,29,M,111,n,2019_Nov_23_1613,ec_RRR,3.0.4,59.94532224752102,
Balas and Sarzynnska,"Dla tego zadania, docelową postacią jest Scatterbug:","Więc gdy tylko Scatterbug (jego imię lub jego podobizna) pojawi się na ekranie, naciśnij spację tak szybko jak to możliwe. Uderz w spację gdy tylko zobaczysz podobiznę Scatterbuga lub słowo SCATTERBUG.

Naciśnij spację by rozpocząć zadanie",target5,stimuli/t5.jpg,111,15,stimuli/filler16.jpg,filler,False,None,,,,,,,,,,,,,,0,0,0,0,,,,,0,1,1,4,0,14,14,14,,,,,,,,,,,,,,,,,,,,,,,,,,,,,,,,,,,,,,,,,,,,,,,,,,,,,CS1_USpos,None,1,,,,,,,,,,,,,,,,,,29,M,111,n,2019_Nov_23_1613,ec_RRR,3.0.4,59.94532224752102,
Balas and Sarzynnska,"Dla tego zadania, docelową postacią jest Scatterbug:","Więc gdy tylko Scatterbug (jego imię lub jego podobizna) pojawi się na ekranie, naciśnij spację tak szybko jak to możliwe. Uderz w spację gdy tylko zobaczysz podobiznę Scatterbuga lub słowo SCATTERBUG.

Naciśnij spację by rozpocząć zadanie",target5,stimuli/t5.jpg,111,16,stimuli/filler46.jpg,filler,False,None,,,,,,,,,,,,,,0,0,0,0,,,,,0,1,1,4,0,15,15,15,,,,,,,,,,,,,,,,,,,,,,,,,,,,,,,,,,,,,,,,,,,,,,,,,,,,,CS1_USpos,None,1,,,,,,,,,,,,,,,,,,29,M,111,n,2019_Nov_23_1613,ec_RRR,3.0.4,59.94532224752102,
Balas and Sarzynnska,"Dla tego zadania, docelową postacią jest Scatterbug:","Więc gdy tylko Scatterbug (jego imię lub jego podobizna) pojawi się na ekranie, naciśnij spację tak szybko jak to możliwe. Uderz w spację gdy tylko zobaczysz podobiznę Scatterbuga lub słowo SCATTERBUG.

Naciśnij spację by rozpocząć zadanie",target5,stimuli/t5.jpg,111,17,stimuli/target5_7.jpg,target,True,space,,,,,,,,,,,,,,0,0,0,0,,,,,0,1,1,4,0,16,16,16,,,,,,,,,,,,,,,,,,,,,,,,,,,,,,,,,,,,,,,,,,,,,,,,,,,,,CS1_USpos,None,0,,,,,,,,,,,,,,,,,,29,M,111,n,2019_Nov_23_1613,ec_RRR,3.0.4,59.94532224752102,
Balas and Sarzynnska,"Dla tego zadania, docelową postacią jest Scatterbug:","Więc gdy tylko Scatterbug (jego imię lub jego podobizna) pojawi się na ekranie, naciśnij spację tak szybko jak to możliwe. Uderz w spację gdy tylko zobaczysz podobiznę Scatterbuga lub słowo SCATTERBUG.

Naciśnij spację by rozpocząć zadanie",target5,stimuli/t5.jpg,111,18,stimuli/filler1.jpg,filler,False,None,,,,,,,,,,,,,,0,0,0,0,,,,,0,1,1,4,0,17,17,17,,,,,,,,,,,,,,,,,,,,,,,,,,,,,,,,,,,,,,,,,,,,,,,,,,,,,CS1_USpos,space,0,1.1349483663434512,,,,,,,,,,,,,,,,,29,M,111,n,2019_Nov_23_1613,ec_RRR,3.0.4,59.94532224752102,
Balas and Sarzynnska,"Dla tego zadania, docelową postacią jest Scatterbug:","Więc gdy tylko Scatterbug (jego imię lub jego podobizna) pojawi się na ekranie, naciśnij spację tak szybko jak to możliwe. Uderz w spację gdy tylko zobaczysz podobiznę Scatterbuga lub słowo SCATTERBUG.

Naciśnij spację by rozpocząć zadanie",target5,stimuli/t5.jpg,111,19,stimuli/filler48.jpg,filler,False,None,,,,,,,,,,,,,,0,0,0,0,,,,,0,1,1,4,0,18,18,18,,,,,,,,,,,,,,,,,,,,,,,,,,,,,,,,,,,,,,,,,,,,,,,,,,,,,CS1_USpos,None,1,,,,,,,,,,,,,,,,,,29,M,111,n,2019_Nov_23_1613,ec_RRR,3.0.4,59.94532224752102,
Balas and Sarzynnska,"Dla tego zadania, docelową postacią jest Scatterbug:","Więc gdy tylko Scatterbug (jego imię lub jego podobizna) pojawi się na ekranie, naciśnij spację tak szybko jak to możliwe. Uderz w spację gdy tylko zobaczysz podobiznę Scatterbuga lub słowo SCATTERBUG.

Naciśnij spację by rozpocząć zadanie",target5,stimuli/t5.jpg,111,20,stimuli/blank.jpg,blank,False,None,,,,,,,,,,,,,,0,0,0,0,,,,,0,1,1,4,0,19,19,19,,,,,,,,,,,,,,,,,,,,,,,,,,,,,,,,,,,,,,,,,,,,,,,,,,,,,CS1_USpos,None,1,,,,,,,,,,,,,,,,,,29,M,111,n,2019_Nov_23_1613,ec_RRR,3.0.4,59.94532224752102,
Balas and Sarzynnska,"Dla tego zadania, docelową postacią jest Scatterbug:","Więc gdy tylko Scatterbug (jego imię lub jego podobizna) pojawi się na ekranie, naciśnij spację tak szybko jak to możliwe. Uderz w spację gdy tylko zobaczysz podobiznę Scatterbuga lub słowo SCATTERBUG.

Naciśnij spację by rozpocząć zadanie",target5,stimuli/t5.jpg,111,21,stimuli/cs2_neg11.jpg,CSUS,False,None,,,,,,,,,,,,,,0,0,0,0,,,,,0,1,1,4,0,20,20,20,,,,,,,,,,,,,,,,,,,,,,,,,,,,,,,,,,,,,,,,,,,,,,,,,,,,,CS1_USpos,None,1,,,,,,,,,,,,,,,,,,29,M,111,n,2019_Nov_23_1613,ec_RRR,3.0.4,59.94532224752102,
Balas and Sarzynnska,"Dla tego zadania, docelową postacią jest Scatterbug:","Więc gdy tylko Scatterbug (jego imię lub jego podobizna) pojawi się na ekranie, naciśnij spację tak szybko jak to możliwe. Uderz w spację gdy tylko zobaczysz podobiznę Scatterbuga lub słowo SCATTERBUG.

Naciśnij spację by rozpocząć zadanie",target5,stimuli/t5.jpg,111,22,stimuli/blank.jpg,blank,False,None,,,,,,,,,,,,,,0,0,0,0,,,,,0,1,1,4,0,21,21,21,,,,,,,,,,,,,,,,,,,,,,,,,,,,,,,,,,,,,,,,,,,,,,,,,,,,,CS1_USpos,None,1,,,,,,,,,,,,,,,,,,29,M,111,n,2019_Nov_23_1613,ec_RRR,3.0.4,59.94532224752102,
Balas and Sarzynnska,"Dla tego zadania, docelową postacią jest Scatterbug:","Więc gdy tylko Scatterbug (jego imię lub jego podobizna) pojawi się na ekranie, naciśnij spację tak szybko jak to możliwe. Uderz w spację gdy tylko zobaczysz podobiznę Scatterbuga lub słowo SCATTERBUG.

Naciśnij spację by rozpocząć zadanie",target5,stimuli/t5.jpg,111,23,stimuli/filler18.jpg,filler,False,None,,,,,,,,,,,,,,0,0,0,0,,,,,0,1,1,4,0,22,22,22,,,,,,,,,,,,,,,,,,,,,,,,,,,,,,,,,,,,,,,,,,,,,,,,,,,,,CS1_USpos,None,1,,,,,,,,,,,,,,,,,,29,M,111,n,2019_Nov_23_1613,ec_RRR,3.0.4,59.94532224752102,
Balas and Sarzynnska,"Dla tego zadania, docelową postacią jest Scatterbug:","Więc gdy tylko Scatterbug (jego imię lub jego podobizna) pojawi się na ekranie, naciśnij spację tak szybko jak to możliwe. Uderz w spację gdy tylko zobaczysz podobiznę Scatterbuga lub słowo SCATTERBUG.

Naciśnij spację by rozpocząć zadanie",target5,stimuli/t5.jpg,111,24,stimuli/filler19.jpg,filler,False,None,,,,,,,,,,,,,,0,0,0,0,,,,,0,1,1,4,0,23,23,23,,,,,,,,,,,,,,,,,,,,,,,,,,,,,,,,,,,,,,,,,,,,,,,,,,,,,CS1_USpos,None,1,,,,,,,,,,,,,,,,,,29,M,111,n,2019_Nov_23_1613,ec_RRR,3.0.4,59.94532224752102,
Balas and Sarzynnska,"Dla tego zadania, docelową postacią jest Scatterbug:","Więc gdy tylko Scatterbug (jego imię lub jego podobizna) pojawi się na ekranie, naciśnij spację tak szybko jak to możliwe. Uderz w spację gdy tylko zobaczysz podobiznę Scatterbuga lub słowo SCATTERBUG.

Naciśnij spację by rozpocząć zadanie",target5,stimuli/t5.jpg,111,25,stimuli/target5_1.jpg,target,True,space,,,,,,,,,,,,,,0,0,0,0,,,,,0,1,1,4,0,24,24,24,,,,,,,,,,,,,,,,,,,,,,,,,,,,,,,,,,,,,,,,,,,,,,,,,,,,,CS1_USpos,space,1,0.9847817250520166,,,,,,,,,,,,,,,,,29,M,111,n,2019_Nov_23_1613,ec_RRR,3.0.4,59.94532224752102,
Balas and Sarzynnska,"Dla tego zadania, docelową postacią jest Scatterbug:","Więc gdy tylko Scatterbug (jego imię lub jego podobizna) pojawi się na ekranie, naciśnij spację tak szybko jak to możliwe. Uderz w spację gdy tylko zobaczysz podobiznę Scatterbuga lub słowo SCATTERBUG.

Naciśnij spację by rozpocząć zadanie",target5,stimuli/t5.jpg,111,26,stimuli/filler26.jpg,filler,False,None,,,,,,,,,,,,,,0,0,0,0,,,,,0,1,1,4,0,25,25,25,,,,,,,,,,,,,,,,,,,,,,,,,,,,,,,,,,,,,,,,,,,,,,,,,,,,,CS1_USpos,None,1,,,,,,,,,,,,,,,,,,29,M,111,n,2019_Nov_23_1613,ec_RRR,3.0.4,59.94532224752102,
Balas and Sarzynnska,"Dla tego zadania, docelową postacią jest Scatterbug:","Więc gdy tylko Scatterbug (jego imię lub jego podobizna) pojawi się na ekranie, naciśnij spację tak szybko jak to możliwe. Uderz w spację gdy tylko zobaczysz podobiznę Scatterbuga lub słowo SCATTERBUG.

Naciśnij spację by rozpocząć zadanie",target5,stimuli/t5.jpg,111,27,stimuli/filler39.jpg,filler,False,None,,,,,,,,,,,,,,0,0,0,0,,,,,0,1,1,4,0,26,26,26,,,,,,,,,,,,,,,,,,,,,,,,,,,,,,,,,,,,,,,,,,,,,,,,,,,,,CS1_USpos,None,1,,,,,,,,,,,,,,,,,,29,M,111,n,2019_Nov_23_1613,ec_RRR,3.0.4,59.94532224752102,
Balas and Sarzynnska,"Dla tego zadania, docelową postacią jest Scatterbug:","Więc gdy tylko Scatterbug (jego imię lub jego podobizna) pojawi się na ekranie, naciśnij spację tak szybko jak to możliwe. Uderz w spację gdy tylko zobaczysz podobiznę Scatterbuga lub słowo SCATTERBUG.

Naciśnij spację by rozpocząć zadanie",target5,stimuli/t5.jpg,111,28,stimuli/filler36.jpg,filler,False,None,,,,,,,,,,,,,,0,0,0,0,,,,,0,1,1,4,0,27,27,27,,,,,,,,,,,,,,,,,,,,,,,,,,,,,,,,,,,,,,,,,,,,,,,,,,,,,CS1_USpos,None,1,,,,,,,,,,,,,,,,,,29,M,111,n,2019_Nov_23_1613,ec_RRR,3.0.4,59.94532224752102,
Balas and Sarzynnska,"Dla tego zadania, docelową postacią jest Scatterbug:","Więc gdy tylko Scatterbug (jego imię lub jego podobizna) pojawi się na ekranie, naciśnij spację tak szybko jak to możliwe. Uderz w spację gdy tylko zobaczysz podobiznę Scatterbuga lub słowo SCATTERBUG.

Naciśnij spację by rozpocząć zadanie",target5,stimuli/t5.jpg,111,29,stimuli/filler45.jpg,filler,False,None,,,,,,,,,,,,,,0,0,0,0,,,,,0,1,1,4,0,28,28,28,,,,,,,,,,,,,,,,,,,,,,,,,,,,,,,,,,,,,,,,,,,,,,,,,,,,,CS1_USpos,None,1,,,,,,,,,,,,,,,,,,29,M,111,n,2019_Nov_23_1613,ec_RRR,3.0.4,59.94532224752102,
Balas and Sarzynnska,"Dla tego zadania, docelową postacią jest Scatterbug:","Więc gdy tylko Scatterbug (jego imię lub jego podobizna) pojawi się na ekranie, naciśnij spację tak szybko jak to możliwe. Uderz w spację gdy tylko zobaczysz podobiznę Scatterbuga lub słowo SCATTERBUG.

Naciśnij spację by rozpocząć zadanie",target5,stimuli/t5.jpg,111,30,stimuli/blank.jpg,blank,False,None,,,,,,,,,,,,,,0,0,0,0,,,,,0,1,1,4,0,29,29,29,,,,,,,,,,,,,,,,,,,,,,,,,,,,,,,,,,,,,,,,,,,,,,,,,,,,,CS1_USpos,None,1,,,,,,,,,,,,,,,,,,29,M,111,n,2019_Nov_23_1613,ec_RRR,3.0.4,59.94532224752102,
Balas and Sarzynnska,"Dla tego zadania, docelową postacią jest Scatterbug:","Więc gdy tylko Scatterbug (jego imię lub jego podobizna) pojawi się na ekranie, naciśnij spację tak szybko jak to możliwe. Uderz w spację gdy tylko zobaczysz podobiznę Scatterbuga lub słowo SCATTERBUG.

Naciśnij spację by rozpocząć zadanie",target5,stimuli/t5.jpg,111,31,stimuli/cs1_pos14.jpg,CSUS,False,None,,,,,,,,,,,,,,0,0,0,0,,,,,0,1,1,4,0,30,30,30,,,,,,,,,,,,,,,,,,,,,,,,,,,,,,,,,,,,,,,,,,,,,,,,,,,,,CS1_USpos,None,1,,,,,,,,,,,,,,,,,,29,M,111,n,2019_Nov_23_1613,ec_RRR,3.0.4,59.94532224752102,
Balas and Sarzynnska,"Dla tego zadania, docelową postacią jest Scatterbug:","Więc gdy tylko Scatterbug (jego imię lub jego podobizna) pojawi się na ekranie, naciśnij spację tak szybko jak to możliwe. Uderz w spację gdy tylko zobaczysz podobiznę Scatterbuga lub słowo SCATTERBUG.

Naciśnij spację by rozpocząć zadanie",target5,stimuli/t5.jpg,111,32,stimuli/blank.jpg,blank,False,None,,,,,,,,,,,,,,0,0,0,0,,,,,0,1,1,4,0,31,31,31,,,,,,,,,,,,,,,,,,,,,,,,,,,,,,,,,,,,,,,,,,,,,,,,,,,,,CS1_USpos,None,1,,,,,,,,,,,,,,,,,,29,M,111,n,2019_Nov_23_1613,ec_RRR,3.0.4,59.94532224752102,
Balas and Sarzynnska,"Dla tego zadania, docelową postacią jest Scatterbug:","Więc gdy tylko Scatterbug (jego imię lub jego podobizna) pojawi się na ekranie, naciśnij spację tak szybko jak to możliwe. Uderz w spację gdy tylko zobaczysz podobiznę Scatterbuga lub słowo SCATTERBUG.

Naciśnij spację by rozpocząć zadanie",target5,stimuli/t5.jpg,111,33,stimuli/filler41.jpg,filler,False,None,,,,,,,,,,,,,,0,0,0,0,,,,,0,1,1,4,0,32,32,32,,,,,,,,,,,,,,,,,,,,,,,,,,,,,,,,,,,,,,,,,,,,,,,,,,,,,CS1_USpos,None,1,,,,,,,,,,,,,,,,,,29,M,111,n,2019_Nov_23_1613,ec_RRR,3.0.4,59.94532224752102,
Balas and Sarzynnska,"Dla tego zadania, docelową postacią jest Scatterbug:","Więc gdy tylko Scatterbug (jego imię lub jego podobizna) pojawi się na ekranie, naciśnij spację tak szybko jak to możliwe. Uderz w spację gdy tylko zobaczysz podobiznę Scatterbuga lub słowo SCATTERBUG.

Naciśnij spację by rozpocząć zadanie",target5,stimuli/t5.jpg,111,34,stimuli/filler9.jpg,filler,False,None,,,,,,,,,,,,,,0,0,0,0,,,,,0,1,1,4,0,33,33,33,,,,,,,,,,,,,,,,,,,,,,,,,,,,,,,,,,,,,,,,,,,,,,,,,,,,,CS1_USpos,None,1,,,,,,,,,,,,,,,,,,29,M,111,n,2019_Nov_23_1613,ec_RRR,3.0.4,59.94532224752102,
Balas and Sarzynnska,"Dla tego zadania, docelową postacią jest Scatterbug:","Więc gdy tylko Scatterbug (jego imię lub jego podobizna) pojawi się na ekranie, naciśnij spację tak szybko jak to możliwe. Uderz w spację gdy tylko zobaczysz podobiznę Scatterbuga lub słowo SCATTERBUG.

Naciśnij spację by rozpocząć zadanie",target5,stimuli/t5.jpg,111,35,stimuli/filler14.jpg,filler,False,None,,,,,,,,,,,,,,0,0,0,0,,,,,0,1,1,4,0,34,34,34,,,,,,,,,,,,,,,,,,,,,,,,,,,,,,,,,,,,,,,,,,,,,,,,,,,,,CS1_USpos,None,1,,,,,,,,,,,,,,,,,,29,M,111,n,2019_Nov_23_1613,ec_RRR,3.0.4,59.94532224752102,
Balas and Sarzynnska,"Dla tego zadania, docelową postacią jest Scatterbug:","Więc gdy tylko Scatterbug (jego imię lub jego podobizna) pojawi się na ekranie, naciśnij spację tak szybko jak to możliwe. Uderz w spację gdy tylko zobaczysz podobiznę Scatterbuga lub słowo SCATTERBUG.

Naciśnij spację by rozpocząć zadanie",target5,stimuli/t5.jpg,111,36,stimuli/filler33.jpg,filler,False,None,,,,,,,,,,,,,,0,0,0,0,,,,,0,1,1,4,0,35,35,35,,,,,,,,,,,,,,,,,,,,,,,,,,,,,,,,,,,,,,,,,,,,,,,,,,,,,CS1_USpos,None,1,,,,,,,,,,,,,,,,,,29,M,111,n,2019_Nov_23_1613,ec_RRR,3.0.4,59.94532224752102,
Balas and Sarzynnska,"Dla tego zadania, docelową postacią jest Scatterbug:","Więc gdy tylko Scatterbug (jego imię lub jego podobizna) pojawi się na ekranie, naciśnij spację tak szybko jak to możliwe. Uderz w spację gdy tylko zobaczysz podobiznę Scatterbuga lub słowo SCATTERBUG.

Naciśnij spację by rozpocząć zadanie",target5,stimuli/t5.jpg,111,37,stimuli/target5_5.jpg,target,True,space,,,,,,,,,,,,,,0,0,0,0,,,,,0,1,1,4,0,36,36,36,,,,,,,,,,,,,,,,,,,,,,,,,,,,,,,,,,,,,,,,,,,,,,,,,,,,,CS1_USpos,space,1,0.9014251811349823,,,,,,,,,,,,,,,,,29,M,111,n,2019_Nov_23_1613,ec_RRR,3.0.4,59.94532224752102,
Balas and Sarzynnska,"Dla tego zadania, docelową postacią jest Scatterbug:","Więc gdy tylko Scatterbug (jego imię lub jego podobizna) pojawi się na ekranie, naciśnij spację tak szybko jak to możliwe. Uderz w spację gdy tylko zobaczysz podobiznę Scatterbuga lub słowo SCATTERBUG.

Naciśnij spację by rozpocząć zadanie",target5,stimuli/t5.jpg,111,38,stimuli/filler21.jpg,filler,False,None,,,,,,,,,,,,,,0,0,0,0,,,,,0,1,1,4,0,37,37,37,,,,,,,,,,,,,,,,,,,,,,,,,,,,,,,,,,,,,,,,,,,,,,,,,,,,,CS1_USpos,None,1,,,,,,,,,,,,,,,,,,29,M,111,n,2019_Nov_23_1613,ec_RRR,3.0.4,59.94532224752102,
Balas and Sarzynnska,"Dla tego zadania, docelową postacią jest Scatterbug:","Więc gdy tylko Scatterbug (jego imię lub jego podobizna) pojawi się na ekranie, naciśnij spację tak szybko jak to możliwe. Uderz w spację gdy tylko zobaczysz podobiznę Scatterbuga lub słowo SCATTERBUG.

Naciśnij spację by rozpocząć zadanie",target5,stimuli/t5.jpg,111,39,stimuli/filler10.jpg,filler,False,None,,,,,,,,,,,,,,0,0,0,0,,,,,0,1,1,4,0,38,38,38,,,,,,,,,,,,,,,,,,,,,,,,,,,,,,,,,,,,,,,,,,,,,,,,,,,,,CS1_USpos,None,1,,,,,,,,,,,,,,,,,,29,M,111,n,2019_Nov_23_1613,ec_RRR,3.0.4,59.94532224752102,
Balas and Sarzynnska,"Dla tego zadania, docelową postacią jest Scatterbug:","Więc gdy tylko Scatterbug (jego imię lub jego podobizna) pojawi się na ekranie, naciśnij spację tak szybko jak to możliwe. Uderz w spację gdy tylko zobaczysz podobiznę Scatterbuga lub słowo SCATTERBUG.

Naciśnij spację by rozpocząć zadanie",target5,stimuli/t5.jpg,111,40,stimuli/blank.jpg,blank,False,None,,,,,,,,,,,,,,0,0,0,0,,,,,0,1,1,4,0,39,39,39,,,,,,,,,,,,,,,,,,,,,,,,,,,,,,,,,,,,,,,,,,,,,,,,,,,,,CS1_USpos,None,1,,,,,,,,,,,,,,,,,,29,M,111,n,2019_Nov_23_1613,ec_RRR,3.0.4,59.94532224752102,
Balas and Sarzynnska,"Dla tego zadania, docelową postacią jest Scatterbug:","Więc gdy tylko Scatterbug (jego imię lub jego podobizna) pojawi się na ekranie, naciśnij spację tak szybko jak to możliwe. Uderz w spację gdy tylko zobaczysz podobiznę Scatterbuga lub słowo SCATTERBUG.

Naciśnij spację by rozpocząć zadanie",target5,stimuli/t5.jpg,111,41,stimuli/cs2_neg19.jpg,CSUS,False,None,,,,,,,,,,,,,,0,0,0,0,,,,,0,1,1,4,0,40,40,40,,,,,,,,,,,,,,,,,,,,,,,,,,,,,,,,,,,,,,,,,,,,,,,,,,,,,CS1_USpos,None,1,,,,,,,,,,,,,,,,,,29,M,111,n,2019_Nov_23_1613,ec_RRR,3.0.4,59.94532224752102,
Balas and Sarzynnska,"Dla tego zadania, docelową postacią jest Scatterbug:","Więc gdy tylko Scatterbug (jego imię lub jego podobizna) pojawi się na ekranie, naciśnij spację tak szybko jak to możliwe. Uderz w spację gdy tylko zobaczysz podobiznę Scatterbuga lub słowo SCATTERBUG.

Naciśnij spację by rozpocząć zadanie",target5,stimuli/t5.jpg,111,42,stimuli/blank.jpg,blank,False,None,,,,,,,,,,,,,,0,0,0,0,,,,,0,1,1,4,0,41,41,41,,,,,,,,,,,,,,,,,,,,,,,,,,,,,,,,,,,,,,,,,,,,,,,,,,,,,CS1_USpos,None,1,,,,,,,,,,,,,,,,,,29,M,111,n,2019_Nov_23_1613,ec_RRR,3.0.4,59.94532224752102,
Balas and Sarzynnska,"Dla tego zadania, docelową postacią jest Scatterbug:","Więc gdy tylko Scatterbug (jego imię lub jego podobizna) pojawi się na ekranie, naciśnij spację tak szybko jak to możliwe. Uderz w spację gdy tylko zobaczysz podobiznę Scatterbuga lub słowo SCATTERBUG.

Naciśnij spację by rozpocząć zadanie",target5,stimuli/t5.jpg,111,43,stimuli/filler17.jpg,filler,False,None,,,,,,,,,,,,,,0,0,0,0,,,,,0,1,1,4,0,42,42,42,,,,,,,,,,,,,,,,,,,,,,,,,,,,,,,,,,,,,,,,,,,,,,,,,,,,,CS1_USpos,None,1,,,,,,,,,,,,,,,,,,29,M,111,n,2019_Nov_23_1613,ec_RRR,3.0.4,59.94532224752102,
Balas and Sarzynnska,"Dla tego zadania, docelową postacią jest Scatterbug:","Więc gdy tylko Scatterbug (jego imię lub jego podobizna) pojawi się na ekranie, naciśnij spację tak szybko jak to możliwe. Uderz w spację gdy tylko zobaczysz podobiznę Scatterbuga lub słowo SCATTERBUG.

Naciśnij spację by rozpocząć zadanie",target5,stimuli/t5.jpg,111,44,stimuli/filler2.jpg,filler,False,None,,,,,,,,,,,,,,0,0,0,0,,,,,0,1,1,4,0,43,43,43,,,,,,,,,,,,,,,,,,,,,,,,,,,,,,,,,,,,,,,,,,,,,,,,,,,,,CS1_USpos,None,1,,,,,,,,,,,,,,,,,,29,M,111,n,2019_Nov_23_1613,ec_RRR,3.0.4,59.94532224752102,
Balas and Sarzynnska,"Dla tego zadania, docelową postacią jest Scatterbug:","Więc gdy tylko Scatterbug (jego imię lub jego podobizna) pojawi się na ekranie, naciśnij spację tak szybko jak to możliwe. Uderz w spację gdy tylko zobaczysz podobiznę Scatterbuga lub słowo SCATTERBUG.

Naciśnij spację by rozpocząć zadanie",target5,stimuli/t5.jpg,111,45,stimuli/target5_8.jpg,target,True,space,,,,,,,,,,,,,,0,0,0,0,,,,,0,1,1,4,0,44,44,44,,,,,,,,,,,,,,,,,,,,,,,,,,,,,,,,,,,,,,,,,,,,,,,,,,,,,CS1_USpos,space,1,0.6845467091479804,,,,,,,,,,,,,,,,,29,M,111,n,2019_Nov_23_1613,ec_RRR,3.0.4,59.94532224752102,
Balas and Sarzynnska,"Dla tego zadania, docelową postacią jest Scatterbug:","Więc gdy tylko Scatterbug (jego imię lub jego podobizna) pojawi się na ekranie, naciśnij spację tak szybko jak to możliwe. Uderz w spację gdy tylko zobaczysz podobiznę Scatterbuga lub słowo SCATTERBUG.

Naciśnij spację by rozpocząć zadanie",target5,stimuli/t5.jpg,111,46,stimuli/filler30.jpg,filler,False,None,,,,,,,,,,,,,,0,0,0,0,,,,,0,1,1,4,0,45,45,45,,,,,,,,,,,,,,,,,,,,,,,,,,,,,,,,,,,,,,,,,,,,,,,,,,,,,CS1_USpos,None,1,,,,,,,,,,,,,,,,,,29,M,111,n,2019_Nov_23_1613,ec_RRR,3.0.4,59.94532224752102,
Balas and Sarzynnska,"Dla tego zadania, docelową postacią jest Scatterbug:","Więc gdy tylko Scatterbug (jego imię lub jego podobizna) pojawi się na ekranie, naciśnij spację tak szybko jak to możliwe. Uderz w spację gdy tylko zobaczysz podobiznę Scatterbuga lub słowo SCATTERBUG.

Naciśnij spację by rozpocząć zadanie",target5,stimuli/t5.jpg,111,47,stimuli/filler51.jpg,filler,False,None,,,,,,,,,,,,,,0,0,0,0,,,,,0,1,1,4,0,46,46,46,,,,,,,,,,,,,,,,,,,,,,,,,,,,,,,,,,,,,,,,,,,,,,,,,,,,,CS1_USpos,None,1,,,,,,,,,,,,,,,,,,29,M,111,n,2019_Nov_23_1613,ec_RRR,3.0.4,59.94532224752102,
Balas and Sarzynnska,"Dla tego zadania, docelową postacią jest Scatterbug:","Więc gdy tylko Scatterbug (jego imię lub jego podobizna) pojawi się na ekranie, naciśnij spację tak szybko jak to możliwe. Uderz w spację gdy tylko zobaczysz podobiznę Scatterbuga lub słowo SCATTERBUG.

Naciśnij spację by rozpocząć zadanie",target5,stimuli/t5.jpg,111,48,stimuli/filler7.jpg,filler,False,None,,,,,,,,,,,,,,0,0,0,0,,,,,0,1,1,4,0,47,47,47,,,,,,,,,,,,,,,,,,,,,,,,,,,,,,,,,,,,,,,,,,,,,,,,,,,,,CS1_USpos,None,1,,,,,,,,,,,,,,,,,,29,M,111,n,2019_Nov_23_1613,ec_RRR,3.0.4,59.94532224752102,
Balas and Sarzynnska,"Dla tego zadania, docelową postacią jest Scatterbug:","Więc gdy tylko Scatterbug (jego imię lub jego podobizna) pojawi się na ekranie, naciśnij spację tak szybko jak to możliwe. Uderz w spację gdy tylko zobaczysz podobiznę Scatterbuga lub słowo SCATTERBUG.

Naciśnij spację by rozpocząć zadanie",target5,stimuli/t5.jpg,111,49,stimuli/filler24.jpg,filler,False,None,,,,,,,,,,,,,,0,0,0,0,,,,,0,1,1,4,0,48,48,48,,,,,,,,,,,,,,,,,,,,,,,,,,,,,,,,,,,,,,,,,,,,,,,,,,,,,CS1_USpos,None,1,,,,,,,,,,,,,,,,,,29,M,111,n,2019_Nov_23_1613,ec_RRR,3.0.4,59.94532224752102,
Balas and Sarzynnska,"Dla tego zadania, docelową postacią jest Scatterbug:","Więc gdy tylko Scatterbug (jego imię lub jego podobizna) pojawi się na ekranie, naciśnij spację tak szybko jak to możliwe. Uderz w spację gdy tylko zobaczysz podobiznę Scatterbuga lub słowo SCATTERBUG.

Naciśnij spację by rozpocząć zadanie",target5,stimuli/t5.jpg,111,50,stimuli/blank.jpg,blank,False,None,,,,,,,,,,,,,,0,0,0,0,,,,,0,1,1,4,0,49,49,49,,,,,,,,,,,,,,,,,,,,,,,,,,,,,,,,,,,,,,,,,,,,,,,,,,,,,CS1_USpos,None,1,,,,,,,,,,,,,,,,,,29,M,111,n,2019_Nov_23_1613,ec_RRR,3.0.4,59.94532224752102,
Balas and Sarzynnska,"Dla tego zadania, docelową postacią jest Scatterbug:","Więc gdy tylko Scatterbug (jego imię lub jego podobizna) pojawi się na ekranie, naciśnij spację tak szybko jak to możliwe. Uderz w spację gdy tylko zobaczysz podobiznę Scatterbuga lub słowo SCATTERBUG.

Naciśnij spację by rozpocząć zadanie",target5,stimuli/t5.jpg,111,51,stimuli/cs1_pos9.jpg,CSUS,False,None,,,,,,,,,,,,,,0,0,0,0,,,,,0,1,1,4,0,50,50,50,,,,,,,,,,,,,,,,,,,,,,,,,,,,,,,,,,,,,,,,,,,,,,,,,,,,,CS1_USpos,None,1,,,,,,,,,,,,,,,,,,29,M,111,n,2019_Nov_23_1613,ec_RRR,3.0.4,59.94532224752102,
Balas and Sarzynnska,"Dla tego zadania, docelową postacią jest Scatterbug:","Więc gdy tylko Scatterbug (jego imię lub jego podobizna) pojawi się na ekranie, naciśnij spację tak szybko jak to możliwe. Uderz w spację gdy tylko zobaczysz podobiznę Scatterbuga lub słowo SCATTERBUG.

Naciśnij spację by rozpocząć zadanie",target5,stimuli/t5.jpg,111,52,stimuli/blank.jpg,blank,False,None,,,,,,,,,,,,,,0,0,0,0,,,,,0,1,1,4,0,51,51,51,,,,,,,,,,,,,,,,,,,,,,,,,,,,,,,,,,,,,,,,,,,,,,,,,,,,,CS1_USpos,None,1,,,,,,,,,,,,,,,,,,29,M,111,n,2019_Nov_23_1613,ec_RRR,3.0.4,59.94532224752102,
Balas and Sarzynnska,"Dla tego zadania, docelową postacią jest Scatterbug:","Więc gdy tylko Scatterbug (jego imię lub jego podobizna) pojawi się na ekranie, naciśnij spację tak szybko jak to możliwe. Uderz w spację gdy tylko zobaczysz podobiznę Scatterbuga lub słowo SCATTERBUG.

Naciśnij spację by rozpocząć zadanie",target5,stimuli/t5.jpg,111,53,stimuli/filler43.jpg,filler,False,None,,,,,,,,,,,,,,0,0,0,0,,,,,0,1,1,4,0,52,52,52,,,,,,,,,,,,,,,,,,,,,,,,,,,,,,,,,,,,,,,,,,,,,,,,,,,,,CS1_USpos,None,1,,,,,,,,,,,,,,,,,,29,M,111,n,2019_Nov_23_1613,ec_RRR,3.0.4,59.94532224752102,
Balas and Sarzynnska,"Dla tego zadania, docelową postacią jest Scatterbug:","Więc gdy tylko Scatterbug (jego imię lub jego podobizna) pojawi się na ekranie, naciśnij spację tak szybko jak to możliwe. Uderz w spację gdy tylko zobaczysz podobiznę Scatterbuga lub słowo SCATTERBUG.

Naciśnij spację by rozpocząć zadanie",target5,stimuli/t5.jpg,111,54,stimuli/filler52.jpg,filler,False,None,,,,,,,,,,,,,,0,0,0,0,,,,,0,1,1,4,0,53,53,53,,,,,,,,,,,,,,,,,,,,,,,,,,,,,,,,,,,,,,,,,,,,,,,,,,,,,CS1_USpos,None,1,,,,,,,,,,,,,,,,,,29,M,111,n,2019_Nov_23_1613,ec_RRR,3.0.4,59.94532224752102,
Balas and Sarzynnska,"Dla tego zadania, docelową postacią jest Scatterbug:","Więc gdy tylko Scatterbug (jego imię lub jego podobizna) pojawi się na ekranie, naciśnij spację tak szybko jak to możliwe. Uderz w spację gdy tylko zobaczysz podobiznę Scatterbuga lub słowo SCATTERBUG.

Naciśnij spację by rozpocząć zadanie",target5,stimuli/t5.jpg,111,55,stimuli/filler31.jpg,filler,False,None,,,,,,,,,,,,,,0,0,0,0,,,,,0,1,1,4,0,54,54,54,,,,,,,,,,,,,,,,,,,,,,,,,,,,,,,,,,,,,,,,,,,,,,,,,,,,,CS1_USpos,None,1,,,,,,,,,,,,,,,,,,29,M,111,n,2019_Nov_23_1613,ec_RRR,3.0.4,59.94532224752102,
Balas and Sarzynnska,"Dla tego zadania, docelową postacią jest Scatterbug:","Więc gdy tylko Scatterbug (jego imię lub jego podobizna) pojawi się na ekranie, naciśnij spację tak szybko jak to możliwe. Uderz w spację gdy tylko zobaczysz podobiznę Scatterbuga lub słowo SCATTERBUG.

Naciśnij spację by rozpocząć zadanie",target5,stimuli/t5.jpg,111,56,stimuli/target5_2.jpg,target,True,space,,,,,,,,,,,,,,0,0,0,0,,,,,0,1,1,4,0,55,55,55,,,,,,,,,,,,,,,,,,,,,,,,,,,,,,,,,,,,,,,,,,,,,,,,,,,,,CS1_USpos,space,1,0.5345057123195147,,,,,,,,,,,,,,,,,29,M,111,n,2019_Nov_23_1613,ec_RRR,3.0.4,59.94532224752102,
Balas and Sarzynnska,"Dla tego zadania, docelową postacią jest Scatterbug:","Więc gdy tylko Scatterbug (jego imię lub jego podobizna) pojawi się na ekranie, naciśnij spację tak szybko jak to możliwe. Uderz w spację gdy tylko zobaczysz podobiznę Scatterbuga lub słowo SCATTERBUG.

Naciśnij spację by rozpocząć zadanie",target5,stimuli/t5.jpg,111,57,stimuli/filler37.jpg,filler,False,None,,,,,,,,,,,,,,0,0,0,0,,,,,0,1,1,4,0,56,56,56,,,,,,,,,,,,,,,,,,,,,,,,,,,,,,,,,,,,,,,,,,,,,,,,,,,,,CS1_USpos,None,1,,,,,,,,,,,,,,,,,,29,M,111,n,2019_Nov_23_1613,ec_RRR,3.0.4,59.94532224752102,
Balas and Sarzynnska,"Dla tego zadania, docelową postacią jest Scatterbug:","Więc gdy tylko Scatterbug (jego imię lub jego podobizna) pojawi się na ekranie, naciśnij spację tak szybko jak to możliwe. Uderz w spację gdy tylko zobaczysz podobiznę Scatterbuga lub słowo SCATTERBUG.

Naciśnij spację by rozpocząć zadanie",target5,stimuli/t5.jpg,111,58,stimuli/filler38.jpg,filler,False,None,,,,,,,,,,,,,,0,0,0,0,,,,,0,1,1,4,0,57,57,57,,,,,,,,,,,,,,,,,,,,,,,,,,,,,,,,,,,,,,,,,,,,,,,,,,,,,CS1_USpos,None,1,,,,,,,,,,,,,,,,,,29,M,111,n,2019_Nov_23_1613,ec_RRR,3.0.4,59.94532224752102,
Balas and Sarzynnska,"Dla tego zadania, docelową postacią jest Scatterbug:","Więc gdy tylko Scatterbug (jego imię lub jego podobizna) pojawi się na ekranie, naciśnij spację tak szybko jak to możliwe. Uderz w spację gdy tylko zobaczysz podobiznę Scatterbuga lub słowo SCATTERBUG.

Naciśnij spację by rozpocząć zadanie",target5,stimuli/t5.jpg,111,59,stimuli/filler29.jpg,filler,False,None,,,,,,,,,,,,,,0,0,0,0,,,,,0,1,1,4,0,58,58,58,,,,,,,,,,,,,,,,,,,,,,,,,,,,,,,,,,,,,,,,,,,,,,,,,,,,,CS1_USpos,None,1,,,,,,,,,,,,,,,,,,29,M,111,n,2019_Nov_23_1613,ec_RRR,3.0.4,59.94532224752102,
Balas and Sarzynnska,"Dla tego zadania, docelową postacią jest Scatterbug:","Więc gdy tylko Scatterbug (jego imię lub jego podobizna) pojawi się na ekranie, naciśnij spację tak szybko jak to możliwe. Uderz w spację gdy tylko zobaczysz podobiznę Scatterbuga lub słowo SCATTERBUG.

Naciśnij spację by rozpocząć zadanie",target5,stimuli/t5.jpg,111,60,stimuli/blank.jpg,blank,False,None,,,,,,,,,,,,,,0,0,0,0,,,,,0,1,1,4,0,59,59,59,,,,,,,,,,,,,,,,,,,,,,,,,,,,,,,,,,,,,,,,,,,,,,,,,,,,,CS1_USpos,None,1,,,,,,,,,,,,,,,,,,29,M,111,n,2019_Nov_23_1613,ec_RRR,3.0.4,59.94532224752102,
Balas and Sarzynnska,"Dla tego zadania, docelową postacią jest Scatterbug:","Więc gdy tylko Scatterbug (jego imię lub jego podobizna) pojawi się na ekranie, naciśnij spację tak szybko jak to możliwe. Uderz w spację gdy tylko zobaczysz podobiznę Scatterbuga lub słowo SCATTERBUG.

Naciśnij spację by rozpocząć zadanie",target5,stimuli/t5.jpg,111,61,stimuli/cs2_neg13.jpg,CSUS,False,None,,,,,,,,,,,,,,0,0,0,0,,,,,0,1,1,4,0,60,60,60,,,,,,,,,,,,,,,,,,,,,,,,,,,,,,,,,,,,,,,,,,,,,,,,,,,,,CS1_USpos,None,1,,,,,,,,,,,,,,,,,,29,M,111,n,2019_Nov_23_1613,ec_RRR,3.0.4,59.94532224752102,
Balas and Sarzynnska,"Dla tego zadania, docelową postacią jest Scatterbug:","Więc gdy tylko Scatterbug (jego imię lub jego podobizna) pojawi się na ekranie, naciśnij spację tak szybko jak to możliwe. Uderz w spację gdy tylko zobaczysz podobiznę Scatterbuga lub słowo SCATTERBUG.

Naciśnij spację by rozpocząć zadanie",target5,stimuli/t5.jpg,111,62,stimuli/blank.jpg,blank,False,None,,,,,,,,,,,,,,0,0,0,0,,,,,0,1,1,4,0,61,61,61,,,,,,,,,,,,,,,,,,,,,,,,,,,,,,,,,,,,,,,,,,,,,,,,,,,,,CS1_USpos,None,1,,,,,,,,,,,,,,,,,,29,M,111,n,2019_Nov_23_1613,ec_RRR,3.0.4,59.94532224752102,
Balas and Sarzynnska,"Dla tego zadania, docelową postacią jest Scatterbug:","Więc gdy tylko Scatterbug (jego imię lub jego podobizna) pojawi się na ekranie, naciśnij spację tak szybko jak to możliwe. Uderz w spację gdy tylko zobaczysz podobiznę Scatterbuga lub słowo SCATTERBUG.

Naciśnij spację by rozpocząć zadanie",target5,stimuli/t5.jpg,111,63,stimuli/filler47.jpg,filler,False,None,,,,,,,,,,,,,,0,0,0,0,,,,,0,1,1,4,0,62,62,62,,,,,,,,,,,,,,,,,,,,,,,,,,,,,,,,,,,,,,,,,,,,,,,,,,,,,CS1_USpos,None,1,,,,,,,,,,,,,,,,,,29,M,111,n,2019_Nov_23_1613,ec_RRR,3.0.4,59.94532224752102,
Balas and Sarzynnska,"Dla tego zadania, docelową postacią jest Scatterbug:","Więc gdy tylko Scatterbug (jego imię lub jego podobizna) pojawi się na ekranie, naciśnij spację tak szybko jak to możliwe. Uderz w spację gdy tylko zobaczysz podobiznę Scatterbuga lub słowo SCATTERBUG.

Naciśnij spację by rozpocząć zadanie",target5,stimuli/t5.jpg,111,64,stimuli/filler42.jpg,filler,False,None,,,,,,,,,,,,,,0,0,0,0,,,,,0,1,1,4,0,63,63,63,,,,,,,,,,,,,,,,,,,,,,,,,,,,,,,,,,,,,,,,,,,,,,,,,,,,,CS1_USpos,None,1,,,,,,,,,,,,,,,,,,29,M,111,n,2019_Nov_23_1613,ec_RRR,3.0.4,59.94532224752102,
Balas and Sarzynnska,"Dla tego zadania, docelową postacią jest Scatterbug:","Więc gdy tylko Scatterbug (jego imię lub jego podobizna) pojawi się na ekranie, naciśnij spację tak szybko jak to możliwe. Uderz w spację gdy tylko zobaczysz podobiznę Scatterbuga lub słowo SCATTERBUG.

Naciśnij spację by rozpocząć zadanie",target5,stimuli/t5.jpg,111,65,stimuli/filler34.jpg,filler,False,None,,,,,,,,,,,,,,0,0,0,0,,,,,0,1,1,4,0,64,64,64,,,,,,,,,,,,,,,,,,,,,,,,,,,,,,,,,,,,,,,,,,,,,,,,,,,,,CS1_USpos,None,1,,,,,,,,,,,,,,,,,,29,M,111,n,2019_Nov_23_1613,ec_RRR,3.0.4,59.94532224752102,
Balas and Sarzynnska,"Dla tego zadania, docelową postacią jest Scatterbug:","Więc gdy tylko Scatterbug (jego imię lub jego podobizna) pojawi się na ekranie, naciśnij spację tak szybko jak to możliwe. Uderz w spację gdy tylko zobaczysz podobiznę Scatterbuga lub słowo SCATTERBUG.

Naciśnij spację by rozpocząć zadanie",target5,stimuli/t5.jpg,111,66,stimuli/target5_9.jpg,target,True,space,,,,,,,,,,,,,,0,0,0,0,,,,,0,1,1,4,0,65,65,65,,,,,,,,,,,,,,,,,,,,,,,,,,,,,,,,,,,,,,,,,,,,,,,,,,,,,CS1_USpos,space,1,0.6510891049001657,,,,,,,,,,,,,,,,,29,M,111,n,2019_Nov_23_1613,ec_RRR,3.0.4,59.94532224752102,
Balas and Sarzynnska,"Dla tego zadania, docelową postacią jest Scatterbug:","Więc gdy tylko Scatterbug (jego imię lub jego podobizna) pojawi się na ekranie, naciśnij spację tak szybko jak to możliwe. Uderz w spację gdy tylko zobaczysz podobiznę Scatterbuga lub słowo SCATTERBUG.

Naciśnij spację by rozpocząć zadanie",target5,stimuli/t5.jpg,111,67,stimuli/target5_10.jpg,target,True,space,,,,,,,,,,,,,,0,0,0,0,,,,,0,1,1,4,0,66,66,66,,,,,,,,,,,,,,,,,,,,,,,,,,,,,,,,,,,,,,,,,,,,,,,,,,,,,CS1_USpos,None,0,,,,,,,,,,,,,,,,,,29,M,111,n,2019_Nov_23_1613,ec_RRR,3.0.4,59.94532224752102,
Balas and Sarzynnska,"Dla tego zadania, docelową postacią jest Scatterbug:","Więc gdy tylko Scatterbug (jego imię lub jego podobizna) pojawi się na ekranie, naciśnij spację tak szybko jak to możliwe. Uderz w spację gdy tylko zobaczysz podobiznę Scatterbuga lub słowo SCATTERBUG.

Naciśnij spację by rozpocząć zadanie",target5,stimuli/t5.jpg,111,68,stimuli/filler35.jpg,filler,False,None,,,,,,,,,,,,,,0,0,0,0,,,,,0,1,1,4,0,67,67,67,,,,,,,,,,,,,,,,,,,,,,,,,,,,,,,,,,,,,,,,,,,,,,,,,,,,,CS1_USpos,None,1,,,,,,,,,,,,,,,,,,29,M,111,n,2019_Nov_23_1613,ec_RRR,3.0.4,59.94532224752102,
Balas and Sarzynnska,"Dla tego zadania, docelową postacią jest Scatterbug:","Więc gdy tylko Scatterbug (jego imię lub jego podobizna) pojawi się na ekranie, naciśnij spację tak szybko jak to możliwe. Uderz w spację gdy tylko zobaczysz podobiznę Scatterbuga lub słowo SCATTERBUG.

Naciśnij spację by rozpocząć zadanie",target5,stimuli/t5.jpg,111,69,stimuli/filler50.jpg,filler,False,None,,,,,,,,,,,,,,0,0,0,0,,,,,0,1,1,4,0,68,68,68,,,,,,,,,,,,,,,,,,,,,,,,,,,,,,,,,,,,,,,,,,,,,,,,,,,,,CS1_USpos,None,1,,,,,,,,,,,,,,,,,,29,M,111,n,2019_Nov_23_1613,ec_RRR,3.0.4,59.94532224752102,
Balas and Sarzynnska,"Dla tego zadania, docelową postacią jest Scatterbug:","Więc gdy tylko Scatterbug (jego imię lub jego podobizna) pojawi się na ekranie, naciśnij spację tak szybko jak to możliwe. Uderz w spację gdy tylko zobaczysz podobiznę Scatterbuga lub słowo SCATTERBUG.

Naciśnij spację by rozpocząć zadanie",target5,stimuli/t5.jpg,111,70,stimuli/blank.jpg,blank,False,None,,,,,,,,,,,,,,0,0,0,0,,,,,0,1,1,4,0,69,69,69,,,,,,,,,,,,,,,,,,,,,,,,,,,,,,,,,,,,,,,,,,,,,,,,,,,,,CS1_USpos,None,1,,,,,,,,,,,,,,,,,,29,M,111,n,2019_Nov_23_1613,ec_RRR,3.0.4,59.94532224752102,
Balas and Sarzynnska,"Dla tego zadania, docelową postacią jest Scatterbug:","Więc gdy tylko Scatterbug (jego imię lub jego podobizna) pojawi się na ekranie, naciśnij spację tak szybko jak to możliwe. Uderz w spację gdy tylko zobaczysz podobiznę Scatterbuga lub słowo SCATTERBUG.

Naciśnij spację by rozpocząć zadanie",target5,stimuli/t5.jpg,111,71,stimuli/cs1_pos20.jpg,CSUS,False,None,,,,,,,,,,,,,,0,0,0,0,,,,,0,1,1,4,0,70,70,70,,,,,,,,,,,,,,,,,,,,,,,,,,,,,,,,,,,,,,,,,,,,,,,,,,,,,CS1_USpos,None,1,,,,,,,,,,,,,,,,,,29,M,111,n,2019_Nov_23_1613,ec_RRR,3.0.4,59.94532224752102,
Balas and Sarzynnska,"Dla tego zadania, docelową postacią jest Scatterbug:","Więc gdy tylko Scatterbug (jego imię lub jego podobizna) pojawi się na ekranie, naciśnij spację tak szybko jak to możliwe. Uderz w spację gdy tylko zobaczysz podobiznę Scatterbuga lub słowo SCATTERBUG.

Naciśnij spację by rozpocząć zadanie",target5,stimuli/t5.jpg,111,72,stimuli/blank.jpg,blank,False,None,,,,,,,,,,,,,,0,0,0,0,,,,,0,1,1,4,0,71,71,71,,,,,,,,,,,,,,,,,,,,,,,,,,,,,,,,,,,,,,,,,,,,,,,,,,,,,CS1_USpos,None,1,,,,,,,,,,,,,,,,,,29,M,111,n,2019_Nov_23_1613,ec_RRR,3.0.4,59.94532224752102,
Balas and Sarzynnska,"Dla tego zadania, docelową postacią jest Scatterbug:","Więc gdy tylko Scatterbug (jego imię lub jego podobizna) pojawi się na ekranie, naciśnij spację tak szybko jak to możliwe. Uderz w spację gdy tylko zobaczysz podobiznę Scatterbuga lub słowo SCATTERBUG.

Naciśnij spację by rozpocząć zadanie",target5,stimuli/t5.jpg,111,73,stimuli/filler15.jpg,filler,False,None,,,,,,,,,,,,,,0,0,0,0,,,,,0,1,1,4,0,72,72,72,,,,,,,,,,,,,,,,,,,,,,,,,,,,,,,,,,,,,,,,,,,,,,,,,,,,,CS1_USpos,None,1,,,,,,,,,,,,,,,,,,29,M,111,n,2019_Nov_23_1613,ec_RRR,3.0.4,59.94532224752102,
Balas and Sarzynnska,"Dla tego zadania, docelową postacią jest Scatterbug:","Więc gdy tylko Scatterbug (jego imię lub jego podobizna) pojawi się na ekranie, naciśnij spację tak szybko jak to możliwe. Uderz w spację gdy tylko zobaczysz podobiznę Scatterbuga lub słowo SCATTERBUG.

Naciśnij spację by rozpocząć zadanie",target5,stimuli/t5.jpg,111,74,stimuli/filler6.jpg,filler,False,None,,,,,,,,,,,,,,0,0,0,0,,,,,0,1,1,4,0,73,73,73,,,,,,,,,,,,,,,,,,,,,,,,,,,,,,,,,,,,,,,,,,,,,,,,,,,,,CS1_USpos,None,1,,,,,,,,,,,,,,,,,,29,M,111,n,2019_Nov_23_1613,ec_RRR,3.0.4,59.94532224752102,
Balas and Sarzynnska,"Dla tego zadania, docelową postacią jest Scatterbug:","Więc gdy tylko Scatterbug (jego imię lub jego podobizna) pojawi się na ekranie, naciśnij spację tak szybko jak to możliwe. Uderz w spację gdy tylko zobaczysz podobiznę Scatterbuga lub słowo SCATTERBUG.

Naciśnij spację by rozpocząć zadanie",target5,stimuli/t5.jpg,111,75,stimuli/filler8.jpg,filler,False,None,,,,,,,,,,,,,,0,0,0,0,,,,,0,1,1,4,0,74,74,74,,,,,,,,,,,,,,,,,,,,,,,,,,,,,,,,,,,,,,,,,,,,,,,,,,,,,CS1_USpos,None,1,,,,,,,,,,,,,,,,,,29,M,111,n,2019_Nov_23_1613,ec_RRR,3.0.4,59.94532224752102,
Balas and Sarzynnska,"Dla tego zadania, docelową postacią jest Scatterbug:","Więc gdy tylko Scatterbug (jego imię lub jego podobizna) pojawi się na ekranie, naciśnij spację tak szybko jak to możliwe. Uderz w spację gdy tylko zobaczysz podobiznę Scatterbuga lub słowo SCATTERBUG.

Naciśnij spację by rozpocząć zadanie",target5,stimuli/t5.jpg,111,76,stimuli/filler32.jpg,filler,False,None,,,,,,,,,,,,,,0,0,0,0,,,,,0,1,1,4,0,75,75,75,,,,,,,,,,,,,,,,,,,,,,,,,,,,,,,,,,,,,,,,,,,,,,,,,,,,,CS1_USpos,None,1,,,,,,,,,,,,,,,,,,29,M,111,n,2019_Nov_23_1613,ec_RRR,3.0.4,59.94532224752102,
Balas and Sarzynnska,"Dla tego zadania, docelową postacią jest Scatterbug:","Więc gdy tylko Scatterbug (jego imię lub jego podobizna) pojawi się na ekranie, naciśnij spację tak szybko jak to możliwe. Uderz w spację gdy tylko zobaczysz podobiznę Scatterbuga lub słowo SCATTERBUG.

Naciśnij spację by rozpocząć zadanie",target5,stimuli/t5.jpg,111,77,stimuli/filler40.jpg,filler,False,None,,,,,,,,,,,,,,0,0,0,0,,,,,0,1,1,4,0,76,76,76,,,,,,,,,,,,,,,,,,,,,,,,,,,,,,,,,,,,,,,,,,,,,,,,,,,,,CS1_USpos,None,1,,,,,,,,,,,,,,,,,,29,M,111,n,2019_Nov_23_1613,ec_RRR,3.0.4,59.94532224752102,
Balas and Sarzynnska,"Dla tego zadania, docelową postacią jest Scatterbug:","Więc gdy tylko Scatterbug (jego imię lub jego podobizna) pojawi się na ekranie, naciśnij spację tak szybko jak to możliwe. Uderz w spację gdy tylko zobaczysz podobiznę Scatterbuga lub słowo SCATTERBUG.

Naciśnij spację by rozpocząć zadanie",target5,stimuli/t5.jpg,111,78,stimuli/filler23.jpg,filler,False,None,,,,,,,,,,,,,,0,0,0,0,,,,,0,1,1,4,0,77,77,77,,,,,,,,,,,,,,,,,,,,,,,,,,,,,,,,,,,,,,,,,,,,,,,,,,,,,CS1_USpos,None,1,,,,,,,,,,,,,,,,,,29,M,111,n,2019_Nov_23_1613,ec_RRR,3.0.4,59.94532224752102,
Balas and Sarzynnska,"Dla tego zadania, docelową postacią jest Scatterbug:","Więc gdy tylko Scatterbug (jego imię lub jego podobizna) pojawi się na ekranie, naciśnij spację tak szybko jak to możliwe. Uderz w spację gdy tylko zobaczysz podobiznę Scatterbuga lub słowo SCATTERBUG.

Naciśnij spację by rozpocząć zadanie",target5,stimuli/t5.jpg,111,79,stimuli/filler44.jpg,filler,False,None,,,,,,,,,,,,,,0,0,0,0,,,,,0,1,1,4,0,78,78,78,,,,,,,,,,,,,,,,,,,,,,,,,,,,,,,,,,,,,,,,,,,,,,,,,,,,,CS1_USpos,None,1,,,,,,,,,,,,,,,,,,29,M,111,n,2019_Nov_23_1613,ec_RRR,3.0.4,59.94532224752102,
Balas and Sarzynnska,"Dla tego zadania, docelową postacią jest Scatterbug:","Więc gdy tylko Scatterbug (jego imię lub jego podobizna) pojawi się na ekranie, naciśnij spację tak szybko jak to możliwe. Uderz w spację gdy tylko zobaczysz podobiznę Scatterbuga lub słowo SCATTERBUG.

Naciśnij spację by rozpocząć zadanie",target5,stimuli/t5.jpg,111,80,stimuli/blank.jpg,blank,False,None,,,,,,,,,,,,,,0,0,0,0,,,,,0,1,1,4,0,79,79,79,,,,,,,,,,,,,,,,,,,,,,,,,,,,,,,,,,,,,,,,,,,,,,,,,,,,,CS1_USpos,None,1,,,,,,,,,,,,,,,,,,29,M,111,n,2019_Nov_23_1613,ec_RRR,3.0.4,59.94532224752102,
Balas and Sarzynnska,"Dla tego zadania, docelową postacią jest Scatterbug:","Więc gdy tylko Scatterbug (jego imię lub jego podobizna) pojawi się na ekranie, naciśnij spację tak szybko jak to możliwe. Uderz w spację gdy tylko zobaczysz podobiznę Scatterbuga lub słowo SCATTERBUG.

Naciśnij spację by rozpocząć zadanie",target5,stimuli/t5.jpg,111,81,stimuli/cs2_neg1.jpg,CSUS,False,None,,,,,,,,,,,,,,0,0,0,0,,,,,0,1,1,4,0,80,80,80,,,,,,,,,,,,,,,,,,,,,,,,,,,,,,,,,,,,,,,,,,,,,,,,,,,,,CS1_USpos,None,1,,,,,,,,,,,,,,,,,,29,M,111,n,2019_Nov_23_1613,ec_RRR,3.0.4,59.94532224752102,
Balas and Sarzynnska,"Dla tego zadania, docelową postacią jest Scatterbug:","Więc gdy tylko Scatterbug (jego imię lub jego podobizna) pojawi się na ekranie, naciśnij spację tak szybko jak to możliwe. Uderz w spację gdy tylko zobaczysz podobiznę Scatterbuga lub słowo SCATTERBUG.

Naciśnij spację by rozpocząć zadanie",target5,stimuli/t5.jpg,111,82,stimuli/blank.jpg,blank,False,None,,,,,,,,,,,,,,0,0,0,0,,,,,0,1,1,4,0,81,81,81,,,,,,,,,,,,,,,,,,,,,,,,,,,,,,,,,,,,,,,,,,,,,,,,,,,,,CS1_USpos,None,1,,,,,,,,,,,,,,,,,,29,M,111,n,2019_Nov_23_1613,ec_RRR,3.0.4,59.94532224752102,
Balas and Sarzynnska,"Dla tego zadania, docelową postacią jest Scatterbug:","Więc gdy tylko Scatterbug (jego imię lub jego podobizna) pojawi się na ekranie, naciśnij spację tak szybko jak to możliwe. Uderz w spację gdy tylko zobaczysz podobiznę Scatterbuga lub słowo SCATTERBUG.

Naciśnij spację by rozpocząć zadanie",target5,stimuli/t5.jpg,111,83,stimuli/filler25.jpg,filler,False,None,,,,,,,,,,,,,,0,0,0,0,,,,,0,1,1,4,0,82,82,82,,,,,,,,,,,,,,,,,,,,,,,,,,,,,,,,,,,,,,,,,,,,,,,,,,,,,CS1_USpos,None,1,,,,,,,,,,,,,,,,,,29,M,111,n,2019_Nov_23_1613,ec_RRR,3.0.4,59.94532224752102,
Balas and Sarzynnska,"Dla tego zadania, docelową postacią jest Scatterbug:","Więc gdy tylko Scatterbug (jego imię lub jego podobizna) pojawi się na ekranie, naciśnij spację tak szybko jak to możliwe. Uderz w spację gdy tylko zobaczysz podobiznę Scatterbuga lub słowo SCATTERBUG.

