data_collection_site,instructions_text_top,instructions_text_bottom,block_id,example_image,participant,trial_number,stimulus,trial_type,target_trial,surveillance_correct_response,filler_1_items,filler_2_items,middle_text,left_text,right_text,evaluation_stimulus,left_stimulus,right_stimulus,evaluation_response_indicating_CS1_preferred,awareness_1_question_text,awareness_2a_question_text,awareness_2b_question_text,awareness_2_question_text,record_data_collection_site_variable.thisRepN,record_data_collection_site_variable.thisTrialN,record_data_collection_site_variable.thisN,record_data_collection_site_variable.thisIndex,surveillance_instructions_loop.thisRepN,surveillance_instructions_loop.thisTrialN,surveillance_instructions_loop.thisN,surveillance_instructions_loop.thisIndex,surveillance_blocks_loop.thisRepN,surveillance_blocks_loop.thisTrialN,surveillance_blocks_loop.thisN,surveillance_blocks_loop.thisIndex,surveillance_trials_loop.thisRepN,surveillance_trials_loop.thisTrialN,surveillance_trials_loop.thisN,surveillance_trials_loop.thisIndex,filler_1_instructions_loop.thisRepN,filler_1_instructions_loop.thisTrialN,filler_1_instructions_loop.thisN,filler_1_instructions_loop.thisIndex,filler_1_loop.thisRepN,filler_1_loop.thisTrialN,filler_1_loop.thisN,filler_1_loop.thisIndex,filler_2_instructions_loop.thisRepN,filler_2_instructions_loop.thisTrialN,filler_2_instructions_loop.thisN,filler_2_instructions_loop.thisIndex,filler_2_loop.thisRepN,filler_2_loop.thisTrialN,filler_2_loop.thisN,filler_2_loop.thisIndex,evaluation_instructions_loop.thisRepN,evaluation_instructions_loop.thisTrialN,evaluation_instructions_loop.thisN,evaluation_instructions_loop.thisIndex,evaluation_loop.thisRepN,evaluation_loop.thisTrialN,evaluation_loop.thisN,evaluation_loop.thisIndex,evaluation_trials.thisRepN,evaluation_trials.thisTrialN,evaluation_trials.thisN,evaluation_trials.thisIndex,awareness_instructions_loop.thisRepN,awareness_instructions_loop.thisTrialN,awareness_instructions_loop.thisN,awareness_instructions_loop.thisIndex,awareness_1_trials_loop.thisRepN,awareness_1_trials_loop.thisTrialN,awareness_1_trials_loop.thisN,awareness_1_trials_loop.thisIndex,awareness_2a_trials_loop.thisRepN,awareness_2a_trials_loop.thisTrialN,awareness_2a_trials_loop.thisN,awareness_2a_trials_loop.thisIndex,awareness_2b_trials_loop.thisRepN,awareness_2b_trials_loop.thisTrialN,awareness_2b_trials_loop.thisN,awareness_2b_trials_loop.thisIndex,awareness_2c_trials_loop.thisRepN,awareness_2c_trials_loop.thisTrialN,awareness_2c_trials_loop.thisN,awareness_2c_trials_loop.thisIndex,end_message_loop.thisRepN,end_message_loop.thisTrialN,end_message_loop.thisN,end_message_loop.thisIndex,condition,surveillance_response.keys,surveillance_response.corr,surveillance_response.rt,filler_1_rating.response,filler_1_rating.rt,filler_2_rating.response,filler_2_rating.rt,evaluation_response.keys,evaluation_response.corr,evaluation_response.rt,inputText,awareness_1_response.keys,awareness_1_response.rt,awareness_type_2a_rating.response,awareness_type_2a_rating.rt,awareness_type_2b_rating.response,awareness_type_2b_rating.rt,awareness_type_2c_rating.response,awareness_type_2c_rating.rt,age,gender,participant,UseMonkey,date,expName,psychopyVersion,frameRate,
Balas and Sarzynnska,"Dla tego zadania, docelową postacią jest Scatterbug:","Więc gdy tylko Scatterbug (jego imię lub jego podobizna) pojawi się na ekranie, naciśnij spację tak szybko jak to możliwe. Uderz w spację gdy tylko zobaczysz podobiznę Scatterbuga lub słowo SCATTERBUG.

Naciśnij spację by rozpocząć zadanie",target5,stimuli/t5.jpg,29,1,stimuli/filler50.jpg,filler,False,None,,,,,,,,,,,,,,0,0,0,0,,,,,0,0,0,4,0,0,0,0,,,,,,,,,,,,,,,,,,,,,,,,,,,,,,,,,,,,,,,,,,,,,,,,,,,,,CS1_USpos,None,1,,,,,,,,,,,,,,,,,,25,m,29,n,2019_Dec_08_1015,ec_RRR,3.0.4,59.95398184157797,
Balas and Sarzynnska,"Dla tego zadania, docelową postacią jest Scatterbug:","Więc gdy tylko Scatterbug (jego imię lub jego podobizna) pojawi się na ekranie, naciśnij spację tak szybko jak to możliwe. Uderz w spację gdy tylko zobaczysz podobiznę Scatterbuga lub słowo SCATTERBUG.

Naciśnij spację by rozpocząć zadanie",target5,stimuli/t5.jpg,29,2,stimuli/filler16.jpg,filler,False,None,,,,,,,,,,,,,,0,0,0,0,,,,,0,0,0,4,0,1,1,1,,,,,,,,,,,,,,,,,,,,,,,,,,,,,,,,,,,,,,,,,,,,,,,,,,,,,CS1_USpos,None,1,,,,,,,,,,,,,,,,,,25,m,29,n,2019_Dec_08_1015,ec_RRR,3.0.4,59.95398184157797,
Balas and Sarzynnska,"Dla tego zadania, docelową postacią jest Scatterbug:","Więc gdy tylko Scatterbug (jego imię lub jego podobizna) pojawi się na ekranie, naciśnij spację tak szybko jak to możliwe. Uderz w spację gdy tylko zobaczysz podobiznę Scatterbuga lub słowo SCATTERBUG.

Naciśnij spację by rozpocząć zadanie",target5,stimuli/t5.jpg,29,3,stimuli/filler3.jpg,filler,False,None,,,,,,,,,,,,,,0,0,0,0,,,,,0,0,0,4,0,2,2,2,,,,,,,,,,,,,,,,,,,,,,,,,,,,,,,,,,,,,,,,,,,,,,,,,,,,,CS1_USpos,None,1,,,,,,,,,,,,,,,,,,25,m,29,n,2019_Dec_08_1015,ec_RRR,3.0.4,59.95398184157797,
Balas and Sarzynnska,"Dla tego zadania, docelową postacią jest Scatterbug:","Więc gdy tylko Scatterbug (jego imię lub jego podobizna) pojawi się na ekranie, naciśnij spację tak szybko jak to możliwe. Uderz w spację gdy tylko zobaczysz podobiznę Scatterbuga lub słowo SCATTERBUG.

Naciśnij spację by rozpocząć zadanie",target5,stimuli/t5.jpg,29,4,stimuli/filler7.jpg,filler,False,None,,,,,,,,,,,,,,0,0,0,0,,,,,0,0,0,4,0,3,3,3,,,,,,,,,,,,,,,,,,,,,,,,,,,,,,,,,,,,,,,,,,,,,,,,,,,,,CS1_USpos,None,1,,,,,,,,,,,,,,,,,,25,m,29,n,2019_Dec_08_1015,ec_RRR,3.0.4,59.95398184157797,
Balas and Sarzynnska,"Dla tego zadania, docelową postacią jest Scatterbug:","Więc gdy tylko Scatterbug (jego imię lub jego podobizna) pojawi się na ekranie, naciśnij spację tak szybko jak to możliwe. Uderz w spację gdy tylko zobaczysz podobiznę Scatterbuga lub słowo SCATTERBUG.

Naciśnij spację by rozpocząć zadanie",target5,stimuli/t5.jpg,29,5,stimuli/target5_8.jpg,target,True,space,,,,,,,,,,,,,,0,0,0,0,,,,,0,0,0,4,0,4,4,4,,,,,,,,,,,,,,,,,,,,,,,,,,,,,,,,,,,,,,,,,,,,,,,,,,,,,CS1_USpos,space,1,0.6160786219998045,,,,,,,,,,,,,,,,,25,m,29,n,2019_Dec_08_1015,ec_RRR,3.0.4,59.95398184157797,
Balas and Sarzynnska,"Dla tego zadania, docelową postacią jest Scatterbug:","Więc gdy tylko Scatterbug (jego imię lub jego podobizna) pojawi się na ekranie, naciśnij spację tak szybko jak to możliwe. Uderz w spację gdy tylko zobaczysz podobiznę Scatterbuga lub słowo SCATTERBUG.

Naciśnij spację by rozpocząć zadanie",target5,stimuli/t5.jpg,29,6,stimuli/filler40.jpg,filler,False,None,,,,,,,,,,,,,,0,0,0,0,,,,,0,0,0,4,0,5,5,5,,,,,,,,,,,,,,,,,,,,,,,,,,,,,,,,,,,,,,,,,,,,,,,,,,,,,CS1_USpos,None,1,,,,,,,,,,,,,,,,,,25,m,29,n,2019_Dec_08_1015,ec_RRR,3.0.4,59.95398184157797,
Balas and Sarzynnska,"Dla tego zadania, docelową postacią jest Scatterbug:","Więc gdy tylko Scatterbug (jego imię lub jego podobizna) pojawi się na ekranie, naciśnij spację tak szybko jak to możliwe. Uderz w spację gdy tylko zobaczysz podobiznę Scatterbuga lub słowo SCATTERBUG.

Naciśnij spację by rozpocząć zadanie",target5,stimuli/t5.jpg,29,7,stimuli/filler30.jpg,filler,False,None,,,,,,,,,,,,,,0,0,0,0,,,,,0,0,0,4,0,6,6,6,,,,,,,,,,,,,,,,,,,,,,,,,,,,,,,,,,,,,,,,,,,,,,,,,,,,,CS1_USpos,None,1,,,,,,,,,,,,,,,,,,25,m,29,n,2019_Dec_08_1015,ec_RRR,3.0.4,59.95398184157797,
Balas and Sarzynnska,"Dla tego zadania, docelową postacią jest Scatterbug:","Więc gdy tylko Scatterbug (jego imię lub jego podobizna) pojawi się na ekranie, naciśnij spację tak szybko jak to możliwe. Uderz w spację gdy tylko zobaczysz podobiznę Scatterbuga lub słowo SCATTERBUG.

Naciśnij spację by rozpocząć zadanie",target5,stimuli/t5.jpg,29,8,stimuli/filler6.jpg,filler,False,None,,,,,,,,,,,,,,0,0,0,0,,,,,0,0,0,4,0,7,7,7,,,,,,,,,,,,,,,,,,,,,,,,,,,,,,,,,,,,,,,,,,,,,,,,,,,,,CS1_USpos,None,1,,,,,,,,,,,,,,,,,,25,m,29,n,2019_Dec_08_1015,ec_RRR,3.0.4,59.95398184157797,
Balas and Sarzynnska,"Dla tego zadania, docelową postacią jest Scatterbug:","Więc gdy tylko Scatterbug (jego imię lub jego podobizna) pojawi się na ekranie, naciśnij spację tak szybko jak to możliwe. Uderz w spację gdy tylko zobaczysz podobiznę Scatterbuga lub słowo SCATTERBUG.

Naciśnij spację by rozpocząć zadanie",target5,stimuli/t5.jpg,29,9,stimuli/filler28.jpg,filler,False,None,,,,,,,,,,,,,,0,0,0,0,,,,,0,0,0,4,0,8,8,8,,,,,,,,,,,,,,,,,,,,,,,,,,,,,,,,,,,,,,,,,,,,,,,,,,,,,CS1_USpos,None,1,,,,,,,,,,,,,,,,,,25,m,29,n,2019_Dec_08_1015,ec_RRR,3.0.4,59.95398184157797,
Balas and Sarzynnska,"Dla tego zadania, docelową postacią jest Scatterbug:","Więc gdy tylko Scatterbug (jego imię lub jego podobizna) pojawi się na ekranie, naciśnij spację tak szybko jak to możliwe. Uderz w spację gdy tylko zobaczysz podobiznę Scatterbuga lub słowo SCATTERBUG.

Naciśnij spację by rozpocząć zadanie",target5,stimuli/t5.jpg,29,10,stimuli/blank.jpg,blank,False,None,,,,,,,,,,,,,,0,0,0,0,,,,,0,0,0,4,0,9,9,9,,,,,,,,,,,,,,,,,,,,,,,,,,,,,,,,,,,,,,,,,,,,,,,,,,,,,CS1_USpos,None,1,,,,,,,,,,,,,,,,,,25,m,29,n,2019_Dec_08_1015,ec_RRR,3.0.4,59.95398184157797,
Balas and Sarzynnska,"Dla tego zadania, docelową postacią jest Scatterbug:","Więc gdy tylko Scatterbug (jego imię lub jego podobizna) pojawi się na ekranie, naciśnij spację tak szybko jak to możliwe. Uderz w spację gdy tylko zobaczysz podobiznę Scatterbuga lub słowo SCATTERBUG.

Naciśnij spację by rozpocząć zadanie",target5,stimuli/t5.jpg,29,11,stimuli/cs1_pos20.jpg,CSUS,False,None,,,,,,,,,,,,,,0,0,0,0,,,,,0,0,0,4,0,10,10,10,,,,,,,,,,,,,,,,,,,,,,,,,,,,,,,,,,,,,,,,,,,,,,,,,,,,,CS1_USpos,None,1,,,,,,,,,,,,,,,,,,25,m,29,n,2019_Dec_08_1015,ec_RRR,3.0.4,59.95398184157797,
Balas and Sarzynnska,"Dla tego zadania, docelową postacią jest Scatterbug:","Więc gdy tylko Scatterbug (jego imię lub jego podobizna) pojawi się na ekranie, naciśnij spację tak szybko jak to możliwe. Uderz w spację gdy tylko zobaczysz podobiznę Scatterbuga lub słowo SCATTERBUG.

Naciśnij spację by rozpocząć zadanie",target5,stimuli/t5.jpg,29,12,stimuli/blank.jpg,blank,False,None,,,,,,,,,,,,,,0,0,0,0,,,,,0,0,0,4,0,11,11,11,,,,,,,,,,,,,,,,,,,,,,,,,,,,,,,,,,,,,,,,,,,,,,,,,,,,,CS1_USpos,None,1,,,,,,,,,,,,,,,,,,25,m,29,n,2019_Dec_08_1015,ec_RRR,3.0.4,59.95398184157797,
Balas and Sarzynnska,"Dla tego zadania, docelową postacią jest Scatterbug:","Więc gdy tylko Scatterbug (jego imię lub jego podobizna) pojawi się na ekranie, naciśnij spację tak szybko jak to możliwe. Uderz w spację gdy tylko zobaczysz podobiznę Scatterbuga lub słowo SCATTERBUG.

Naciśnij spację by rozpocząć zadanie",target5,stimuli/t5.jpg,29,13,stimuli/filler22.jpg,filler,False,None,,,,,,,,,,,,,,0,0,0,0,,,,,0,0,0,4,0,12,12,12,,,,,,,,,,,,,,,,,,,,,,,,,,,,,,,,,,,,,,,,,,,,,,,,,,,,,CS1_USpos,None,1,,,,,,,,,,,,,,,,,,25,m,29,n,2019_Dec_08_1015,ec_RRR,3.0.4,59.95398184157797,
Balas and Sarzynnska,"Dla tego zadania, docelową postacią jest Scatterbug:","Więc gdy tylko Scatterbug (jego imię lub jego podobizna) pojawi się na ekranie, naciśnij spację tak szybko jak to możliwe. Uderz w spację gdy tylko zobaczysz podobiznę Scatterbuga lub słowo SCATTERBUG.

Naciśnij spację by rozpocząć zadanie",target5,stimuli/t5.jpg,29,14,stimuli/filler27.jpg,filler,False,None,,,,,,,,,,,,,,0,0,0,0,,,,,0,0,0,4,0,13,13,13,,,,,,,,,,,,,,,,,,,,,,,,,,,,,,,,,,,,,,,,,,,,,,,,,,,,,CS1_USpos,None,1,,,,,,,,,,,,,,,,,,25,m,29,n,2019_Dec_08_1015,ec_RRR,3.0.4,59.95398184157797,
Balas and Sarzynnska,"Dla tego zadania, docelową postacią jest Scatterbug:","Więc gdy tylko Scatterbug (jego imię lub jego podobizna) pojawi się na ekranie, naciśnij spację tak szybko jak to możliwe. Uderz w spację gdy tylko zobaczysz podobiznę Scatterbuga lub słowo SCATTERBUG.

Naciśnij spację by rozpocząć zadanie",target5,stimuli/t5.jpg,29,15,stimuli/filler11.jpg,filler,False,None,,,,,,,,,,,,,,0,0,0,0,,,,,0,0,0,4,0,14,14,14,,,,,,,,,,,,,,,,,,,,,,,,,,,,,,,,,,,,,,,,,,,,,,,,,,,,,CS1_USpos,None,1,,,,,,,,,,,,,,,,,,25,m,29,n,2019_Dec_08_1015,ec_RRR,3.0.4,59.95398184157797,
Balas and Sarzynnska,"Dla tego zadania, docelową postacią jest Scatterbug:","Więc gdy tylko Scatterbug (jego imię lub jego podobizna) pojawi się na ekranie, naciśnij spację tak szybko jak to możliwe. Uderz w spację gdy tylko zobaczysz podobiznę Scatterbuga lub słowo SCATTERBUG.

Naciśnij spację by rozpocząć zadanie",target5,stimuli/t5.jpg,29,16,stimuli/filler35.jpg,filler,False,None,,,,,,,,,,,,,,0,0,0,0,,,,,0,0,0,4,0,15,15,15,,,,,,,,,,,,,,,,,,,,,,,,,,,,,,,,,,,,,,,,,,,,,,,,,,,,,CS1_USpos,None,1,,,,,,,,,,,,,,,,,,25,m,29,n,2019_Dec_08_1015,ec_RRR,3.0.4,59.95398184157797,
Balas and Sarzynnska,"Dla tego zadania, docelową postacią jest Scatterbug:","Więc gdy tylko Scatterbug (jego imię lub jego podobizna) pojawi się na ekranie, naciśnij spację tak szybko jak to możliwe. Uderz w spację gdy tylko zobaczysz podobiznę Scatterbuga lub słowo SCATTERBUG.

Naciśnij spację by rozpocząć zadanie",target5,stimuli/t5.jpg,29,17,stimuli/filler13.jpg,filler,False,None,,,,,,,,,,,,,,0,0,0,0,,,,,0,0,0,4,0,16,16,16,,,,,,,,,,,,,,,,,,,,,,,,,,,,,,,,,,,,,,,,,,,,,,,,,,,,,CS1_USpos,None,1,,,,,,,,,,,,,,,,,,25,m,29,n,2019_Dec_08_1015,ec_RRR,3.0.4,59.95398184157797,
Balas and Sarzynnska,"Dla tego zadania, docelową postacią jest Scatterbug:","Więc gdy tylko Scatterbug (jego imię lub jego podobizna) pojawi się na ekranie, naciśnij spację tak szybko jak to możliwe. Uderz w spację gdy tylko zobaczysz podobiznę Scatterbuga lub słowo SCATTERBUG.

Naciśnij spację by rozpocząć zadanie",target5,stimuli/t5.jpg,29,18,stimuli/filler34.jpg,filler,False,None,,,,,,,,,,,,,,0,0,0,0,,,,,0,0,0,4,0,17,17,17,,,,,,,,,,,,,,,,,,,,,,,,,,,,,,,,,,,,,,,,,,,,,,,,,,,,,CS1_USpos,None,1,,,,,,,,,,,,,,,,,,25,m,29,n,2019_Dec_08_1015,ec_RRR,3.0.4,59.95398184157797,
Balas and Sarzynnska,"Dla tego zadania, docelową postacią jest Scatterbug:","Więc gdy tylko Scatterbug (jego imię lub jego podobizna) pojawi się na ekranie, naciśnij spację tak szybko jak to możliwe. Uderz w spację gdy tylko zobaczysz podobiznę Scatterbuga lub słowo SCATTERBUG.

Naciśnij spację by rozpocząć zadanie",target5,stimuli/t5.jpg,29,19,stimuli/filler41.jpg,filler,False,None,,,,,,,,,,,,,,0,0,0,0,,,,,0,0,0,4,0,18,18,18,,,,,,,,,,,,,,,,,,,,,,,,,,,,,,,,,,,,,,,,,,,,,,,,,,,,,CS1_USpos,None,1,,,,,,,,,,,,,,,,,,25,m,29,n,2019_Dec_08_1015,ec_RRR,3.0.4,59.95398184157797,
Balas and Sarzynnska,"Dla tego zadania, docelową postacią jest Scatterbug:","Więc gdy tylko Scatterbug (jego imię lub jego podobizna) pojawi się na ekranie, naciśnij spację tak szybko jak to możliwe. Uderz w spację gdy tylko zobaczysz podobiznę Scatterbuga lub słowo SCATTERBUG.

Naciśnij spację by rozpocząć zadanie",target5,stimuli/t5.jpg,29,20,stimuli/blank.jpg,blank,False,None,,,,,,,,,,,,,,0,0,0,0,,,,,0,0,0,4,0,19,19,19,,,,,,,,,,,,,,,,,,,,,,,,,,,,,,,,,,,,,,,,,,,,,,,,,,,,,CS1_USpos,None,1,,,,,,,,,,,,,,,,,,25,m,29,n,2019_Dec_08_1015,ec_RRR,3.0.4,59.95398184157797,
Balas and Sarzynnska,"Dla tego zadania, docelową postacią jest Scatterbug:","Więc gdy tylko Scatterbug (jego imię lub jego podobizna) pojawi się na ekranie, naciśnij spację tak szybko jak to możliwe. Uderz w spację gdy tylko zobaczysz podobiznę Scatterbuga lub słowo SCATTERBUG.

Naciśnij spację by rozpocząć zadanie",target5,stimuli/t5.jpg,29,21,stimuli/cs2_neg5.jpg,CSUS,False,None,,,,,,,,,,,,,,0,0,0,0,,,,,0,0,0,4,0,20,20,20,,,,,,,,,,,,,,,,,,,,,,,,,,,,,,,,,,,,,,,,,,,,,,,,,,,,,CS1_USpos,None,1,,,,,,,,,,,,,,,,,,25,m,29,n,2019_Dec_08_1015,ec_RRR,3.0.4,59.95398184157797,
Balas and Sarzynnska,"Dla tego zadania, docelową postacią jest Scatterbug:","Więc gdy tylko Scatterbug (jego imię lub jego podobizna) pojawi się na ekranie, naciśnij spację tak szybko jak to możliwe. Uderz w spację gdy tylko zobaczysz podobiznę Scatterbuga lub słowo SCATTERBUG.

Naciśnij spację by rozpocząć zadanie",target5,stimuli/t5.jpg,29,22,stimuli/blank.jpg,blank,False,None,,,,,,,,,,,,,,0,0,0,0,,,,,0,0,0,4,0,21,21,21,,,,,,,,,,,,,,,,,,,,,,,,,,,,,,,,,,,,,,,,,,,,,,,,,,,,,CS1_USpos,None,1,,,,,,,,,,,,,,,,,,25,m,29,n,2019_Dec_08_1015,ec_RRR,3.0.4,59.95398184157797,
Balas and Sarzynnska,"Dla tego zadania, docelową postacią jest Scatterbug:","Więc gdy tylko Scatterbug (jego imię lub jego podobizna) pojawi się na ekranie, naciśnij spację tak szybko jak to możliwe. Uderz w spację gdy tylko zobaczysz podobiznę Scatterbuga lub słowo SCATTERBUG.

Naciśnij spację by rozpocząć zadanie",target5,stimuli/t5.jpg,29,23,stimuli/target5_7.jpg,target,True,space,,,,,,,,,,,,,,0,0,0,0,,,,,0,0,0,4,0,22,22,22,,,,,,,,,,,,,,,,,,,,,,,,,,,,,,,,,,,,,,,,,,,,,,,,,,,,,CS1_USpos,space,1,0.6838686529999904,,,,,,,,,,,,,,,,,25,m,29,n,2019_Dec_08_1015,ec_RRR,3.0.4,59.95398184157797,
Balas and Sarzynnska,"Dla tego zadania, docelową postacią jest Scatterbug:","Więc gdy tylko Scatterbug (jego imię lub jego podobizna) pojawi się na ekranie, naciśnij spację tak szybko jak to możliwe. Uderz w spację gdy tylko zobaczysz podobiznę Scatterbuga lub słowo SCATTERBUG.

Naciśnij spację by rozpocząć zadanie",target5,stimuli/t5.jpg,29,24,stimuli/filler51.jpg,filler,False,None,,,,,,,,,,,,,,0,0,0,0,,,,,0,0,0,4,0,23,23,23,,,,,,,,,,,,,,,,,,,,,,,,,,,,,,,,,,,,,,,,,,,,,,,,,,,,,CS1_USpos,space,0,1.4181226159998914,,,,,,,,,,,,,,,,,25,m,29,n,2019_Dec_08_1015,ec_RRR,3.0.4,59.95398184157797,
Balas and Sarzynnska,"Dla tego zadania, docelową postacią jest Scatterbug:","Więc gdy tylko Scatterbug (jego imię lub jego podobizna) pojawi się na ekranie, naciśnij spację tak szybko jak to możliwe. Uderz w spację gdy tylko zobaczysz podobiznę Scatterbuga lub słowo SCATTERBUG.

Naciśnij spację by rozpocząć zadanie",target5,stimuli/t5.jpg,29,25,stimuli/target5_10.jpg,target,True,space,,,,,,,,,,,,,,0,0,0,0,,,,,0,0,0,4,0,24,24,24,,,,,,,,,,,,,,,,,,,,,,,,,,,,,,,,,,,,,,,,,,,,,,,,,,,,,CS1_USpos,space,1,0.7000806300000022,,,,,,,,,,,,,,,,,25,m,29,n,2019_Dec_08_1015,ec_RRR,3.0.4,59.95398184157797,
Balas and Sarzynnska,"Dla tego zadania, docelową postacią jest Scatterbug:","Więc gdy tylko Scatterbug (jego imię lub jego podobizna) pojawi się na ekranie, naciśnij spację tak szybko jak to możliwe. Uderz w spację gdy tylko zobaczysz podobiznę Scatterbuga lub słowo SCATTERBUG.

Naciśnij spację by rozpocząć zadanie",target5,stimuli/t5.jpg,29,26,stimuli/filler2.jpg,filler,False,None,,,,,,,,,,,,,,0,0,0,0,,,,,0,0,0,4,0,25,25,25,,,,,,,,,,,,,,,,,,,,,,,,,,,,,,,,,,,,,,,,,,,,,,,,,,,,,CS1_USpos,None,1,,,,,,,,,,,,,,,,,,25,m,29,n,2019_Dec_08_1015,ec_RRR,3.0.4,59.95398184157797,
Balas and Sarzynnska,"Dla tego zadania, docelową postacią jest Scatterbug:","Więc gdy tylko Scatterbug (jego imię lub jego podobizna) pojawi się na ekranie, naciśnij spację tak szybko jak to możliwe. Uderz w spację gdy tylko zobaczysz podobiznę Scatterbuga lub słowo SCATTERBUG.

Naciśnij spację by rozpocząć zadanie",target5,stimuli/t5.jpg,29,27,stimuli/filler10.jpg,filler,False,None,,,,,,,,,,,,,,0,0,0,0,,,,,0,0,0,4,0,26,26,26,,,,,,,,,,,,,,,,,,,,,,,,,,,,,,,,,,,,,,,,,,,,,,,,,,,,,CS1_USpos,None,1,,,,,,,,,,,,,,,,,,25,m,29,n,2019_Dec_08_1015,ec_RRR,3.0.4,59.95398184157797,
Balas and Sarzynnska,"Dla tego zadania, docelową postacią jest Scatterbug:","Więc gdy tylko Scatterbug (jego imię lub jego podobizna) pojawi się na ekranie, naciśnij spację tak szybko jak to możliwe. Uderz w spację gdy tylko zobaczysz podobiznę Scatterbuga lub słowo SCATTERBUG.

Naciśnij spację by rozpocząć zadanie",target5,stimuli/t5.jpg,29,28,stimuli/filler39.jpg,filler,False,None,,,,,,,,,,,,,,0,0,0,0,,,,,0,0,0,4,0,27,27,27,,,,,,,,,,,,,,,,,,,,,,,,,,,,,,,,,,,,,,,,,,,,,,,,,,,,,CS1_USpos,None,1,,,,,,,,,,,,,,,,,,25,m,29,n,2019_Dec_08_1015,ec_RRR,3.0.4,59.95398184157797,
Balas and Sarzynnska,"Dla tego zadania, docelową postacią jest Scatterbug:","Więc gdy tylko Scatterbug (jego imię lub jego podobizna) pojawi się na ekranie, naciśnij spację tak szybko jak to możliwe. Uderz w spację gdy tylko zobaczysz podobiznę Scatterbuga lub słowo SCATTERBUG.

Naciśnij spację by rozpocząć zadanie",target5,stimuli/t5.jpg,29,29,stimuli/target5_9.jpg,target,True,space,,,,,,,,,,,,,,0,0,0,0,,,,,0,0,0,4,0,28,28,28,,,,,,,,,,,,,,,,,,,,,,,,,,,,,,,,,,,,,,,,,,,,,,,,,,,,,CS1_USpos,space,1,0.7345570929999212,,,,,,,,,,,,,,,,,25,m,29,n,2019_Dec_08_1015,ec_RRR,3.0.4,59.95398184157797,
Balas and Sarzynnska,"Dla tego zadania, docelową postacią jest Scatterbug:","Więc gdy tylko Scatterbug (jego imię lub jego podobizna) pojawi się na ekranie, naciśnij spację tak szybko jak to możliwe. Uderz w spację gdy tylko zobaczysz podobiznę Scatterbuga lub słowo SCATTERBUG.

Naciśnij spację by rozpocząć zadanie",target5,stimuli/t5.jpg,29,30,stimuli/blank.jpg,blank,False,None,,,,,,,,,,,,,,0,0,0,0,,,,,0,0,0,4,0,29,29,29,,,,,,,,,,,,,,,,,,,,,,,,,,,,,,,,,,,,,,,,,,,,,,,,,,,,,CS1_USpos,None,1,,,,,,,,,,,,,,,,,,25,m,29,n,2019_Dec_08_1015,ec_RRR,3.0.4,59.95398184157797,
Balas and Sarzynnska,"Dla tego zadania, docelową postacią jest Scatterbug:","Więc gdy tylko Scatterbug (jego imię lub jego podobizna) pojawi się na ekranie, naciśnij spację tak szybko jak to możliwe. Uderz w spację gdy tylko zobaczysz podobiznę Scatterbuga lub słowo SCATTERBUG.

Naciśnij spację by rozpocząć zadanie",target5,stimuli/t5.jpg,29,31,stimuli/cs1_pos9.jpg,CSUS,False,None,,,,,,,,,,,,,,0,0,0,0,,,,,0,0,0,4,0,30,30,30,,,,,,,,,,,,,,,,,,,,,,,,,,,,,,,,,,,,,,,,,,,,,,,,,,,,,CS1_USpos,None,1,,,,,,,,,,,,,,,,,,25,m,29,n,2019_Dec_08_1015,ec_RRR,3.0.4,59.95398184157797,
Balas and Sarzynnska,"Dla tego zadania, docelową postacią jest Scatterbug:","Więc gdy tylko Scatterbug (jego imię lub jego podobizna) pojawi się na ekranie, naciśnij spację tak szybko jak to możliwe. Uderz w spację gdy tylko zobaczysz podobiznę Scatterbuga lub słowo SCATTERBUG.

Naciśnij spację by rozpocząć zadanie",target5,stimuli/t5.jpg,29,32,stimuli/blank.jpg,blank,False,None,,,,,,,,,,,,,,0,0,0,0,,,,,0,0,0,4,0,31,31,31,,,,,,,,,,,,,,,,,,,,,,,,,,,,,,,,,,,,,,,,,,,,,,,,,,,,,CS1_USpos,None,1,,,,,,,,,,,,,,,,,,25,m,29,n,2019_Dec_08_1015,ec_RRR,3.0.4,59.95398184157797,
Balas and Sarzynnska,"Dla tego zadania, docelową postacią jest Scatterbug:","Więc gdy tylko Scatterbug (jego imię lub jego podobizna) pojawi się na ekranie, naciśnij spację tak szybko jak to możliwe. Uderz w spację gdy tylko zobaczysz podobiznę Scatterbuga lub słowo SCATTERBUG.

Naciśnij spację by rozpocząć zadanie",target5,stimuli/t5.jpg,29,33,stimuli/filler32.jpg,filler,False,None,,,,,,,,,,,,,,0,0,0,0,,,,,0,0,0,4,0,32,32,32,,,,,,,,,,,,,,,,,,,,,,,,,,,,,,,,,,,,,,,,,,,,,,,,,,,,,CS1_USpos,None,1,,,,,,,,,,,,,,,,,,25,m,29,n,2019_Dec_08_1015,ec_RRR,3.0.4,59.95398184157797,
Balas and Sarzynnska,"Dla tego zadania, docelową postacią jest Scatterbug:","Więc gdy tylko Scatterbug (jego imię lub jego podobizna) pojawi się na ekranie, naciśnij spację tak szybko jak to możliwe. Uderz w spację gdy tylko zobaczysz podobiznę Scatterbuga lub słowo SCATTERBUG.

Naciśnij spację by rozpocząć zadanie",target5,stimuli/t5.jpg,29,34,stimuli/filler47.jpg,filler,False,None,,,,,,,,,,,,,,0,0,0,0,,,,,0,0,0,4,0,33,33,33,,,,,,,,,,,,,,,,,,,,,,,,,,,,,,,,,,,,,,,,,,,,,,,,,,,,,CS1_USpos,None,1,,,,,,,,,,,,,,,,,,25,m,29,n,2019_Dec_08_1015,ec_RRR,3.0.4,59.95398184157797,
Balas and Sarzynnska,"Dla tego zadania, docelową postacią jest Scatterbug:","Więc gdy tylko Scatterbug (jego imię lub jego podobizna) pojawi się na ekranie, naciśnij spację tak szybko jak to możliwe. Uderz w spację gdy tylko zobaczysz podobiznę Scatterbuga lub słowo SCATTERBUG.

Naciśnij spację by rozpocząć zadanie",target5,stimuli/t5.jpg,29,35,stimuli/filler31.jpg,filler,False,None,,,,,,,,,,,,,,0,0,0,0,,,,,0,0,0,4,0,34,34,34,,,,,,,,,,,,,,,,,,,,,,,,,,,,,,,,,,,,,,,,,,,,,,,,,,,,,CS1_USpos,None,1,,,,,,,,,,,,,,,,,,25,m,29,n,2019_Dec_08_1015,ec_RRR,3.0.4,59.95398184157797,
Balas and Sarzynnska,"Dla tego zadania, docelową postacią jest Scatterbug:","Więc gdy tylko Scatterbug (jego imię lub jego podobizna) pojawi się na ekranie, naciśnij spację tak szybko jak to możliwe. Uderz w spację gdy tylko zobaczysz podobiznę Scatterbuga lub słowo SCATTERBUG.

Naciśnij spację by rozpocząć zadanie",target5,stimuli/t5.jpg,29,36,stimuli/filler45.jpg,filler,False,None,,,,,,,,,,,,,,0,0,0,0,,,,,0,0,0,4,0,35,35,35,,,,,,,,,,,,,,,,,,,,,,,,,,,,,,,,,,,,,,,,,,,,,,,,,,,,,CS1_USpos,None,1,,,,,,,,,,,,,,,,,,25,m,29,n,2019_Dec_08_1015,ec_RRR,3.0.4,59.95398184157797,
Balas and Sarzynnska,"Dla tego zadania, docelową postacią jest Scatterbug:","Więc gdy tylko Scatterbug (jego imię lub jego podobizna) pojawi się na ekranie, naciśnij spację tak szybko jak to możliwe. Uderz w spację gdy tylko zobaczysz podobiznę Scatterbuga lub słowo SCATTERBUG.

Naciśnij spację by rozpocząć zadanie",target5,stimuli/t5.jpg,29,37,stimuli/filler15.jpg,filler,False,None,,,,,,,,,,,,,,0,0,0,0,,,,,0,0,0,4,0,36,36,36,,,,,,,,,,,,,,,,,,,,,,,,,,,,,,,,,,,,,,,,,,,,,,,,,,,,,CS1_USpos,None,1,,,,,,,,,,,,,,,,,,25,m,29,n,2019_Dec_08_1015,ec_RRR,3.0.4,59.95398184157797,
Balas and Sarzynnska,"Dla tego zadania, docelową postacią jest Scatterbug:","Więc gdy tylko Scatterbug (jego imię lub jego podobizna) pojawi się na ekranie, naciśnij spację tak szybko jak to możliwe. Uderz w spację gdy tylko zobaczysz podobiznę Scatterbuga lub słowo SCATTERBUG.

Naciśnij spację by rozpocząć zadanie",target5,stimuli/t5.jpg,29,38,stimuli/filler18.jpg,filler,False,None,,,,,,,,,,,,,,0,0,0,0,,,,,0,0,0,4,0,37,37,37,,,,,,,,,,,,,,,,,,,,,,,,,,,,,,,,,,,,,,,,,,,,,,,,,,,,,CS1_USpos,None,1,,,,,,,,,,,,,,,,,,25,m,29,n,2019_Dec_08_1015,ec_RRR,3.0.4,59.95398184157797,
Balas and Sarzynnska,"Dla tego zadania, docelową postacią jest Scatterbug:","Więc gdy tylko Scatterbug (jego imię lub jego podobizna) pojawi się na ekranie, naciśnij spację tak szybko jak to możliwe. Uderz w spację gdy tylko zobaczysz podobiznę Scatterbuga lub słowo SCATTERBUG.

Naciśnij spację by rozpocząć zadanie",target5,stimuli/t5.jpg,29,39,stimuli/target5_6.jpg,target,True,space,,,,,,,,,,,,,,0,0,0,0,,,,,0,0,0,4,0,38,38,38,,,,,,,,,,,,,,,,,,,,,,,,,,,,,,,,,,,,,,,,,,,,,,,,,,,,,CS1_USpos,space,1,0.7017926130001797,,,,,,,,,,,,,,,,,25,m,29,n,2019_Dec_08_1015,ec_RRR,3.0.4,59.95398184157797,
Balas and Sarzynnska,"Dla tego zadania, docelową postacią jest Scatterbug:","Więc gdy tylko Scatterbug (jego imię lub jego podobizna) pojawi się na ekranie, naciśnij spację tak szybko jak to możliwe. Uderz w spację gdy tylko zobaczysz podobiznę Scatterbuga lub słowo SCATTERBUG.

Naciśnij spację by rozpocząć zadanie",target5,stimuli/t5.jpg,29,40,stimuli/blank.jpg,blank,False,None,,,,,,,,,,,,,,0,0,0,0,,,,,0,0,0,4,0,39,39,39,,,,,,,,,,,,,,,,,,,,,,,,,,,,,,,,,,,,,,,,,,,,,,,,,,,,,CS1_USpos,None,1,,,,,,,,,,,,,,,,,,25,m,29,n,2019_Dec_08_1015,ec_RRR,3.0.4,59.95398184157797,
Balas and Sarzynnska,"Dla tego zadania, docelową postacią jest Scatterbug:","Więc gdy tylko Scatterbug (jego imię lub jego podobizna) pojawi się na ekranie, naciśnij spację tak szybko jak to możliwe. Uderz w spację gdy tylko zobaczysz podobiznę Scatterbuga lub słowo SCATTERBUG.

Naciśnij spację by rozpocząć zadanie",target5,stimuli/t5.jpg,29,41,stimuli/cs2_neg12.jpg,CSUS,False,None,,,,,,,,,,,,,,0,0,0,0,,,,,0,0,0,4,0,40,40,40,,,,,,,,,,,,,,,,,,,,,,,,,,,,,,,,,,,,,,,,,,,,,,,,,,,,,CS1_USpos,None,1,,,,,,,,,,,,,,,,,,25,m,29,n,2019_Dec_08_1015,ec_RRR,3.0.4,59.95398184157797,
Balas and Sarzynnska,"Dla tego zadania, docelową postacią jest Scatterbug:","Więc gdy tylko Scatterbug (jego imię lub jego podobizna) pojawi się na ekranie, naciśnij spację tak szybko jak to możliwe. Uderz w spację gdy tylko zobaczysz podobiznę Scatterbuga lub słowo SCATTERBUG.

Naciśnij spację by rozpocząć zadanie",target5,stimuli/t5.jpg,29,42,stimuli/blank.jpg,blank,False,None,,,,,,,,,,,,,,0,0,0,0,,,,,0,0,0,4,0,41,41,41,,,,,,,,,,,,,,,,,,,,,,,,,,,,,,,,,,,,,,,,,,,,,,,,,,,,,CS1_USpos,None,1,,,,,,,,,,,,,,,,,,25,m,29,n,2019_Dec_08_1015,ec_RRR,3.0.4,59.95398184157797,
Balas and Sarzynnska,"Dla tego zadania, docelową postacią jest Scatterbug:","Więc gdy tylko Scatterbug (jego imię lub jego podobizna) pojawi się na ekranie, naciśnij spację tak szybko jak to możliwe. Uderz w spację gdy tylko zobaczysz podobiznę Scatterbuga lub słowo SCATTERBUG.

Naciśnij spację by rozpocząć zadanie",target5,stimuli/t5.jpg,29,43,stimuli/filler29.jpg,filler,False,None,,,,,,,,,,,,,,0,0,0,0,,,,,0,0,0,4,0,42,42,42,,,,,,,,,,,,,,,,,,,,,,,,,,,,,,,,,,,,,,,,,,,,,,,,,,,,,CS1_USpos,None,1,,,,,,,,,,,,,,,,,,25,m,29,n,2019_Dec_08_1015,ec_RRR,3.0.4,59.95398184157797,
Balas and Sarzynnska,"Dla tego zadania, docelową postacią jest Scatterbug:","Więc gdy tylko Scatterbug (jego imię lub jego podobizna) pojawi się na ekranie, naciśnij spację tak szybko jak to możliwe. Uderz w spację gdy tylko zobaczysz podobiznę Scatterbuga lub słowo SCATTERBUG.

Naciśnij spację by rozpocząć zadanie",target5,stimuli/t5.jpg,29,44,stimuli/filler1.jpg,filler,False,None,,,,,,,,,,,,,,0,0,0,0,,,,,0,0,0,4,0,43,43,43,,,,,,,,,,,,,,,,,,,,,,,,,,,,,,,,,,,,,,,,,,,,,,,,,,,,,CS1_USpos,None,1,,,,,,,,,,,,,,,,,,25,m,29,n,2019_Dec_08_1015,ec_RRR,3.0.4,59.95398184157797,
Balas and Sarzynnska,"Dla tego zadania, docelową postacią jest Scatterbug:","Więc gdy tylko Scatterbug (jego imię lub jego podobizna) pojawi się na ekranie, naciśnij spację tak szybko jak to możliwe. Uderz w spację gdy tylko zobaczysz podobiznę Scatterbuga lub słowo SCATTERBUG.

Naciśnij spację by rozpocząć zadanie",target5,stimuli/t5.jpg,29,45,stimuli/filler4.jpg,filler,False,None,,,,,,,,,,,,,,0,0,0,0,,,,,0,0,0,4,0,44,44,44,,,,,,,,,,,,,,,,,,,,,,,,,,,,,,,,,,,,,,,,,,,,,,,,,,,,,CS1_USpos,None,1,,,,,,,,,,,,,,,,,,25,m,29,n,2019_Dec_08_1015,ec_RRR,3.0.4,59.95398184157797,
Balas and Sarzynnska,"Dla tego zadania, docelową postacią jest Scatterbug:","Więc gdy tylko Scatterbug (jego imię lub jego podobizna) pojawi się na ekranie, naciśnij spację tak szybko jak to możliwe. Uderz w spację gdy tylko zobaczysz podobiznę Scatterbuga lub słowo SCATTERBUG.

Naciśnij spację by rozpocząć zadanie",target5,stimuli/t5.jpg,29,46,stimuli/filler20.jpg,filler,False,None,,,,,,,,,,,,,,0,0,0,0,,,,,0,0,0,4,0,45,45,45,,,,,,,,,,,,,,,,,,,,,,,,,,,,,,,,,,,,,,,,,,,,,,,,,,,,,CS1_USpos,None,1,,,,,,,,,,,,,,,,,,25,m,29,n,2019_Dec_08_1015,ec_RRR,3.0.4,59.95398184157797,
Balas and Sarzynnska,"Dla tego zadania, docelową postacią jest Scatterbug:","Więc gdy tylko Scatterbug (jego imię lub jego podobizna) pojawi się na ekranie, naciśnij spację tak szybko jak to możliwe. Uderz w spację gdy tylko zobaczysz podobiznę Scatterbuga lub słowo SCATTERBUG.

Naciśnij spację by rozpocząć zadanie",target5,stimuli/t5.jpg,29,47,stimuli/filler8.jpg,filler,False,None,,,,,,,,,,,,,,0,0,0,0,,,,,0,0,0,4,0,46,46,46,,,,,,,,,,,,,,,,,,,,,,,,,,,,,,,,,,,,,,,,,,,,,,,,,,,,,CS1_USpos,None,1,,,,,,,,,,,,,,,,,,25,m,29,n,2019_Dec_08_1015,ec_RRR,3.0.4,59.95398184157797,
Balas and Sarzynnska,"Dla tego zadania, docelową postacią jest Scatterbug:","Więc gdy tylko Scatterbug (jego imię lub jego podobizna) pojawi się na ekranie, naciśnij spację tak szybko jak to możliwe. Uderz w spację gdy tylko zobaczysz podobiznę Scatterbuga lub słowo SCATTERBUG.

Naciśnij spację by rozpocząć zadanie",target5,stimuli/t5.jpg,29,48,stimuli/filler33.jpg,filler,False,None,,,,,,,,,,,,,,0,0,0,0,,,,,0,0,0,4,0,47,47,47,,,,,,,,,,,,,,,,,,,,,,,,,,,,,,,,,,,,,,,,,,,,,,,,,,,,,CS1_USpos,None,1,,,,,,,,,,,,,,,,,,25,m,29,n,2019_Dec_08_1015,ec_RRR,3.0.4,59.95398184157797,
Balas and Sarzynnska,"Dla tego zadania, docelową postacią jest Scatterbug:","Więc gdy tylko Scatterbug (jego imię lub jego podobizna) pojawi się na ekranie, naciśnij spację tak szybko jak to możliwe. Uderz w spację gdy tylko zobaczysz podobiznę Scatterbuga lub słowo SCATTERBUG.

Naciśnij spację by rozpocząć zadanie",target5,stimuli/t5.jpg,29,49,stimuli/filler9.jpg,filler,False,None,,,,,,,,,,,,,,0,0,0,0,,,,,0,0,0,4,0,48,48,48,,,,,,,,,,,,,,,,,,,,,,,,,,,,,,,,,,,,,,,,,,,,,,,,,,,,,CS1_USpos,None,1,,,,,,,,,,,,,,,,,,25,m,29,n,2019_Dec_08_1015,ec_RRR,3.0.4,59.95398184157797,
Balas and Sarzynnska,"Dla tego zadania, docelową postacią jest Scatterbug:","Więc gdy tylko Scatterbug (jego imię lub jego podobizna) pojawi się na ekranie, naciśnij spację tak szybko jak to możliwe. Uderz w spację gdy tylko zobaczysz podobiznę Scatterbuga lub słowo SCATTERBUG.

Naciśnij spację by rozpocząć zadanie",target5,stimuli/t5.jpg,29,50,stimuli/blank.jpg,blank,False,None,,,,,,,,,,,,,,0,0,0,0,,,,,0,0,0,4,0,49,49,49,,,,,,,,,,,,,,,,,,,,,,,,,,,,,,,,,,,,,,,,,,,,,,,,,,,,,CS1_USpos,None,1,,,,,,,,,,,,,,,,,,25,m,29,n,2019_Dec_08_1015,ec_RRR,3.0.4,59.95398184157797,
Balas and Sarzynnska,"Dla tego zadania, docelową postacią jest Scatterbug:","Więc gdy tylko Scatterbug (jego imię lub jego podobizna) pojawi się na ekranie, naciśnij spację tak szybko jak to możliwe. Uderz w spację gdy tylko zobaczysz podobiznę Scatterbuga lub słowo SCATTERBUG.

Naciśnij spację by rozpocząć zadanie",target5,stimuli/t5.jpg,29,51,stimuli/cs1_pos15.jpg,CSUS,False,None,,,,,,,,,,,,,,0,0,0,0,,,,,0,0,0,4,0,50,50,50,,,,,,,,,,,,,,,,,,,,,,,,,,,,,,,,,,,,,,,,,,,,,,,,,,,,,CS1_USpos,None,1,,,,,,,,,,,,,,,,,,25,m,29,n,2019_Dec_08_1015,ec_RRR,3.0.4,59.95398184157797,
Balas and Sarzynnska,"Dla tego zadania, docelową postacią jest Scatterbug:","Więc gdy tylko Scatterbug (jego imię lub jego podobizna) pojawi się na ekranie, naciśnij spację tak szybko jak to możliwe. Uderz w spację gdy tylko zobaczysz podobiznę Scatterbuga lub słowo SCATTERBUG.

Naciśnij spację by rozpocząć zadanie",target5,stimuli/t5.jpg,29,52,stimuli/blank.jpg,blank,False,None,,,,,,,,,,,,,,0,0,0,0,,,,,0,0,0,4,0,51,51,51,,,,,,,,,,,,,,,,,,,,,,,,,,,,,,,,,,,,,,,,,,,,,,,,,,,,,CS1_USpos,None,1,,,,,,,,,,,,,,,,,,25,m,29,n,2019_Dec_08_1015,ec_RRR,3.0.4,59.95398184157797,
Balas and Sarzynnska,"Dla tego zadania, docelową postacią jest Scatterbug:","Więc gdy tylko Scatterbug (jego imię lub jego podobizna) pojawi się na ekranie, naciśnij spację tak szybko jak to możliwe. Uderz w spację gdy tylko zobaczysz podobiznę Scatterbuga lub słowo SCATTERBUG.

Naciśnij spację by rozpocząć zadanie",target5,stimuli/t5.jpg,29,53,stimuli/target5_4.jpg,target,True,space,,,,,,,,,,,,,,0,0,0,0,,,,,0,0,0,4,0,52,52,52,,,,,,,,,,,,,,,,,,,,,,,,,,,,,,,,,,,,,,,,,,,,,,,,,,,,,CS1_USpos,space,1,0.6009726239999509,,,,,,,,,,,,,,,,,25,m,29,n,2019_Dec_08_1015,ec_RRR,3.0.4,59.95398184157797,
Balas and Sarzynnska,"Dla tego zadania, docelową postacią jest Scatterbug:","Więc gdy tylko Scatterbug (jego imię lub jego podobizna) pojawi się na ekranie, naciśnij spację tak szybko jak to możliwe. Uderz w spację gdy tylko zobaczysz podobiznę Scatterbuga lub słowo SCATTERBUG.

Naciśnij spację by rozpocząć zadanie",target5,stimuli/t5.jpg,29,54,stimuli/filler49.jpg,filler,False,None,,,,,,,,,,,,,,0,0,0,0,,,,,0,0,0,4,0,53,53,53,,,,,,,,,,,,,,,,,,,,,,,,,,,,,,,,,,,,,,,,,,,,,,,,,,,,,CS1_USpos,None,1,,,,,,,,,,,,,,,,,,25,m,29,n,2019_Dec_08_1015,ec_RRR,3.0.4,59.95398184157797,
Balas and Sarzynnska,"Dla tego zadania, docelową postacią jest Scatterbug:","Więc gdy tylko Scatterbug (jego imię lub jego podobizna) pojawi się na ekranie, naciśnij spację tak szybko jak to możliwe. Uderz w spację gdy tylko zobaczysz podobiznę Scatterbuga lub słowo SCATTERBUG.

Naciśnij spację by rozpocząć zadanie",target5,stimuli/t5.jpg,29,55,stimuli/target5_3.jpg,target,True,space,,,,,,,,,,,,,,0,0,0,0,,,,,0,0,0,4,0,54,54,54,,,,,,,,,,,,,,,,,,,,,,,,,,,,,,,,,,,,,,,,,,,,,,,,,,,,,CS1_USpos,space,1,0.7175456949998988,,,,,,,,,,,,,,,,,25,m,29,n,2019_Dec_08_1015,ec_RRR,3.0.4,59.95398184157797,
Balas and Sarzynnska,"Dla tego zadania, docelową postacią jest Scatterbug:","Więc gdy tylko Scatterbug (jego imię lub jego podobizna) pojawi się na ekranie, naciśnij spację tak szybko jak to możliwe. Uderz w spację gdy tylko zobaczysz podobiznę Scatterbuga lub słowo SCATTERBUG.

Naciśnij spację by rozpocząć zadanie",target5,stimuli/t5.jpg,29,56,stimuli/filler43.jpg,filler,False,None,,,,,,,,,,,,,,0,0,0,0,,,,,0,0,0,4,0,55,55,55,,,,,,,,,,,,,,,,,,,,,,,,,,,,,,,,,,,,,,,,,,,,,,,,,,,,,CS1_USpos,None,1,,,,,,,,,,,,,,,,,,25,m,29,n,2019_Dec_08_1015,ec_RRR,3.0.4,59.95398184157797,
Balas and Sarzynnska,"Dla tego zadania, docelową postacią jest Scatterbug:","Więc gdy tylko Scatterbug (jego imię lub jego podobizna) pojawi się na ekranie, naciśnij spację tak szybko jak to możliwe. Uderz w spację gdy tylko zobaczysz podobiznę Scatterbuga lub słowo SCATTERBUG.

Naciśnij spację by rozpocząć zadanie",target5,stimuli/t5.jpg,29,57,stimuli/target5_1.jpg,target,True,space,,,,,,,,,,,,,,0,0,0,0,,,,,0,0,0,4,0,56,56,56,,,,,,,,,,,,,,,,,,,,,,,,,,,,,,,,,,,,,,,,,,,,,,,,,,,,,CS1_USpos,space,1,0.8687574349999068,,,,,,,,,,,,,,,,,25,m,29,n,2019_Dec_08_1015,ec_RRR,3.0.4,59.95398184157797,
Balas and Sarzynnska,"Dla tego zadania, docelową postacią jest Scatterbug:","Więc gdy tylko Scatterbug (jego imię lub jego podobizna) pojawi się na ekranie, naciśnij spację tak szybko jak to możliwe. Uderz w spację gdy tylko zobaczysz podobiznę Scatterbuga lub słowo SCATTERBUG.

Naciśnij spację by rozpocząć zadanie",target5,stimuli/t5.jpg,29,58,stimuli/filler42.jpg,filler,False,None,,,,,,,,,,,,,,0,0,0,0,,,,,0,0,0,4,0,57,57,57,,,,,,,,,,,,,,,,,,,,,,,,,,,,,,,,,,,,,,,,,,,,,,,,,,,,,CS1_USpos,None,1,,,,,,,,,,,,,,,,,,25,m,29,n,2019_Dec_08_1015,ec_RRR,3.0.4,59.95398184157797,
Balas and Sarzynnska,"Dla tego zadania, docelową postacią jest Scatterbug:","Więc gdy tylko Scatterbug (jego imię lub jego podobizna) pojawi się na ekranie, naciśnij spację tak szybko jak to możliwe. Uderz w spację gdy tylko zobaczysz podobiznę Scatterbuga lub słowo SCATTERBUG.

Naciśnij spację by rozpocząć zadanie",target5,stimuli/t5.jpg,29,59,stimuli/filler52.jpg,filler,False,None,,,,,,,,,,,,,,0,0,0,0,,,,,0,0,0,4,0,58,58,58,,,,,,,,,,,,,,,,,,,,,,,,,,,,,,,,,,,,,,,,,,,,,,,,,,,,,CS1_USpos,None,1,,,,,,,,,,,,,,,,,,25,m,29,n,2019_Dec_08_1015,ec_RRR,3.0.4,59.95398184157797,
Balas and Sarzynnska,"Dla tego zadania, docelową postacią jest Scatterbug:","Więc gdy tylko Scatterbug (jego imię lub jego podobizna) pojawi się na ekranie, naciśnij spację tak szybko jak to możliwe. Uderz w spację gdy tylko zobaczysz podobiznę Scatterbuga lub słowo SCATTERBUG.

Naciśnij spację by rozpocząć zadanie",target5,stimuli/t5.jpg,29,60,stimuli/blank.jpg,blank,False,None,,,,,,,,,,,,,,0,0,0,0,,,,,0,0,0,4,0,59,59,59,,,,,,,,,,,,,,,,,,,,,,,,,,,,,,,,,,,,,,,,,,,,,,,,,,,,,CS1_USpos,None,1,,,,,,,,,,,,,,,,,,25,m,29,n,2019_Dec_08_1015,ec_RRR,3.0.4,59.95398184157797,
Balas and Sarzynnska,"Dla tego zadania, docelową postacią jest Scatterbug:","Więc gdy tylko Scatterbug (jego imię lub jego podobizna) pojawi się na ekranie, naciśnij spację tak szybko jak to możliwe. Uderz w spację gdy tylko zobaczysz podobiznę Scatterbuga lub słowo SCATTERBUG.

Naciśnij spację by rozpocząć zadanie",target5,stimuli/t5.jpg,29,61,stimuli/cs2_neg15.jpg,CSUS,False,None,,,,,,,,,,,,,,0,0,0,0,,,,,0,0,0,4,0,60,60,60,,,,,,,,,,,,,,,,,,,,,,,,,,,,,,,,,,,,,,,,,,,,,,,,,,,,,CS1_USpos,None,1,,,,,,,,,,,,,,,,,,25,m,29,n,2019_Dec_08_1015,ec_RRR,3.0.4,59.95398184157797,
Balas and Sarzynnska,"Dla tego zadania, docelową postacią jest Scatterbug:","Więc gdy tylko Scatterbug (jego imię lub jego podobizna) pojawi się na ekranie, naciśnij spację tak szybko jak to możliwe. Uderz w spację gdy tylko zobaczysz podobiznę Scatterbuga lub słowo SCATTERBUG.

Naciśnij spację by rozpocząć zadanie",target5,stimuli/t5.jpg,29,62,stimuli/blank.jpg,blank,False,None,,,,,,,,,,,,,,0,0,0,0,,,,,0,0,0,4,0,61,61,61,,,,,,,,,,,,,,,,,,,,,,,,,,,,,,,,,,,,,,,,,,,,,,,,,,,,,CS1_USpos,None,1,,,,,,,,,,,,,,,,,,25,m,29,n,2019_Dec_08_1015,ec_RRR,3.0.4,59.95398184157797,
Balas and Sarzynnska,"Dla tego zadania, docelową postacią jest Scatterbug:","Więc gdy tylko Scatterbug (jego imię lub jego podobizna) pojawi się na ekranie, naciśnij spację tak szybko jak to możliwe. Uderz w spację gdy tylko zobaczysz podobiznę Scatterbuga lub słowo SCATTERBUG.

Naciśnij spację by rozpocząć zadanie",target5,stimuli/t5.jpg,29,63,stimuli/filler36.jpg,filler,False,None,,,,,,,,,,,,,,0,0,0,0,,,,,0,0,0,4,0,62,62,62,,,,,,,,,,,,,,,,,,,,,,,,,,,,,,,,,,,,,,,,,,,,,,,,,,,,,CS1_USpos,None,1,,,,,,,,,,,,,,,,,,25,m,29,n,2019_Dec_08_1015,ec_RRR,3.0.4,59.95398184157797,
Balas and Sarzynnska,"Dla tego zadania, docelową postacią jest Scatterbug:","Więc gdy tylko Scatterbug (jego imię lub jego podobizna) pojawi się na ekranie, naciśnij spację tak szybko jak to możliwe. Uderz w spację gdy tylko zobaczysz podobiznę Scatterbuga lub słowo SCATTERBUG.

Naciśnij spację by rozpocząć zadanie",target5,stimuli/t5.jpg,29,64,stimuli/target5_2.jpg,target,True,space,,,,,,,,,,,,,,0,0,0,0,,,,,0,0,0,4,0,63,63,63,,,,,,,,,,,,,,,,,,,,,,,,,,,,,,,,,,,,,,,,,,,,,,,,,,,,,CS1_USpos,space,1,0.7497213679998822,,,,,,,,,,,,,,,,,25,m,29,n,2019_Dec_08_1015,ec_RRR,3.0.4,59.95398184157797,
Balas and Sarzynnska,"Dla tego zadania, docelową postacią jest Scatterbug:","Więc gdy tylko Scatterbug (jego imię lub jego podobizna) pojawi się na ekranie, naciśnij spację tak szybko jak to możliwe. Uderz w spację gdy tylko zobaczysz podobiznę Scatterbuga lub słowo SCATTERBUG.

Naciśnij spację by rozpocząć zadanie",target5,stimuli/t5.jpg,29,65,stimuli/filler14.jpg,filler,False,None,,,,,,,,,,,,,,0,0,0,0,,,,,0,0,0,4,0,64,64,64,,,,,,,,,,,,,,,,,,,,,,,,,,,,,,,,,,,,,,,,,,,,,,,,,,,,,CS1_USpos,None,1,,,,,,,,,,,,,,,,,,25,m,29,n,2019_Dec_08_1015,ec_RRR,3.0.4,59.95398184157797,
Balas and Sarzynnska,"Dla tego zadania, docelową postacią jest Scatterbug:","Więc gdy tylko Scatterbug (jego imię lub jego podobizna) pojawi się na ekranie, naciśnij spację tak szybko jak to możliwe. Uderz w spację gdy tylko zobaczysz podobiznę Scatterbuga lub słowo SCATTERBUG.

Naciśnij spację by rozpocząć zadanie",target5,stimuli/t5.jpg,29,66,stimuli/target5_5.jpg,target,True,space,,,,,,,,,,,,,,0,0,0,0,,,,,0,0,0,4,0,65,65,65,,,,,,,,,,,,,,,,,,,,,,,,,,,,,,,,,,,,,,,,,,,,,,,,,,,,,CS1_USpos,space,1,0.7668342050001229,,,,,,,,,,,,,,,,,25,m,29,n,2019_Dec_08_1015,ec_RRR,3.0.4,59.95398184157797,
Balas and Sarzynnska,"Dla tego zadania, docelową postacią jest Scatterbug:","Więc gdy tylko Scatterbug (jego imię lub jego podobizna) pojawi się na ekranie, naciśnij spację tak szybko jak to możliwe. Uderz w spację gdy tylko zobaczysz podobiznę Scatterbuga lub słowo SCATTERBUG.

Naciśnij spację by rozpocząć zadanie",target5,stimuli/t5.jpg,29,67,stimuli/filler46.jpg,filler,False,None,,,,,,,,,,,,,,0,0,0,0,,,,,0,0,0,4,0,66,66,66,,,,,,,,,,,,,,,,,,,,,,,,,,,,,,,,,,,,,,,,,,,,,,,,,,,,,CS1_USpos,None,1,,,,,,,,,,,,,,,,,,25,m,29,n,2019_Dec_08_1015,ec_RRR,3.0.4,59.95398184157797,
Balas and Sarzynnska,"Dla tego zadania, docelową postacią jest Scatterbug:","Więc gdy tylko Scatterbug (jego imię lub jego podobizna) pojawi się na ekranie, naciśnij spację tak szybko jak to możliwe. Uderz w spację gdy tylko zobaczysz podobiznę Scatterbuga lub słowo SCATTERBUG.

Naciśnij spację by rozpocząć zadanie",target5,stimuli/t5.jpg,29,68,stimuli/filler48.jpg,filler,False,None,,,,,,,,,,,,,,0,0,0,0,,,,,0,0,0,4,0,67,67,67,,,,,,,,,,,,,,,,,,,,,,,,,,,,,,,,,,,,,,,,,,,,,,,,,,,,,CS1_USpos,None,1,,,,,,,,,,,,,,,,,,25,m,29,n,2019_Dec_08_1015,ec_RRR,3.0.4,59.95398184157797,
Balas and Sarzynnska,"Dla tego zadania, docelową postacią jest Scatterbug:","Więc gdy tylko Scatterbug (jego imię lub jego podobizna) pojawi się na ekranie, naciśnij spację tak szybko jak to możliwe. Uderz w spację gdy tylko zobaczysz podobiznę Scatterbuga lub słowo SCATTERBUG.

Naciśnij spację by rozpocząć zadanie",target5,stimuli/t5.jpg,29,69,stimuli/filler5.jpg,filler,False,None,,,,,,,,,,,,,,0,0,0,0,,,,,0,0,0,4,0,68,68,68,,,,,,,,,,,,,,,,,,,,,,,,,,,,,,,,,,,,,,,,,,,,,,,,,,,,,CS1_USpos,None,1,,,,,,,,,,,,,,,,,,25,m,29,n,2019_Dec_08_1015,ec_RRR,3.0.4,59.95398184157797,
Balas and Sarzynnska,"Dla tego zadania, docelową postacią jest Scatterbug:","Więc gdy tylko Scatterbug (jego imię lub jego podobizna) pojawi się na ekranie, naciśnij spację tak szybko jak to możliwe. Uderz w spację gdy tylko zobaczysz podobiznę Scatterbuga lub słowo SCATTERBUG.

Naciśnij spację by rozpocząć zadanie",target5,stimuli/t5.jpg,29,70,stimuli/blank.jpg,blank,False,None,,,,,,,,,,,,,,0,0,0,0,,,,,0,0,0,4,0,69,69,69,,,,,,,,,,,,,,,,,,,,,,,,,,,,,,,,,,,,,,,,,,,,,,,,,,,,,CS1_USpos,None,1,,,,,,,,,,,,,,,,,,25,m,29,n,2019_Dec_08_1015,ec_RRR,3.0.4,59.95398184157797,
Balas and Sarzynnska,"Dla tego zadania, docelową postacią jest Scatterbug:","Więc gdy tylko Scatterbug (jego imię lub jego podobizna) pojawi się na ekranie, naciśnij spację tak szybko jak to możliwe. Uderz w spację gdy tylko zobaczysz podobiznę Scatterbuga lub słowo SCATTERBUG.

Naciśnij spację by rozpocząć zadanie",target5,stimuli/t5.jpg,29,71,stimuli/cs1_pos5.jpg,CSUS,False,None,,,,,,,,,,,,,,0,0,0,0,,,,,0,0,0,4,0,70,70,70,,,,,,,,,,,,,,,,,,,,,,,,,,,,,,,,,,,,,,,,,,,,,,,,,,,,,CS1_USpos,None,1,,,,,,,,,,,,,,,,,,25,m,29,n,2019_Dec_08_1015,ec_RRR,3.0.4,59.95398184157797,
Balas and Sarzynnska,"Dla tego zadania, docelową postacią jest Scatterbug:","Więc gdy tylko Scatterbug (jego imię lub jego podobizna) pojawi się na ekranie, naciśnij spację tak szybko jak to możliwe. Uderz w spację gdy tylko zobaczysz podobiznę Scatterbuga lub słowo SCATTERBUG.

Naciśnij spację by rozpocząć zadanie",target5,stimuli/t5.jpg,29,72,stimuli/blank.jpg,blank,False,None,,,,,,,,,,,,,,0,0,0,0,,,,,0,0,0,4,0,71,71,71,,,,,,,,,,,,,,,,,,,,,,,,,,,,,,,,,,,,,,,,,,,,,,,,,,,,,CS1_USpos,None,1,,,,,,,,,,,,,,,,,,25,m,29,n,2019_Dec_08_1015,ec_RRR,3.0.4,59.95398184157797,
Balas and Sarzynnska,"Dla tego zadania, docelową postacią jest Scatterbug:","Więc gdy tylko Scatterbug (jego imię lub jego podobizna) pojawi się na ekranie, naciśnij spację tak szybko jak to możliwe. Uderz w spację gdy tylko zobaczysz podobiznę Scatterbuga lub słowo SCATTERBUG.

Naciśnij spację by rozpocząć zadanie",target5,stimuli/t5.jpg,29,73,stimuli/filler26.jpg,filler,False,None,,,,,,,,,,,,,,0,0,0,0,,,,,0,0,0,4,0,72,72,72,,,,,,,,,,,,,,,,,,,,,,,,,,,,,,,,,,,,,,,,,,,,,,,,,,,,,CS1_USpos,None,1,,,,,,,,,,,,,,,,,,25,m,29,n,2019_Dec_08_1015,ec_RRR,3.0.4,59.95398184157797,
Balas and Sarzynnska,"Dla tego zadania, docelową postacią jest Scatterbug:","Więc gdy tylko Scatterbug (jego imię lub jego podobizna) pojawi się na ekranie, naciśnij spację tak szybko jak to możliwe. Uderz w spację gdy tylko zobaczysz podobiznę Scatterbuga lub słowo SCATTERBUG.

Naciśnij spację by rozpocząć zadanie",target5,stimuli/t5.jpg,29,74,stimuli/filler17.jpg,filler,False,None,,,,,,,,,,,,,,0,0,0,0,,,,,0,0,0,4,0,73,73,73,,,,,,,,,,,,,,,,,,,,,,,,,,,,,,,,,,,,,,,,,,,,,,,,,,,,,CS1_USpos,None,1,,,,,,,,,,,,,,,,,,25,m,29,n,2019_Dec_08_1015,ec_RRR,3.0.4,59.95398184157797,
Balas and Sarzynnska,"Dla tego zadania, docelową postacią jest Scatterbug:","Więc gdy tylko Scatterbug (jego imię lub jego podobizna) pojawi się na ekranie, naciśnij spację tak szybko jak to możliwe. Uderz w spację gdy tylko zobaczysz podobiznę Scatterbuga lub słowo SCATTERBUG.

Naciśnij spację by rozpocząć zadanie",target5,stimuli/t5.jpg,29,75,stimuli/filler12.jpg,filler,False,None,,,,,,,,,,,,,,0,0,0,0,,,,,0,0,0,4,0,74,74,74,,,,,,,,,,,,,,,,,,,,,,,,,,,,,,,,,,,,,,,,,,,,,,,,,,,,,CS1_USpos,None,1,,,,,,,,,,,,,,,,,,25,m,29,n,2019_Dec_08_1015,ec_RRR,3.0.4,59.95398184157797,
Balas and Sarzynnska,"Dla tego zadania, docelową postacią jest Scatterbug:","Więc gdy tylko Scatterbug (jego imię lub jego podobizna) pojawi się na ekranie, naciśnij spację tak szybko jak to możliwe. Uderz w spację gdy tylko zobaczysz podobiznę Scatterbuga lub słowo SCATTERBUG.

Naciśnij spację by rozpocząć zadanie",target5,stimuli/t5.jpg,29,76,stimuli/filler37.jpg,filler,False,None,,,,,,,,,,,,,,0,0,0,0,,,,,0,0,0,4,0,75,75,75,,,,,,,,,,,,,,,,,,,,,,,,,,,,,,,,,,,,,,,,,,,,,,,,,,,,,CS1_USpos,None,1,,,,,,,,,,,,,,,,,,25,m,29,n,2019_Dec_08_1015,ec_RRR,3.0.4,59.95398184157797,
Balas and Sarzynnska,"Dla tego zadania, docelową postacią jest Scatterbug:","Więc gdy tylko Scatterbug (jego imię lub jego podobizna) pojawi się na ekranie, naciśnij spację tak szybko jak to możliwe. Uderz w spację gdy tylko zobaczysz podobiznę Scatterbuga lub słowo SCATTERBUG.

Naciśnij spację by rozpocząć zadanie",target5,stimuli/t5.jpg,29,77,stimuli/filler24.jpg,filler,False,None,,,,,,,,,,,,,,0,0,0,0,,,,,0,0,0,4,0,76,76,76,,,,,,,,,,,,,,,,,,,,,,,,,,,,,,,,,,,,,,,,,,,,,,,,,,,,,CS1_USpos,None,1,,,,,,,,,,,,,,,,,,25,m,29,n,2019_Dec_08_1015,ec_RRR,3.0.4,59.95398184157797,
Balas and Sarzynnska,"Dla tego zadania, docelową postacią jest Scatterbug:","Więc gdy tylko Scatterbug (jego imię lub jego podobizna) pojawi się na ekranie, naciśnij spację tak szybko jak to możliwe. Uderz w spację gdy tylko zobaczysz podobiznę Scatterbuga lub słowo SCATTERBUG.

Naciśnij spację by rozpocząć zadanie",target5,stimuli/t5.jpg,29,78,stimuli/filler19.jpg,filler,False,None,,,,,,,,,,,,,,0,0,0,0,,,,,0,0,0,4,0,77,77,77,,,,,,,,,,,,,,,,,,,,,,,,,,,,,,,,,,,,,,,,,,,,,,,,,,,,,CS1_USpos,None,1,,,,,,,,,,,,,,,,,,25,m,29,n,2019_Dec_08_1015,ec_RRR,3.0.4,59.95398184157797,
Balas and Sarzynnska,"Dla tego zadania, docelową postacią jest Scatterbug:","Więc gdy tylko Scatterbug (jego imię lub jego podobizna) pojawi się na ekranie, naciśnij spację tak szybko jak to możliwe. Uderz w spację gdy tylko zobaczysz podobiznę Scatterbuga lub słowo SCATTERBUG.

Naciśnij spację by rozpocząć zadanie",target5,stimuli/t5.jpg,29,79,stimuli/filler25.jpg,filler,False,None,,,,,,,,,,,,,,0,0,0,0,,,,,0,0,0,4,0,78,78,78,,,,,,,,,,,,,,,,,,,,,,,,,,,,,,,,,,,,,,,,,,,,,,,,,,,,,CS1_USpos,None,1,,,,,,,,,,,,,,,,,,25,m,29,n,2019_Dec_08_1015,ec_RRR,3.0.4,59.95398184157797,
Balas and Sarzynnska,"Dla tego zadania, docelową postacią jest Scatterbug:","Więc gdy tylko Scatterbug (jego imię lub jego podobizna) pojawi się na ekranie, naciśnij spację tak szybko jak to możliwe. Uderz w spację gdy tylko zobaczysz podobiznę Scatterbuga lub słowo SCATTERBUG.

Naciśnij spację by rozpocząć zadanie",target5,stimuli/t5.jpg,29,80,stimuli/blank.jpg,blank,False,None,,,,,,,,,,,,,,0,0,0,0,,,,,0,0,0,4,0,79,79,79,,,,,,,,,,,,,,,,,,,,,,,,,,,,,,,,,,,,,,,,,,,,,,,,,,,,,CS1_USpos,None,1,,,,,,,,,,,,,,,,,,25,m,29,n,2019_Dec_08_1015,ec_RRR,3.0.4,59.95398184157797,
Balas and Sarzynnska,"Dla tego zadania, docelową postacią jest Scatterbug:","Więc gdy tylko Scatterbug (jego imię lub jego podobizna) pojawi się na ekranie, naciśnij spację tak szybko jak to możliwe. Uderz w spację gdy tylko zobaczysz podobiznę Scatterbuga lub słowo SCATTERBUG.

Naciśnij spację by rozpocząć zadanie",target5,stimuli/t5.jpg,29,81,stimuli/cs2_neg13.jpg,CSUS,False,None,,,,,,,,,,,,,,0,0,0,0,,,,,0,0,0,4,0,80,80,80,,,,,,,,,,,,,,,,,,,,,,,,,,,,,,,,,,,,,,,,,,,,,,,,,,,,,CS1_USpos,None,1,,,,,,,,,,,,,,,,,,25,m,29,n,2019_Dec_08_1015,ec_RRR,3.0.4,59.95398184157797,
Balas and Sarzynnska,"Dla tego zadania, docelową postacią jest Scatterbug:","Więc gdy tylko Scatterbug (jego imię lub jego podobizna) pojawi się na ekranie, naciśnij spację tak szybko jak to możliwe. Uderz w spację gdy tylko zobaczysz podobiznę Scatterbuga lub słowo SCATTERBUG.

Naciśnij spację by rozpocząć zadanie",target5,stimuli/t5.jpg,29,82,stimuli/blank.jpg,blank,False,None,,,,,,,,,,,,,,0,0,0,0,,,,,0,0,0,4,0,81,81,81,,,,,,,,,,,,,,,,,,,,,,,,,,,,,,,,,,,,,,,,,,,,,,,,,,,,,CS1_USpos,None,1,,,,,,,,,,,,,,,,,,25,m,29,n,2019_Dec_08_1015,ec_RRR,3.0.4,59.95398184157797,
Balas and Sarzynnska,"Dla tego zadania, docelową postacią jest Scatterbug:","Więc gdy tylko Scatterbug (jego imię lub jego podobizna) pojawi się na ekranie, naciśnij spację tak szybko jak to możliwe. Uderz w spację gdy tylko zobaczysz podobiznę Scatterbuga lub słowo SCATTERBUG.

Naciśnij spację by rozpocząć zadanie",target5,stimuli/t5.jpg,29,83,stimuli/filler44.jpg,filler,False,None,,,,,,,,,,,,,,0,0,0,0,,,,,0,0,0,4,0,82,82,82,,,,,,,,,,,,,,,,,,,,,,,,,,,,,,,,,,,,,,,,,,,,,,,,,,,,,CS1_USpos,None,1,,,,,,,,,,,,,,,,,,25,m,29,n,2019_Dec_08_1015,ec_RRR,3.0.4,59.95398184157797,
Balas and Sarzynnska,"Dla tego zadania, docelową postacią jest Scatterbug:","Więc gdy tylko Scatterbug (jego imię lub jego podobizna) pojawi się na ekranie, naciśnij spację tak szybko jak to możliwe. Uderz w spację gdy tylko zobaczysz podobiznę Scatterbuga lub słowo SCATTERBUG.

Naciśnij spację by rozpocząć zadanie",target5,stimuli/t5.jpg,29,84,stimuli/filler23.jpg,filler,False,None,,,,,,,,,,,,,,0,0,0,0,,,,,0,0,0,4,0,83,83,83,,,,,,,,,,,,,,,,,,,,,,,,,,,,,,,,,,,,,,,,,,,,,,,,,,,,,CS1_USpos,None,1,,,,,,,,,,,,,,,,,,25,m,29,n,2019_Dec_08_1015,ec_RRR,3.0.4,59.95398184157797,
Balas and Sarzynnska,"Dla tego zadania, docelową postacią jest Scatterbug:","Więc gdy tylko Scatterbug (jego imię lub jego podobizna) pojawi się na ekranie, naciśnij spację tak szybko jak to możliwe. Uderz w spację gdy tylko zobaczysz podobiznę Scatterbuga lub słowo SCATTERBUG.

Naciśnij spację by rozpocząć zadanie",target5,stimuli/t5.jpg,29,85,stimuli/filler21.jpg,filler,False,None,,,,,,,,,,,,,,0,0,0,0,,,,,0,0,0,4,0,84,84,84,,,,,,,,,,,,,,,,,,,,,,,,,,,,,,,,,,,,,,,,,,,,,,,,,,,,,CS1_USpos,None,1,,,,,,,,,,,,,,,,,,25,m,29,n,2019_Dec_08_1015,ec_RRR,3.0.4,59.95398184157797,
Balas and Sarzynnska,"Dla tego zadania, docelową postacią jest Scatterbug:","Więc gdy tylko Scatterbug (jego imię lub jego podobizna) pojawi się na ekranie, naciśnij spację tak szybko jak to możliwe. Uderz w spację gdy tylko zobaczysz podobiznę Scatterbuga lub słowo SCATTERBUG.

Naciśnij spację by rozpocząć zadanie",target5,stimuli/t5.jpg,29,86,stimuli/filler38.jpg,filler,False,None,,,,,,,,,,,,,,0,0,0,0,,,,,0,0,0,4,0,85,85,85,,,,,,,,,,,,,,,,,,,,,,,,,,,,,,,,,,,,,,,,,,,,,,,,,,,,,CS1_USpos,None,1,,,,,,,,,,,,,,,,,,25,m,29,n,2019_Dec_08_1015,ec_RRR,3.0.4,59.95398184157797,
Balas and Sarzynnska,"Dla tego zadania, docelową postacią jest Bergmite:","Więc gdy tylko Bergmite (jego imię lub jego podobizna) pojawi się na ekranie, naciśnij spację tak szybko jak to możliwe. Uderz w spację gdy tylko zobaczysz podobiznę Bergmitea lub słowo BERGMITE.

Naciśnij spację by rozpocząć zadanie",target3,stimuli/t3.jpg,29,1,stimuli/filler1.jpg,filler,False,None,,,,,,,,,,,,,,0,0,0,0,,,,,0,1,1,2,0,0,0,0,,,,,,,,,,,,,,,,,,,,,,,,,,,,,,,,,,,,,,,,,,,,,,,,,,,,,CS1_USpos,None,1,,,,,,,,,,,,,,,,,,25,m,29,n,2019_Dec_08_1015,ec_RRR,3.0.4,59.95398184157797,
Balas and Sarzynnska,"Dla tego zadania, docelową postacią jest Bergmite:","Więc gdy tylko Bergmite (jego imię lub jego podobizna) pojawi się na ekranie, naciśnij spację tak szybko jak to możliwe. Uderz w spację gdy tylko zobaczysz podobiznę Bergmitea lub słowo BERGMITE.

Naciśnij spację by rozpocząć zadanie",target3,stimuli/t3.jpg,29,2,stimuli/filler50.jpg,filler,False,None,,,,,,,,,,,,,,0,0,0,0,,,,,0,1,1,2,0,1,1,1,,,,,,,,,,,,,,,,,,,,,,,,,,,,,,,,,,,,,,,,,,,,,,,,,,,,,CS1_USpos,None,1,,,,,,,,,,,,,,,,,,25,m,29,n,2019_Dec_08_1015,ec_RRR,3.0.4,59.95398184157797,
Balas and Sarzynnska,"Dla tego zadania, docelową postacią jest Bergmite:","Więc gdy tylko Bergmite (jego imię lub jego podobizna) pojawi się na ekranie, naciśnij spację tak szybko jak to możliwe. Uderz w spację gdy tylko zobaczysz podobiznę Bergmitea lub słowo BERGMITE.

Naciśnij spację by rozpocząć zadanie",target3,stimuli/t3.jpg,29,3,stimuli/filler34.jpg,filler,False,None,,,,,,,,,,,,,,0,0,0,0,,,,,0,1,1,2,0,2,2,2,,,,,,,,,,,,,,,,,,,,,,,,,,,,,,,,,,,,,,,,,,,,,,,,,,,,,CS1_USpos,None,1,,,,,,,,,,,,,,,,,,25,m,29,n,2019_Dec_08_1015,ec_RRR,3.0.4,59.95398184157797,
Balas and Sarzynnska,"Dla tego zadania, docelową postacią jest Bergmite:","Więc gdy tylko Bergmite (jego imię lub jego podobizna) pojawi się na ekranie, naciśnij spację tak szybko jak to możliwe. Uderz w spację gdy tylko zobaczysz podobiznę Bergmitea lub słowo BERGMITE.

Naciśnij spację by rozpocząć zadanie",target3,stimuli/t3.jpg,29,4,stimuli/filler22.jpg,filler,False,None,,,,,,,,,,,,,,0,0,0,0,,,,,0,1,1,2,0,3,3,3,,,,,,,,,,,,,,,,,,,,,,,,,,,,,,,,,,,,,,,,,,,,,,,,,,,,,CS1_USpos,None,1,,,,,,,,,,,,,,,,,,25,m,29,n,2019_Dec_08_1015,ec_RRR,3.0.4,59.95398184157797,
Balas and Sarzynnska,"Dla tego zadania, docelową postacią jest Bergmite:","Więc gdy tylko Bergmite (jego imię lub jego podobizna) pojawi się na ekranie, naciśnij spację tak szybko jak to możliwe. Uderz w spację gdy tylko zobaczysz podobiznę Bergmitea lub słowo BERGMITE.

Naciśnij spację by rozpocząć zadanie",target3,stimuli/t3.jpg,29,5,stimuli/filler51.jpg,filler,False,None,,,,,,,,,,,,,,0,0,0,0,,,,,0,1,1,2,0,4,4,4,,,,,,,,,,,,,,,,,,,,,,,,,,,,,,,,,,,,,,,,,,,,,,,,,,,,,CS1_USpos,None,1,,,,,,,,,,,,,,,,,,25,m,29,n,2019_Dec_08_1015,ec_RRR,3.0.4,59.95398184157797,
Balas and Sarzynnska,"Dla tego zadania, docelową postacią jest Bergmite:","Więc gdy tylko Bergmite (jego imię lub jego podobizna) pojawi się na ekranie, naciśnij spację tak szybko jak to możliwe. Uderz w spację gdy tylko zobaczysz podobiznę Bergmitea lub słowo BERGMITE.

Naciśnij spację by rozpocząć zadanie",target3,stimuli/t3.jpg,29,6,stimuli/filler23.jpg,filler,False,None,,,,,,,,,,,,,,0,0,0,0,,,,,0,1,1,2,0,5,5,5,,,,,,,,,,,,,,,,,,,,,,,,,,,,,,,,,,,,,,,,,,,,,,,,,,,,,CS1_USpos,None,1,,,,,,,,,,,,,,,,,,25,m,29,n,2019_Dec_08_1015,ec_RRR,3.0.4,59.95398184157797,
Balas and Sarzynnska,"Dla tego zadania, docelową postacią jest Bergmite:","Więc gdy tylko Bergmite (jego imię lub jego podobizna) pojawi się na ekranie, naciśnij spację tak szybko jak to możliwe. Uderz w spację gdy tylko zobaczysz podobiznę Bergmitea lub słowo BERGMITE.

Naciśnij spację by rozpocząć zadanie",target3,stimuli/t3.jpg,29,7,stimuli/filler52.jpg,filler,False,None,,,,,,,,,,,,,,0,0,0,0,,,,,0,1,1,2,0,6,6,6,,,,,,,,,,,,,,,,,,,,,,,,,,,,,,,,,,,,,,,,,,,,,,,,,,,,,CS1_USpos,None,1,,,,,,,,,,,,,,,,,,25,m,29,n,2019_Dec_08_1015,ec_RRR,3.0.4,59.95398184157797,
Balas and Sarzynnska,"Dla tego zadania, docelową postacią jest Bergmite:","Więc gdy tylko Bergmite (jego imię lub jego podobizna) pojawi się na ekranie, naciśnij spację tak szybko jak to możliwe. Uderz w spację gdy tylko zobaczysz podobiznę Bergmitea lub słowo BERGMITE.

Naciśnij spację by rozpocząć zadanie",target3,stimuli/t3.jpg,29,8,stimuli/filler13.jpg,filler,False,None,,,,,,,,,,,,,,0,0,0,0,,,,,0,1,1,2,0,7,7,7,,,,,,,,,,,,,,,,,,,,,,,,,,,,,,,,,,,,,,,,,,,,,,,,,,,,,CS1_USpos,None,1,,,,,,,,,,,,,,,,,,25,m,29,n,2019_Dec_08_1015,ec_RRR,3.0.4,59.95398184157797,
Balas and Sarzynnska,"Dla tego zadania, docelową postacią jest Bergmite:","Więc gdy tylko Bergmite (jego imię lub jego podobizna) pojawi się na ekranie, naciśnij spację tak szybko jak to możliwe. Uderz w spację gdy tylko zobaczysz podobiznę Bergmitea lub słowo BERGMITE.

Naciśnij spację by rozpocząć zadanie",target3,stimuli/t3.jpg,29,9,stimuli/filler21.jpg,filler,False,None,,,,,,,,,,,,,,0,0,0,0,,,,,0,1,1,2,0,8,8,8,,,,,,,,,,,,,,,,,,,,,,,,,,,,,,,,,,,,,,,,,,,,,,,,,,,,,CS1_USpos,None,1,,,,,,,,,,,,,,,,,,25,m,29,n,2019_Dec_08_1015,ec_RRR,3.0.4,59.95398184157797,
Balas and Sarzynnska,"Dla tego zadania, docelową postacią jest Bergmite:","Więc gdy tylko Bergmite (jego imię lub jego podobizna) pojawi się na ekranie, naciśnij spację tak szybko jak to możliwe. Uderz w spację gdy tylko zobaczysz podobiznę Bergmitea lub słowo BERGMITE.

Naciśnij spację by rozpocząć zadanie",target3,stimuli/t3.jpg,29,10,stimuli/blank.jpg,blank,False,None,,,,,,,,,,,,,,0,0,0,0,,,,,0,1,1,2,0,9,9,9,,,,,,,,,,,,,,,,,,,,,,,,,,,,,,,,,,,,,,,,,,,,,,,,,,,,,CS1_USpos,None,1,,,,,,,,,,,,,,,,,,25,m,29,n,2019_Dec_08_1015,ec_RRR,3.0.4,59.95398184157797,
Balas and Sarzynnska,"Dla tego zadania, docelową postacią jest Bergmite:","Więc gdy tylko Bergmite (jego imię lub jego podobizna) pojawi się na ekranie, naciśnij spację tak szybko jak to możliwe. Uderz w spację gdy tylko zobaczysz podobiznę Bergmitea lub słowo BERGMITE.

Naciśnij spację by rozpocząć zadanie",target3,stimuli/t3.jpg,29,11,stimuli/cs1_pos8.jpg,CSUS,False,None,,,,,,,,,,,,,,0,0,0,0,,,,,0,1,1,2,0,10,10,10,,,,,,,,,,,,,,,,,,,,,,,,,,,,,,,,,,,,,,,,,,,,,,,,,,,,,CS1_USpos,None,1,,,,,,,,,,,,,,,,,,25,m,29,n,2019_Dec_08_1015,ec_RRR,3.0.4,59.95398184157797,
Balas and Sarzynnska,"Dla tego zadania, docelową postacią jest Bergmite:","Więc gdy tylko Bergmite (jego imię lub jego podobizna) pojawi się na ekranie, naciśnij spację tak szybko jak to możliwe. Uderz w spację gdy tylko zobaczysz podobiznę Bergmitea lub słowo BERGMITE.

Naciśnij spację by rozpocząć zadanie",target3,stimuli/t3.jpg,29,12,stimuli/blank.jpg,blank,False,None,,,,,,,,,,,,,,0,0,0,0,,,,,0,1,1,2,0,11,11,11,,,,,,,,,,,,,,,,,,,,,,,,,,,,,,,,,,,,,,,,,,,,,,,,,,,,,CS1_USpos,None,1,,,,,,,,,,,,,,,,,,25,m,29,n,2019_Dec_08_1015,ec_RRR,3.0.4,59.95398184157797,
Balas and Sarzynnska,"Dla tego zadania, docelową postacią jest Bergmite:","Więc gdy tylko Bergmite (jego imię lub jego podobizna) pojawi się na ekranie, naciśnij spację tak szybko jak to możliwe. Uderz w spację gdy tylko zobaczysz podobiznę Bergmitea lub słowo BERGMITE.

Naciśnij spację by rozpocząć zadanie",target3,stimuli/t3.jpg,29,13,stimuli/filler5.jpg,filler,False,None,,,,,,,,,,,,,,0,0,0,0,,,,,0,1,1,2,0,12,12,12,,,,,,,,,,,,,,,,,,,,,,,,,,,,,,,,,,,,,,,,,,,,,,,,,,,,,CS1_USpos,None,1,,,,,,,,,,,,,,,,,,25,m,29,n,2019_Dec_08_1015,ec_RRR,3.0.4,59.95398184157797,
Balas and Sarzynnska,"Dla tego zadania, docelową postacią jest Bergmite:","Więc gdy tylko Bergmite (jego imię lub jego podobizna) pojawi się na ekranie, naciśnij spację tak szybko jak to możliwe. Uderz w spację gdy tylko zobaczysz podobiznę Bergmitea lub słowo BERGMITE.

Naciśnij spację by rozpocząć zadanie",target3,stimuli/t3.jpg,29,14,stimuli/filler37.jpg,filler,False,None,,,,,,,,,,,,,,0,0,0,0,,,,,0,1,1,2,0,13,13,13,,,,,,,,,,,,,,,,,,,,,,,,,,,,,,,,,,,,,,,,,,,,,,,,,,,,,CS1_USpos,None,1,,,,,,,,,,,,,,,,,,25,m,29,n,2019_Dec_08_1015,ec_RRR,3.0.4,59.95398184157797,
Balas and Sarzynnska,"Dla tego zadania, docelową postacią jest Bergmite:","Więc gdy tylko Bergmite (jego imię lub jego podobizna) pojawi się na ekranie, naciśnij spację tak szybko jak to możliwe. Uderz w spację gdy tylko zobaczysz podobiznę Bergmitea lub słowo BERGMITE.

Naciśnij spację by rozpocząć zadanie",target3,stimuli/t3.jpg,29,15,stimuli/filler48.jpg,filler,False,None,,,,,,,,,,,,,,0,0,0,0,,,,,0,1,1,2,0,14,14,14,,,,,,,,,,,,,,,,,,,,,,,,,,,,,,,,,,,,,,,,,,,,,,,,,,,,,CS1_USpos,None,1,,,,,,,,,,,,,,,,,,25,m,29,n,2019_Dec_08_1015,ec_RRR,3.0.4,59.95398184157797,
Balas and Sarzynnska,"Dla tego zadania, docelową postacią jest Bergmite:","Więc gdy tylko Bergmite (jego imię lub jego podobizna) pojawi się na ekranie, naciśnij spację tak szybko jak to możliwe. Uderz w spację gdy tylko zobaczysz podobiznę Bergmitea lub słowo BERGMITE.

Naciśnij spację by rozpocząć zadanie",target3,stimuli/t3.jpg,29,16,stimuli/filler14.jpg,filler,False,None,,,,,,,,,,,,,,0,0,0,0,,,,,0,1,1,2,0,15,15,15,,,,,,,,,,,,,,,,,,,,,,,,,,,,,,,,,,,,,,,,,,,,,,,,,,,,,CS1_USpos,None,1,,,,,,,,,,,,,,,,,,25,m,29,n,2019_Dec_08_1015,ec_RRR,3.0.4,59.95398184157797,
Balas and Sarzynnska,"Dla tego zadania, docelową postacią jest Bergmite:","Więc gdy tylko Bergmite (jego imię lub jego podobizna) pojawi się na ekranie, naciśnij spację tak szybko jak to możliwe. Uderz w spację gdy tylko zobaczysz podobiznę Bergmitea lub słowo BERGMITE.

Naciśnij spację by rozpocząć zadanie",target3,stimuli/t3.jpg,29,17,stimuli/target3_7.jpg,target,True,space,,,,,,,,,,,,,,0,0,0,0,,,,,0,1,1,2,0,16,16,16,,,,,,,,,,,,,,,,,,,,,,,,,,,,,,,,,,,,,,,,,,,,,,,,,,,,,CS1_USpos,space,1,0.8520434370000203,,,,,,,,,,,,,,,,,25,m,29,n,2019_Dec_08_1015,ec_RRR,3.0.4,59.95398184157797,
Balas and Sarzynnska,"Dla tego zadania, docelową postacią jest Bergmite:","Więc gdy tylko Bergmite (jego imię lub jego podobizna) pojawi się na ekranie, naciśnij spację tak szybko jak to możliwe. Uderz w spację gdy tylko zobaczysz podobiznę Bergmitea lub słowo BERGMITE.

Naciśnij spację by rozpocząć zadanie",target3,stimuli/t3.jpg,29,18,stimuli/filler26.jpg,filler,False,None,,,,,,,,,,,,,,0,0,0,0,,,,,0,1,1,2,0,17,17,17,,,,,,,,,,,,,,,,,,,,,,,,,,,,,,,,,,,,,,,,,,,,,,,,,,,,,CS1_USpos,None,1,,,,,,,,,,,,,,,,,,25,m,29,n,2019_Dec_08_1015,ec_RRR,3.0.4,59.95398184157797,
Balas and Sarzynnska,"Dla tego zadania, docelową postacią jest Bergmite:","Więc gdy tylko Bergmite (jego imię lub jego podobizna) pojawi się na ekranie, naciśnij spację tak szybko jak to możliwe. Uderz w spację gdy tylko zobaczysz podobiznę Bergmitea lub słowo BERGMITE.

Naciśnij spację by rozpocząć zadanie",target3,stimuli/t3.jpg,29,19,stimuli/filler28.jpg,filler,False,None,,,,,,,,,,,,,,0,0,0,0,,,,,0,1,1,2,0,18,18,18,,,,,,,,,,,,,,,,,,,,,,,,,,,,,,,,,,,,,,,,,,,,,,,,,,,,,CS1_USpos,None,1,,,,,,,,,,,,,,,,,,25,m,29,n,2019_Dec_08_1015,ec_RRR,3.0.4,59.95398184157797,
Balas and Sarzynnska,"Dla tego zadania, docelową postacią jest Bergmite:","Więc gdy tylko Bergmite (jego imię lub jego podobizna) pojawi się na ekranie, naciśnij spację tak szybko jak to możliwe. Uderz w spację gdy tylko zobaczysz podobiznę Bergmitea lub słowo BERGMITE.

Naciśnij spację by rozpocząć zadanie",target3,stimuli/t3.jpg,29,20,stimuli/blank.jpg,blank,False,None,,,,,,,,,,,,,,0,0,0,0,,,,,0,1,1,2,0,19,19,19,,,,,,,,,,,,,,,,,,,,,,,,,,,,,,,,,,,,,,,,,,,,,,,,,,,,,CS1_USpos,None,1,,,,,,,,,,,,,,,,,,25,m,29,n,2019_Dec_08_1015,ec_RRR,3.0.4,59.95398184157797,
Balas and Sarzynnska,"Dla tego zadania, docelową postacią jest Bergmite:","Więc gdy tylko Bergmite (jego imię lub jego podobizna) pojawi się na ekranie, naciśnij spację tak szybko jak to możliwe. Uderz w spację gdy tylko zobaczysz podobiznę Bergmitea lub słowo BERGMITE.

Naciśnij spację by rozpocząć zadanie",target3,stimuli/t3.jpg,29,21,stimuli/cs2_neg14.jpg,CSUS,False,None,,,,,,,,,,,,,,0,0,0,0,,,,,0,1,1,2,0,20,20,20,,,,,,,,,,,,,,,,,,,,,,,,,,,,,,,,,,,,,,,,,,,,,,,,,,,,,CS1_USpos,None,1,,,,,,,,,,,,,,,,,,25,m,29,n,2019_Dec_08_1015,ec_RRR,3.0.4,59.95398184157797,
Balas and Sarzynnska,"Dla tego zadania, docelową postacią jest Bergmite:","Więc gdy tylko Bergmite (jego imię lub jego podobizna) pojawi się na ekranie, naciśnij spację tak szybko jak to możliwe. Uderz w spację gdy tylko zobaczysz podobiznę Bergmitea lub słowo BERGMITE.

Naciśnij spację by rozpocząć zadanie",target3,stimuli/t3.jpg,29,22,stimuli/blank.jpg,blank,False,None,,,,,,,,,,,,,,0,0,0,0,,,,,0,1,1,2,0,21,21,21,,,,,,,,,,,,,,,,,,,,,,,,,,,,,,,,,,,,,,,,,,,,,,,,,,,,,CS1_USpos,None,1,,,,,,,,,,,,,,,,,,25,m,29,n,2019_Dec_08_1015,ec_RRR,3.0.4,59.95398184157797,
Balas and Sarzynnska,"Dla tego zadania, docelową postacią jest Bergmite:","Więc gdy tylko Bergmite (jego imię lub jego podobizna) pojawi się na ekranie, naciśnij spację tak szybko jak to możliwe. Uderz w spację gdy tylko zobaczysz podobiznę Bergmitea lub słowo BERGMITE.

Naciśnij spację by rozpocząć zadanie",target3,stimuli/t3.jpg,29,23,stimuli/filler30.jpg,filler,False,None,,,,,,,,,,,,,,0,0,0,0,,,,,0,1,1,2,0,22,22,22,,,,,,,,,,,,,,,,,,,,,,,,,,,,,,,,,,,,,,,,,,,,,,,,,,,,,CS1_USpos,None,1,,,,,,,,,,,,,,,,,,25,m,29,n,2019_Dec_08_1015,ec_RRR,3.0.4,59.95398184157797,
Balas and Sarzynnska,"Dla tego zadania, docelową postacią jest Bergmite:","Więc gdy tylko Bergmite (jego imię lub jego podobizna) pojawi się na ekranie, naciśnij spację tak szybko jak to możliwe. Uderz w spację gdy tylko zobaczysz podobiznę Bergmitea lub słowo BERGMITE.

Naciśnij spację by rozpocząć zadanie",target3,stimuli/t3.jpg,29,24,stimuli/filler31.jpg,filler,False,None,,,,,,,,,,,,,,0,0,0,0,,,,,0,1,1,2,0,23,23,23,,,,,,,,,,,,,,,,,,,,,,,,,,,,,,,,,,,,,,,,,,,,,,,,,,,,,CS1_USpos,None,1,,,,,,,,,,,,,,,,,,25,m,29,n,2019_Dec_08_1015,ec_RRR,3.0.4,59.95398184157797,
Balas and Sarzynnska,"Dla tego zadania, docelową postacią jest Bergmite:","Więc gdy tylko Bergmite (jego imię lub jego podobizna) pojawi się na ekranie, naciśnij spację tak szybko jak to możliwe. Uderz w spację gdy tylko zobaczysz podobiznę Bergmitea lub słowo BERGMITE.

Naciśnij spację by rozpocząć zadanie",target3,stimuli/t3.jpg,29,25,stimuli/target3_5.jpg,target,True,space,,,,,,,,,,,,,,0,0,0,0,,,,,0,1,1,2,0,24,24,24,,,,,,,,,,,,,,,,,,,,,,,,,,,,,,,,,,,,,,,,,,,,,,,,,,,,,CS1_USpos,space,1,0.6506192500000907,,,,,,,,,,,,,,,,,25,m,29,n,2019_Dec_08_1015,ec_RRR,3.0.4,59.95398184157797,
Balas and Sarzynnska,"Dla tego zadania, docelową postacią jest Bergmite:","Więc gdy tylko Bergmite (jego imię lub jego podobizna) pojawi się na ekranie, naciśnij spację tak szybko jak to możliwe. Uderz w spację gdy tylko zobaczysz podobiznę Bergmitea lub słowo BERGMITE.

Naciśnij spację by rozpocząć zadanie",target3,stimuli/t3.jpg,29,26,stimuli/filler35.jpg,filler,False,None,,,,,,,,,,,,,,0,0,0,0,,,,,0,1,1,2,0,25,25,25,,,,,,,,,,,,,,,,,,,,,,,,,,,,,,,,,,,,,,,,,,,,,,,,,,,,,CS1_USpos,None,1,,,,,,,,,,,,,,,,,,25,m,29,n,2019_Dec_08_1015,ec_RRR,3.0.4,59.95398184157797,
Balas and Sarzynnska,"Dla tego zadania, docelową postacią jest Bergmite:","Więc gdy tylko Bergmite (jego imię lub jego podobizna) pojawi się na ekranie, naciśnij spację tak szybko jak to możliwe. Uderz w spację gdy tylko zobaczysz podobiznę Bergmitea lub słowo BERGMITE.

Naciśnij spację by rozpocząć zadanie",target3,stimuli/t3.jpg,29,27,stimuli/target3_6.jpg,target,True,space,,,,,,,,,,,,,,0,0,0,0,,,,,0,1,1,2,0,26,26,26,,,,,,,,,,,,,,,,,,,,,,,,,,,,,,,,,,,,,,,,,,,,,,,,,,,,,CS1_USpos,space,1,0.6848068969998167,,,,,,,,,,,,,,,,,25,m,29,n,2019_Dec_08_1015,ec_RRR,3.0.4,59.95398184157797,
Balas and Sarzynnska,"Dla tego zadania, docelową postacią jest Bergmite:","Więc gdy tylko Bergmite (jego imię lub jego podobizna) pojawi się na ekranie, naciśnij spację tak szybko jak to możliwe. Uderz w spację gdy tylko zobaczysz podobiznę Bergmitea lub słowo BERGMITE.

Naciśnij spację by rozpocząć zadanie",target3,stimuli/t3.jpg,29,28,stimuli/filler11.jpg,filler,False,None,,,,,,,,,,,,,,0,0,0,0,,,,,0,1,1,2,0,27,27,27,,,,,,,,,,,,,,,,,,,,,,,,,,,,,,,,,,,,,,,,,,,,,,,,,,,,,CS1_USpos,None,1,,,,,,,,,,,,,,,,,,25,m,29,n,2019_Dec_08_1015,ec_RRR,3.0.4,59.95398184157797,
Balas and Sarzynnska,"Dla tego zadania, docelową postacią jest Bergmite:","Więc gdy tylko Bergmite (jego imię lub jego podobizna) pojawi się na ekranie, naciśnij spację tak szybko jak to możliwe. Uderz w spację gdy tylko zobaczysz podobiznę Bergmitea lub słowo BERGMITE.

Naciśnij spację by rozpocząć zadanie",target3,stimuli/t3.jpg,29,29,stimuli/filler19.jpg,filler,False,None,,,,,,,,,,,,,,0,0,0,0,,,,,0,1,1,2,0,28,28,28,,,,,,,,,,,,,,,,,,,,,,,,,,,,,,,,,,,,,,,,,,,,,,,,,,,,,CS1_USpos,None,1,,,,,,,,,,,,,,,,,,25,m,29,n,2019_Dec_08_1015,ec_RRR,3.0.4,59.95398184157797,
Balas and Sarzynnska,"Dla tego zadania, docelową postacią jest Bergmite:","Więc gdy tylko Bergmite (jego imię lub jego podobizna) pojawi się na ekranie, naciśnij spację tak szybko jak to możliwe. Uderz w spację gdy tylko zobaczysz podobiznę Bergmitea lub słowo BERGMITE.

Naciśnij spację by rozpocząć zadanie",target3,stimuli/t3.jpg,29,30,stimuli/blank.jpg,blank,False,None,,,,,,,,,,,,,,0,0,0,0,,,,,0,1,1,2,0,29,29,29,,,,,,,,,,,,,,,,,,,,,,,,,,,,,,,,,,,,,,,,,,,,,,,,,,,,,CS1_USpos,None,1,,,,,,,,,,,,,,,,,,25,m,29,n,2019_Dec_08_1015,ec_RRR,3.0.4,59.95398184157797,
Balas and Sarzynnska,"Dla tego zadania, docelową postacią jest Bergmite:","Więc gdy tylko Bergmite (jego imię lub jego podobizna) pojawi się na ekranie, naciśnij spację tak szybko jak to możliwe. Uderz w spację gdy tylko zobaczysz podobiznę Bergmitea lub słowo BERGMITE.

Naciśnij spację by rozpocząć zadanie",target3,stimuli/t3.jpg,29,31,stimuli/cs1_pos7.jpg,CSUS,False,None,,,,,,,,,,,,,,0,0,0,0,,,,,0,1,1,2,0,30,30,30,,,,,,,,,,,,,,,,,,,,,,,,,,,,,,,,,,,,,,,,,,,,,,,,,,,,,CS1_USpos,None,1,,,,,,,,,,,,,,,,,,25,m,29,n,2019_Dec_08_1015,ec_RRR,3.0.4,59.95398184157797,
Balas and Sarzynnska,"Dla tego zadania, docelową postacią jest Bergmite:","Więc gdy tylko Bergmite (jego imię lub jego podobizna) pojawi się na ekranie, naciśnij spację tak szybko jak to możliwe. Uderz w spację gdy tylko zobaczysz podobiznę Bergmitea lub słowo BERGMITE.

Naciśnij spację by rozpocząć zadanie",target3,stimuli/t3.jpg,29,32,stimuli/blank.jpg,blank,False,None,,,,,,,,,,,,,,0,0,0,0,,,,,0,1,1,2,0,31,31,31,,,,,,,,,,,,,,,,,,,,,,,,,,,,,,,,,,,,,,,,,,,,,,,,,,,,,CS1_USpos,None,1,,,,,,,,,,,,,,,,,,25,m,29,n,2019_Dec_08_1015,ec_RRR,3.0.4,59.95398184157797,
Balas and Sarzynnska,"Dla tego zadania, docelową postacią jest Bergmite:","Więc gdy tylko Bergmite (jego imię lub jego podobizna) pojawi się na ekranie, naciśnij spację tak szybko jak to możliwe. Uderz w spację gdy tylko zobaczysz podobiznę Bergmitea lub słowo BERGMITE.

Naciśnij spację by rozpocząć zadanie",target3,stimuli/t3.jpg,29,33,stimuli/filler25.jpg,filler,False,None,,,,,,,,,,,,,,0,0,0,0,,,,,0,1,1,2,0,32,32,32,,,,,,,,,,,,,,,,,,,,,,,,,,,,,,,,,,,,,,,,,,,,,,,,,,,,,CS1_USpos,None,1,,,,,,,,,,,,,,,,,,25,m,29,n,2019_Dec_08_1015,ec_RRR,3.0.4,59.95398184157797,
Balas and Sarzynnska,"Dla tego zadania, docelową postacią jest Bergmite:","Więc gdy tylko Bergmite (jego imię lub jego podobizna) pojawi się na ekranie, naciśnij spację tak szybko jak to możliwe. Uderz w spację gdy tylko zobaczysz podobiznę Bergmitea lub słowo BERGMITE.

Naciśnij spację by rozpocząć zadanie",target3,stimuli/t3.jpg,29,34,stimuli/filler40.jpg,filler,False,None,,,,,,,,,,,,,,0,0,0,0,,,,,0,1,1,2,0,33,33,33,,,,,,,,,,,,,,,,,,,,,,,,,,,,,,,,,,,,,,,,,,,,,,,,,,,,,CS1_USpos,None,1,,,,,,,,,,,,,,,,,,25,m,29,n,2019_Dec_08_1015,ec_RRR,3.0.4,59.95398184157797,
Balas and Sarzynnska,"Dla tego zadania, docelową postacią jest Bergmite:","Więc gdy tylko Bergmite (jego imię lub jego podobizna) pojawi się na ekranie, naciśnij spację tak szybko jak to możliwe. Uderz w spację gdy tylko zobaczysz podobiznę Bergmitea lub słowo BERGMITE.

Naciśnij spację by rozpocząć zadanie",target3,stimuli/t3.jpg,29,35,stimuli/filler9.jpg,filler,False,None,,,,,,,,,,,,,,0,0,0,0,,,,,0,1,1,2,0,34,34,34,,,,,,,,,,,,,,,,,,,,,,,,,,,,,,,,,,,,,,,,,,,,,,,,,,,,,CS1_USpos,None,1,,,,,,,,,,,,,,,,,,25,m,29,n,2019_Dec_08_1015,ec_RRR,3.0.4,59.95398184157797,
Balas and Sarzynnska,"Dla tego zadania, docelową postacią jest Bergmite:","Więc gdy tylko Bergmite (jego imię lub jego podobizna) pojawi się na ekranie, naciśnij spację tak szybko jak to możliwe. Uderz w spację gdy tylko zobaczysz podobiznę Bergmitea lub słowo BERGMITE.

Naciśnij spację by rozpocząć zadanie",target3,stimuli/t3.jpg,29,36,stimuli/filler33.jpg,filler,False,None,,,,,,,,,,,,,,0,0,0,0,,,,,0,1,1,2,0,35,35,35,,,,,,,,,,,,,,,,,,,,,,,,,,,,,,,,,,,,,,,,,,,,,,,,,,,,,CS1_USpos,None,1,,,,,,,,,,,,,,,,,,25,m,29,n,2019_Dec_08_1015,ec_RRR,3.0.4,59.95398184157797,
Balas and Sarzynnska,"Dla tego zadania, docelową postacią jest Bergmite:","Więc gdy tylko Bergmite (jego imię lub jego podobizna) pojawi się na ekranie, naciśnij spację tak szybko jak to możliwe. Uderz w spację gdy tylko zobaczysz podobiznę Bergmitea lub słowo BERGMITE.

Naciśnij spację by rozpocząć zadanie",target3,stimuli/t3.jpg,29,37,stimuli/filler10.jpg,filler,False,None,,,,,,,,,,,,,,0,0,0,0,,,,,0,1,1,2,0,36,36,36,,,,,,,,,,,,,,,,,,,,,,,,,,,,,,,,,,,,,,,,,,,,,,,,,,,,,CS1_USpos,None,1,,,,,,,,,,,,,,,,,,25,m,29,n,2019_Dec_08_1015,ec_RRR,3.0.4,59.95398184157797,
Balas and Sarzynnska,"Dla tego zadania, docelową postacią jest Bergmite:","Więc gdy tylko Bergmite (jego imię lub jego podobizna) pojawi się na ekranie, naciśnij spację tak szybko jak to możliwe. Uderz w spację gdy tylko zobaczysz podobiznę Bergmitea lub słowo BERGMITE.

Naciśnij spację by rozpocząć zadanie",target3,stimuli/t3.jpg,29,38,stimuli/filler24.jpg,filler,False,None,,,,,,,,,,,,,,0,0,0,0,,,,,0,1,1,2,0,37,37,37,,,,,,,,,,,,,,,,,,,,,,,,,,,,,,,,,,,,,,,,,,,,,,,,,,,,,CS1_USpos,None,1,,,,,,,,,,,,,,,,,,25,m,29,n,2019_Dec_08_1015,ec_RRR,3.0.4,59.95398184157797,
Balas and Sarzynnska,"Dla tego zadania, docelową postacią jest Bergmite:","Więc gdy tylko Bergmite (jego imię lub jego podobizna) pojawi się na ekranie, naciśnij spację tak szybko jak to możliwe. Uderz w spację gdy tylko zobaczysz podobiznę Bergmitea lub słowo BERGMITE.

Naciśnij spację by rozpocząć zadanie",target3,stimuli/t3.jpg,29,39,stimuli/filler4.jpg,filler,False,None,,,,,,,,,,,,,,0,0,0,0,,,,,0,1,1,2,0,38,38,38,,,,,,,,,,,,,,,,,,,,,,,,,,,,,,,,,,,,,,,,,,,,,,,,,,,,,CS1_USpos,None,1,,,,,,,,,,,,,,,,,,25,m,29,n,2019_Dec_08_1015,ec_RRR,3.0.4,59.95398184157797,
Balas and Sarzynnska,"Dla tego zadania, docelową postacią jest Bergmite:","Więc gdy tylko Bergmite (jego imię lub jego podobizna) pojawi się na ekranie, naciśnij spację tak szybko jak to możliwe. Uderz w spację gdy tylko zobaczysz podobiznę Bergmitea lub słowo BERGMITE.

Naciśnij spację by rozpocząć zadanie",target3,stimuli/t3.jpg,29,40,stimuli/blank.jpg,blank,False,None,,,,,,,,,,,,,,0,0,0,0,,,,,0,1,1,2,0,39,39,39,,,,,,,,,,,,,,,,,,,,,,,,,,,,,,,,,,,,,,,,,,,,,,,,,,,,,CS1_USpos,None,1,,,,,,,,,,,,,,,,,,25,m,29,n,2019_Dec_08_1015,ec_RRR,3.0.4,59.95398184157797,
Balas and Sarzynnska,"Dla tego zadania, docelową postacią jest Bergmite:","Więc gdy tylko Bergmite (jego imię lub jego podobizna) pojawi się na ekranie, naciśnij spację tak szybko jak to możliwe. Uderz w spację gdy tylko zobaczysz podobiznę Bergmitea lub słowo BERGMITE.

Naciśnij spację by rozpocząć zadanie",target3,stimuli/t3.jpg,29,41,stimuli/cs2_neg2.jpg,CSUS,False,None,,,,,,,,,,,,,,0,0,0,0,,,,,0,1,1,2,0,40,40,40,,,,,,,,,,,,,,,,,,,,,,,,,,,,,,,,,,,,,,,,,,,,,,,,,,,,,CS1_USpos,None,1,,,,,,,,,,,,,,,,,,25,m,29,n,2019_Dec_08_1015,ec_RRR,3.0.4,59.95398184157797,
Balas and Sarzynnska,"Dla tego zadania, docelową postacią jest Bergmite:","Więc gdy tylko Bergmite (jego imię lub jego podobizna) pojawi się na ekranie, naciśnij spację tak szybko jak to możliwe. Uderz w spację gdy tylko zobaczysz podobiznę Bergmitea lub słowo BERGMITE.

Naciśnij spację by rozpocząć zadanie",target3,stimuli/t3.jpg,29,42,stimuli/blank.jpg,blank,False,None,,,,,,,,,,,,,,0,0,0,0,,,,,0,1,1,2,0,41,41,41,,,,,,,,,,,,,,,,,,,,,,,,,,,,,,,,,,,,,,,,,,,,,,,,,,,,,CS1_USpos,None,1,,,,,,,,,,,,,,,,,,25,m,29,n,2019_Dec_08_1015,ec_RRR,3.0.4,59.95398184157797,
Balas and Sarzynnska,"Dla tego zadania, docelową postacią jest Bergmite:","Więc gdy tylko Bergmite (jego imię lub jego podobizna) pojawi się na ekranie, naciśnij spację tak szybko jak to możliwe. Uderz w spację gdy tylko zobaczysz podobiznę Bergmitea lub słowo BERGMITE.

Naciśnij spację by rozpocząć zadanie",target3,stimuli/t3.jpg,29,43,stimuli/filler38.jpg,filler,False,None,,,,,,,,,,,,,,0,0,0,0,,,,,0,1,1,2,0,42,42,42,,,,,,,,,,,,,,,,,,,,,,,,,,,,,,,,,,,,,,,,,,,,,,,,,,,,,CS1_USpos,None,1,,,,,,,,,,,,,,,,,,25,m,29,n,2019_Dec_08_1015,ec_RRR,3.0.4,59.95398184157797,
Balas and Sarzynnska,"Dla tego zadania, docelową postacią jest Bergmite:","Więc gdy tylko Bergmite (jego imię lub jego podobizna) pojawi się na ekranie, naciśnij spację tak szybko jak to możliwe. Uderz w spację gdy tylko zobaczysz podobiznę Bergmitea lub słowo BERGMITE.

Naciśnij spację by rozpocząć zadanie",target3,stimuli/t3.jpg,29,44,stimuli/filler6.jpg,filler,False,None,,,,,,,,,,,,,,0,0,0,0,,,,,0,1,1,2,0,43,43,43,,,,,,,,,,,,,,,,,,,,,,,,,,,,,,,,,,,,,,,,,,,,,,,,,,,,,CS1_USpos,None,1,,,,,,,,,,,,,,,,,,25,m,29,n,2019_Dec_08_1015,ec_RRR,3.0.4,59.95398184157797,
Balas and Sarzynnska,"Dla tego zadania, docelową postacią jest Bergmite:","Więc gdy tylko Bergmite (jego imię lub jego podobizna) pojawi się na ekranie, naciśnij spację tak szybko jak to możliwe. Uderz w spację gdy tylko zobaczysz podobiznę Bergmitea lub słowo BERGMITE.

Naciśnij spację by rozpocząć zadanie",target3,stimuli/t3.jpg,29,45,stimuli/filler29.jpg,filler,False,None,,,,,,,,,,,,,,0,0,0,0,,,,,0,1,1,2,0,44,44,44,,,,,,,,,,,,,,,,,,,,,,,,,,,,,,,,,,,,,,,,,,,,,,,,,,,,,CS1_USpos,None,1,,,,,,,,,,,,,,,,,,25,m,29,n,2019_Dec_08_1015,ec_RRR,3.0.4,59.95398184157797,
Balas and Sarzynnska,"Dla tego zadania, docelową postacią jest Bergmite:","Więc gdy tylko Bergmite (jego imię lub jego podobizna) pojawi się na ekranie, naciśnij spację tak szybko jak to możliwe. Uderz w spację gdy tylko zobaczysz podobiznę Bergmitea lub słowo BERGMITE.

Naciśnij spację by rozpocząć zadanie",target3,stimuli/t3.jpg,29,46,stimuli/filler47.jpg,filler,False,None,,,,,,,,,,,,,,0,0,0,0,,,,,0,1,1,2,0,45,45,45,,,,,,,,,,,,,,,,,,,,,,,,,,,,,,,,,,,,,,,,,,,,,,,,,,,,,CS1_USpos,None,1,,,,,,,,,,,,,,,,,,25,m,29,n,2019_Dec_08_1015,ec_RRR,3.0.4,59.95398184157797,
Balas and Sarzynnska,"Dla tego zadania, docelową postacią jest Bergmite:","Więc gdy tylko Bergmite (jego imię lub jego podobizna) pojawi się na ekranie, naciśnij spację tak szybko jak to możliwe. Uderz w spację gdy tylko zobaczysz podobiznę Bergmitea lub słowo BERGMITE.

Naciśnij spację by rozpocząć zadanie",target3,stimuli/t3.jpg,29,47,stimuli/filler7.jpg,filler,False,None,,,,,,,,,,,,,,0,0,0,0,,,,,0,1,1,2,0,46,46,46,,,,,,,,,,,,,,,,,,,,,,,,,,,,,,,,,,,,,,,,,,,,,,,,,,,,,CS1_USpos,None,1,,,,,,,,,,,,,,,,,,25,m,29,n,2019_Dec_08_1015,ec_RRR,3.0.4,59.95398184157797,
Balas and Sarzynnska,"Dla tego zadania, docelową postacią jest Bergmite:","Więc gdy tylko Bergmite (jego imię lub jego podobizna) pojawi się na ekranie, naciśnij spację tak szybko jak to możliwe. Uderz w spację gdy tylko zobaczysz podobiznę Bergmitea lub słowo BERGMITE.

Naciśnij spację by rozpocząć zadanie",target3,stimuli/t3.jpg,29,48,stimuli/filler44.jpg,filler,False,None,,,,,,,,,,,,,,0,0,0,0,,,,,0,1,1,2,0,47,47,47,,,,,,,,,,,,,,,,,,,,,,,,,,,,,,,,,,,,,,,,,,,,,,,,,,,,,CS1_USpos,None,1,,,,,,,,,,,,,,,,,,25,m,29,n,2019_Dec_08_1015,ec_RRR,3.0.4,59.95398184157797,
Balas and Sarzynnska,"Dla tego zadania, docelową postacią jest Bergmite:","Więc gdy tylko Bergmite (jego imię lub jego podobizna) pojawi się na ekranie, naciśnij spację tak szybko jak to możliwe. Uderz w spację gdy tylko zobaczysz podobiznę Bergmitea lub słowo BERGMITE.

Naciśnij spację by rozpocząć zadanie",target3,stimuli/t3.jpg,29,49,stimuli/filler17.jpg,filler,False,None,,,,,,,,,,,,,,0,0,0,0,,,,,0,1,1,2,0,48,48,48,,,,,,,,,,,,,,,,,,,,,,,,,,,,,,,,,,,,,,,,,,,,,,,,,,,,,CS1_USpos,None,1,,,,,,,,,,,,,,,,,,25,m,29,n,2019_Dec_08_1015,ec_RRR,3.0.4,59.95398184157797,
Balas and Sarzynnska,"Dla tego zadania, docelową postacią jest Bergmite:","Więc gdy tylko Bergmite (jego imię lub jego podobizna) pojawi się na ekranie, naciśnij spację tak szybko jak to możliwe. Uderz w spację gdy tylko zobaczysz podobiznę Bergmitea lub słowo BERGMITE.

Naciśnij spację by rozpocząć zadanie",target3,stimuli/t3.jpg,29,50,stimuli/blank.jpg,blank,False,None,,,,,,,,,,,,,,0,0,0,0,,,,,0,1,1,2,0,49,49,49,,,,,,,,,,,,,,,,,,,,,,,,,,,,,,,,,,,,,,,,,,,,,,,,,,,,,CS1_USpos,None,1,,,,,,,,,,,,,,,,,,25,m,29,n,2019_Dec_08_1015,ec_RRR,3.0.4,59.95398184157797,
Balas and Sarzynnska,"Dla tego zadania, docelową postacią jest Bergmite:","Więc gdy tylko Bergmite (jego imię lub jego podobizna) pojawi się na ekranie, naciśnij spację tak szybko jak to możliwe. Uderz w spację gdy tylko zobaczysz podobiznę Bergmitea lub słowo BERGMITE.

Naciśnij spację by rozpocząć zadanie",target3,stimuli/t3.jpg,29,51,stimuli/cs1_pos13.jpg,CSUS,False,None,,,,,,,,,,,,,,0,0,0,0,,,,,0,1,1,2,0,50,50,50,,,,,,,,,,,,,,,,,,,,,,,,,,,,,,,,,,,,,,,,,,,,,,,,,,,,,CS1_USpos,None,1,,,,,,,,,,,,,,,,,,25,m,29,n,2019_Dec_08_1015,ec_RRR,3.0.4,59.95398184157797,
Balas and Sarzynnska,"Dla tego zadania, docelową postacią jest Bergmite:","Więc gdy tylko Bergmite (jego imię lub jego podobizna) pojawi się na ekranie, naciśnij spację tak szybko jak to możliwe. Uderz w spację gdy tylko zobaczysz podobiznę Bergmitea lub słowo BERGMITE.

Naciśnij spację by rozpocząć zadanie",target3,stimuli/t3.jpg,29,52,stimuli/blank.jpg,blank,False,None,,,,,,,,,,,,,,0,0,0,0,,,,,0,1,1,2,0,51,51,51,,,,,,,,,,,,,,,,,,,,,,,,,,,,,,,,,,,,,,,,,,,,,,,,,,,,,CS1_USpos,None,1,,,,,,,,,,,,,,,,,,25,m,29,n,2019_Dec_08_1015,ec_RRR,3.0.4,59.95398184157797,
Balas and Sarzynnska,"Dla tego zadania, docelową postacią jest Bergmite:","Więc gdy tylko Bergmite (jego imię lub jego podobizna) pojawi się na ekranie, naciśnij spację tak szybko jak to możliwe. Uderz w spację gdy tylko zobaczysz podobiznę Bergmitea lub słowo BERGMITE.

Naciśnij spację by rozpocząć zadanie",target3,stimuli/t3.jpg,29,53,stimuli/filler43.jpg,filler,False,None,,,,,,,,,,,,,,0,0,0,0,,,,,0,1,1,2,0,52,52,52,,,,,,,,,,,,,,,,,,,,,,,,,,,,,,,,,,,,,,,,,,,,,,,,,,,,,CS1_USpos,None,1,,,,,,,,,,,,,,,,,,25,m,29,n,2019_Dec_08_1015,ec_RRR,3.0.4,59.95398184157797,
Balas and Sarzynnska,"Dla tego zadania, docelową postacią jest Bergmite:","Więc gdy tylko Bergmite (jego imię lub jego podobizna) pojawi się na ekranie, naciśnij spację tak szybko jak to możliwe. Uderz w spację gdy tylko zobaczysz podobiznę Bergmitea lub słowo BERGMITE.

Naciśnij spację by rozpocząć zadanie",target3,stimuli/t3.jpg,29,54,stimuli/filler36.jpg,filler,False,None,,,,,,,,,,,,,,0,0,0,0,,,,,0,1,1,2,0,53,53,53,,,,,,,,,,,,,,,,,,,,,,,,,,,,,,,,,,,,,,,,,,,,,,,,,,,,,CS1_USpos,None,1,,,,,,,,,,,,,,,,,,25,m,29,n,2019_Dec_08_1015,ec_RRR,3.0.4,59.95398184157797,
Balas and Sarzynnska,"Dla tego zadania, docelową postacią jest Bergmite:","Więc gdy tylko Bergmite (jego imię lub jego podobizna) pojawi się na ekranie, naciśnij spację tak szybko jak to możliwe. Uderz w spację gdy tylko zobaczysz podobiznę Bergmitea lub słowo BERGMITE.

Naciśnij spację by rozpocząć zadanie",target3,stimuli/t3.jpg,29,55,stimuli/filler39.jpg,filler,False,None,,,,,,,,,,,,,,0,0,0,0,,,,,0,1,1,2,0,54,54,54,,,,,,,,,,,,,,,,,,,,,,,,,,,,,,,,,,,,,,,,,,,,,,,,,,,,,CS1_USpos,None,1,,,,,,,,,,,,,,,,,,25,m,29,n,2019_Dec_08_1015,ec_RRR,3.0.4,59.95398184157797,
Balas and Sarzynnska,"Dla tego zadania, docelową postacią jest Bergmite:","Więc gdy tylko Bergmite (jego imię lub jego podobizna) pojawi się na ekranie, naciśnij spację tak szybko jak to możliwe. Uderz w spację gdy tylko zobaczysz podobiznę Bergmitea lub słowo BERGMITE.

Naciśnij spację by rozpocząć zadanie",target3,stimuli/t3.jpg,29,56,stimuli/filler16.jpg,filler,False,None,,,,,,,,,,,,,,0,0,0,0,,,,,0,1,1,2,0,55,55,55,,,,,,,,,,,,,,,,,,,,,,,,,,,,,,,,,,,,,,,,,,,,,,,,,,,,,CS1_USpos,None,1,,,,,,,,,,,,,,,,,,25,m,29,n,2019_Dec_08_1015,ec_RRR,3.0.4,59.95398184157797,
Balas and Sarzynnska,"Dla tego zadania, docelową postacią jest Bergmite:","Więc gdy tylko Bergmite (jego imię lub jego podobizna) pojawi się na ekranie, naciśnij spację tak szybko jak to możliwe. Uderz w spację gdy tylko zobaczysz podobiznę Bergmitea lub słowo BERGMITE.

Naciśnij spację by rozpocząć zadanie",target3,stimuli/t3.jpg,29,57,stimuli/filler32.jpg,filler,False,None,,,,,,,,,,,,,,0,0,0,0,,,,,0,1,1,2,0,56,56,56,,,,,,,,,,,,,,,,,,,,,,,,,,,,,,,,,,,,,,,,,,,,,,,,,,,,,CS1_USpos,None,1,,,,,,,,,,,,,,,,,,25,m,29,n,2019_Dec_08_1015,ec_RRR,3.0.4,59.95398184157797,
Balas and Sarzynnska,"Dla tego zadania, docelową postacią jest Bergmite:","Więc gdy tylko Bergmite (jego imię lub jego podobizna) pojawi się na ekranie, naciśnij spację tak szybko jak to możliwe. Uderz w spację gdy tylko zobaczysz podobiznę Bergmitea lub słowo BERGMITE.

Naciśnij spację by rozpocząć zadanie",target3,stimuli/t3.jpg,29,58,stimuli/filler18.jpg,filler,False,None,,,,,,,,,,,,,,0,0,0,0,,,,,0,1,1,2,0,57,57,57,,,,,,,,,,,,,,,,,,,,,,,,,,,,,,,,,,,,,,,,,,,,,,,,,,,,,CS1_USpos,None,1,,,,,,,,,,,,,,,,,,25,m,29,n,2019_Dec_08_1015,ec_RRR,3.0.4,59.95398184157797,
Balas and Sarzynnska,"Dla tego zadania, docelową postacią jest Bergmite:","Więc gdy tylko Bergmite (jego imię lub jego podobizna) pojawi się na ekranie, naciśnij spację tak szybko jak to możliwe. Uderz w spację gdy tylko zobaczysz podobiznę Bergmitea lub słowo BERGMITE.

Naciśnij spację by rozpocząć zadanie",target3,stimuli/t3.jpg,29,59,stimuli/filler42.jpg,filler,False,None,,,,,,,,,,,,,,0,0,0,0,,,,,0,1,1,2,0,58,58,58,,,,,,,,,,,,,,,,,,,,,,,,,,,,,,,,,,,,,,,,,,,,,,,,,,,,,CS1_USpos,None,1,,,,,,,,,,,,,,,,,,25,m,29,n,2019_Dec_08_1015,ec_RRR,3.0.4,59.95398184157797,
Balas and Sarzynnska,"Dla tego zadania, docelową postacią jest Bergmite:","Więc gdy tylko Bergmite (jego imię lub jego podobizna) pojawi się na ekranie, naciśnij spację tak szybko jak to możliwe. Uderz w spację gdy tylko zobaczysz podobiznę Bergmitea lub słowo BERGMITE.

Naciśnij spację by rozpocząć zadanie",target3,stimuli/t3.jpg,29,60,stimuli/blank.jpg,blank,False,None,,,,,,,,,,,,,,0,0,0,0,,,,,0,1,1,2,0,59,59,59,,,,,,,,,,,,,,,,,,,,,,,,,,,,,,,,,,,,,,,,,,,,,,,,,,,,,CS1_USpos,None,1,,,,,,,,,,,,,,,,,,25,m,29,n,2019_Dec_08_1015,ec_RRR,3.0.4,59.95398184157797,
Balas and Sarzynnska,"Dla tego zadania, docelową postacią jest Bergmite:","Więc gdy tylko Bergmite (jego imię lub jego podobizna) pojawi się na ekranie, naciśnij spację tak szybko jak to możliwe. Uderz w spację gdy tylko zobaczysz podobiznę Bergmitea lub słowo BERGMITE.

Naciśnij spację by rozpocząć zadanie",target3,stimuli/t3.jpg,29,61,stimuli/cs2_neg1.jpg,CSUS,False,None,,,,,,,,,,,,,,0,0,0,0,,,,,0,1,1,2,0,60,60,60,,,,,,,,,,,,,,,,,,,,,,,,,,,,,,,,,,,,,,,,,,,,,,,,,,,,,CS1_USpos,None,1,,,,,,,,,,,,,,,,,,25,m,29,n,2019_Dec_08_1015,ec_RRR,3.0.4,59.95398184157797,
Balas and Sarzynnska,"Dla tego zadania, docelową postacią jest Bergmite:","Więc gdy tylko Bergmite (jego imię lub jego podobizna) pojawi się na ekranie, naciśnij spację tak szybko jak to możliwe. Uderz w spację gdy tylko zobaczysz podobiznę Bergmitea lub słowo BERGMITE.

Naciśnij spację by rozpocząć zadanie",target3,stimuli/t3.jpg,29,62,stimuli/blank.jpg,blank,False,None,,,,,,,,,,,,,,0,0,0,0,,,,,0,1,1,2,0,61,61,61,,,,,,,,,,,,,,,,,,,,,,,,,,,,,,,,,,,,,,,,,,,,,,,,,,,,,CS1_USpos,None,1,,,,,,,,,,,,,,,,,,25,m,29,n,2019_Dec_08_1015,ec_RRR,3.0.4,59.95398184157797,
Balas and Sarzynnska,"Dla tego zadania, docelową postacią jest Bergmite:","Więc gdy tylko Bergmite (jego imię lub jego podobizna) pojawi się na ekranie, naciśnij spację tak szybko jak to możliwe. Uderz w spację gdy tylko zobaczysz podobiznę Bergmitea lub słowo BERGMITE.

Naciśnij spację by rozpocząć zadanie",target3,stimuli/t3.jpg,29,63,stimuli/target3_8.jpg,target,True,space,,,,,,,,,,,,,,0,0,0,0,,,,,0,1,1,2,0,62,62,62,,,,,,,,,,,,,,,,,,,,,,,,,,,,,,,,,,,,,,,,,,,,,,,,,,,,,CS1_USpos,space,1,0.6833528090000982,,,,,,,,,,,,,,,,,25,m,29,n,2019_Dec_08_1015,ec_RRR,3.0.4,59.95398184157797,
Balas and Sarzynnska,"Dla tego zadania, docelową postacią jest Bergmite:","Więc gdy tylko Bergmite (jego imię lub jego podobizna) pojawi się na ekranie, naciśnij spację tak szybko jak to możliwe. Uderz w spację gdy tylko zobaczysz podobiznę Bergmitea lub słowo BERGMITE.

Naciśnij spację by rozpocząć zadanie",target3,stimuli/t3.jpg,29,64,stimuli/filler3.jpg,filler,False,None,,,,,,,,,,,,,,0,0,0,0,,,,,0,1,1,2,0,63,63,63,,,,,,,,,,,,,,,,,,,,,,,,,,,,,,,,,,,,,,,,,,,,,,,,,,,,,CS1_USpos,None,1,,,,,,,,,,,,,,,,,,25,m,29,n,2019_Dec_08_1015,ec_RRR,3.0.4,59.95398184157797,
Balas and Sarzynnska,"Dla tego zadania, docelową postacią jest Bergmite:","Więc gdy tylko Bergmite (jego imię lub jego podobizna) pojawi się na ekranie, naciśnij spację tak szybko jak to możliwe. Uderz w spację gdy tylko zobaczysz podobiznę Bergmitea lub słowo BERGMITE.

Naciśnij spację by rozpocząć zadanie",target3,stimuli/t3.jpg,29,65,stimuli/filler8.jpg,filler,False,None,,,,,,,,,,,,,,0,0,0,0,,,,,0,1,1,2,0,64,64,64,,,,,,,,,,,,,,,,,,,,,,,,,,,,,,,,,,,,,,,,,,,,,,,,,,,,,CS1_USpos,None,1,,,,,,,,,,,,,,,,,,25,m,29,n,2019_Dec_08_1015,ec_RRR,3.0.4,59.95398184157797,
Balas and Sarzynnska,"Dla tego zadania, docelową postacią jest Bergmite:","Więc gdy tylko Bergmite (jego imię lub jego podobizna) pojawi się na ekranie, naciśnij spację tak szybko jak to możliwe. Uderz w spację gdy tylko zobaczysz podobiznę Bergmitea lub słowo BERGMITE.

Naciśnij spację by rozpocząć zadanie",target3,stimuli/t3.jpg,29,66,stimuli/filler15.jpg,filler,False,None,,,,,,,,,,,,,,0,0,0,0,,,,,0,1,1,2,0,65,65,65,,,,,,,,,,,,,,,,,,,,,,,,,,,,,,,,,,,,,,,,,,,,,,,,,,,,,CS1_USpos,None,1,,,,,,,,,,,,,,,,,,25,m,29,n,2019_Dec_08_1015,ec_RRR,3.0.4,59.95398184157797,
Balas and Sarzynnska,"Dla tego zadania, docelową postacią jest Bergmite:","Więc gdy tylko Bergmite (jego imię lub jego podobizna) pojawi się na ekranie, naciśnij spację tak szybko jak to możliwe. Uderz w spację gdy tylko zobaczysz podobiznę Bergmitea lub słowo BERGMITE.

Naciśnij spację by rozpocząć zadanie",target3,stimuli/t3.jpg,29,67,stimuli/target3_9.jpg,target,True,space,,,,,,,,,,,,,,0,0,0,0,,,,,0,1,1,2,0,66,66,66,,,,,,,,,,,,,,,,,,,,,,,,,,,,,,,,,,,,,,,,,,,,,,,,,,,,,CS1_USpos,space,1,0.8137167499999123,,,,,,,,,,,,,,,,,25,m,29,n,2019_Dec_08_1015,ec_RRR,3.0.4,59.95398184157797,
Balas and Sarzynnska,"Dla tego zadania, docelową postacią jest Bergmite:","Więc gdy tylko Bergmite (jego imię lub jego podobizna) pojawi się na ekranie, naciśnij spację tak szybko jak to możliwe. Uderz w spację gdy tylko zobaczysz podobiznę Bergmitea lub słowo BERGMITE.

Naciśnij spację by rozpocząć zadanie",target3,stimuli/t3.jpg,29,68,stimuli/target3_3.jpg,target,True,space,,,,,,,,,,,,,,0,0,0,0,,,,,0,1,1,2,0,67,67,67,,,,,,,,,,,,,,,,,,,,,,,,,,,,,,,,,,,,,,,,,,,,,,,,,,,,,CS1_USpos,space,1,1.0188296399999217,,,,,,,,,,,,,,,,,25,m,29,n,2019_Dec_08_1015,ec_RRR,3.0.4,59.95398184157797,
Balas and Sarzynnska,"Dla tego zadania, docelową postacią jest Bergmite:","Więc gdy tylko Bergmite (jego imię lub jego podobizna) pojawi się na ekranie, naciśnij spację tak szybko jak to możliwe. Uderz w spację gdy tylko zobaczysz podobiznę Bergmitea lub słowo BERGMITE.

Naciśnij spację by rozpocząć zadanie",target3,stimuli/t3.jpg,29,69,stimuli/target3_10.jpg,target,True,space,,,,,,,,,,,,,,0,0,0,0,,,,,0,1,1,2,0,68,68,68,,,,,,,,,,,,,,,,,,,,,,,,,,,,,,,,,,,,,,,,,,,,,,,,,,,,,CS1_USpos,space,1,0.6524535030000607,,,,,,,,,,,,,,,,,25,m,29,n,2019_Dec_08_1015,ec_RRR,3.0.4,59.95398184157797,
Balas and Sarzynnska,"Dla tego zadania, docelową postacią jest Bergmite:","Więc gdy tylko Bergmite (jego imię lub jego podobizna) pojawi się na ekranie, naciśnij spację tak szybko jak to możliwe. Uderz w spację gdy tylko zobaczysz podobiznę Bergmitea lub słowo BERGMITE.

Naciśnij spację by rozpocząć zadanie",target3,stimuli/t3.jpg,29,70,stimuli/blank.jpg,blank,False,None,,,,,,,,,,,,,,0,0,0,0,,,,,0,1,1,2,0,69,69,69,,,,,,,,,,,,,,,,,,,,,,,,,,,,,,,,,,,,,,,,,,,,,,,,,,,,,CS1_USpos,None,1,,,,,,,,,,,,,,,,,,25,m,29,n,2019_Dec_08_1015,ec_RRR,3.0.4,59.95398184157797,
Balas and Sarzynnska,"Dla tego zadania, docelową postacią jest Bergmite:","Więc gdy tylko Bergmite (jego imię lub jego podobizna) pojawi się na ekranie, naciśnij spację tak szybko jak to możliwe. Uderz w spację gdy tylko zobaczysz podobiznę Bergmitea lub słowo BERGMITE.

Naciśnij spację by rozpocząć zadanie",target3,stimuli/t3.jpg,29,71,stimuli/cs1_pos10.jpg,CSUS,False,None,,,,,,,,,,,,,,0,0,0,0,,,,,0,1,1,2,0,70,70,70,,,,,,,,,,,,,,,,,,,,,,,,,,,,,,,,,,,,,,,,,,,,,,,,,,,,,CS1_USpos,None,1,,,,,,,,,,,,,,,,,,25,m,29,n,2019_Dec_08_1015,ec_RRR,3.0.4,59.95398184157797,
Balas and Sarzynnska,"Dla tego zadania, docelową postacią jest Bergmite:","Więc gdy tylko Bergmite (jego imię lub jego podobizna) pojawi się na ekranie, naciśnij spację tak szybko jak to możliwe. Uderz w spację gdy tylko zobaczysz podobiznę Bergmitea lub słowo BERGMITE.

Naciśnij spację by rozpocząć zadanie",target3,stimuli/t3.jpg,29,72,stimuli/blank.jpg,blank,False,None,,,,,,,,,,,,,,0,0,0,0,,,,,0,1,1,2,0,71,71,71,,,,,,,,,,,,,,,,,,,,,,,,,,,,,,,,,,,,,,,,,,,,,,,,,,,,,CS1_USpos,None,1,,,,,,,,,,,,,,,,,,25,m,29,n,2019_Dec_08_1015,ec_RRR,3.0.4,59.95398184157797,
Balas and Sarzynnska,"Dla tego zadania, docelową postacią jest Bergmite:","Więc gdy tylko Bergmite (jego imię lub jego podobizna) pojawi się na ekranie, naciśnij spację tak szybko jak to możliwe. Uderz w spację gdy tylko zobaczysz podobiznę Bergmitea lub słowo BERGMITE.

Naciśnij spację by rozpocząć zadanie",target3,stimuli/t3.jpg,29,73,stimuli/filler27.jpg,filler,False,None,,,,,,,,,,,,,,0,0,0,0,,,,,0,1,1,2,0,72,72,72,,,,,,,,,,,,,,,,,,,,,,,,,,,,,,,,,,,,,,,,,,,,,,,,,,,,,CS1_USpos,None,1,,,,,,,,,,,,,,,,,,25,m,29,n,2019_Dec_08_1015,ec_RRR,3.0.4,59.95398184157797,
Balas and Sarzynnska,"Dla tego zadania, docelową postacią jest Bergmite:","Więc gdy tylko Bergmite (jego imię lub jego podobizna) pojawi się na ekranie, naciśnij spację tak szybko jak to możliwe. Uderz w spację gdy tylko zobaczysz podobiznę Bergmitea lub słowo BERGMITE.

Naciśnij spację by rozpocząć zadanie",target3,stimuli/t3.jpg,29,74,stimuli/target3_1.jpg,target,True,space,,,,,,,,,,,,,,0,0,0,0,,,,,0,1,1,2,0,73,73,73,,,,,,,,,,,,,,,,,,,,,,,,,,,,,,,,,,,,,,,,,,,,,,,,,,,,,CS1_USpos,space,1,0.7188714209999034,,,,,,,,,,,,,,,,,25,m,29,n,2019_Dec_08_1015,ec_RRR,3.0.4,59.95398184157797,
Balas and Sarzynnska,"Dla tego zadania, docelową postacią jest Bergmite:","Więc gdy tylko Bergmite (jego imię lub jego podobizna) pojawi się na ekranie, naciśnij spację tak szybko jak to możliwe. Uderz w spację gdy tylko zobaczysz podobiznę Bergmitea lub słowo BERGMITE.

Naciśnij spację by rozpocząć zadanie",target3,stimuli/t3.jpg,29,75,stimuli/filler20.jpg,filler,False,None,,,,,,,,,,,,,,0,0,0,0,,,,,0,1,1,2,0,74,74,74,,,,,,,,,,,,,,,,,,,,,,,,,,,,,,,,,,,,,,,,,,,,,,,,,,,,,CS1_USpos,None,1,,,,,,,,,,,,,,,,,,25,m,29,n,2019_Dec_08_1015,ec_RRR,3.0.4,59.95398184157797,
Balas and Sarzynnska,"Dla tego zadania, docelową postacią jest Bergmite:","Więc gdy tylko Bergmite (jego imię lub jego podobizna) pojawi się na ekranie, naciśnij spację tak szybko jak to możliwe. Uderz w spację gdy tylko zobaczysz podobiznę Bergmitea lub słowo BERGMITE.

Naciśnij spację by rozpocząć zadanie",target3,stimuli/t3.jpg,29,76,stimuli/filler12.jpg,filler,False,None,,,,,,,,,,,,,,0,0,0,0,,,,,0,1,1,2,0,75,75,75,,,,,,,,,,,,,,,,,,,,,,,,,,,,,,,,,,,,,,,,,,,,,,,,,,,,,CS1_USpos,None,1,,,,,,,,,,,,,,,,,,25,m,29,n,2019_Dec_08_1015,ec_RRR,3.0.4,59.95398184157797,
Balas and Sarzynnska,"Dla tego zadania, docelową postacią jest Bergmite:","Więc gdy tylko Bergmite (jego imię lub jego podobizna) pojawi się na ekranie, naciśnij spację tak szybko jak to możliwe. Uderz w spację gdy tylko zobaczysz podobiznę Bergmitea lub słowo BERGMITE.

Naciśnij spację by rozpocząć zadanie",target3,stimuli/t3.jpg,29,77,stimuli/filler45.jpg,filler,False,None,,,,,,,,,,,,,,0,0,0,0,,,,,0,1,1,2,0,76,76,76,,,,,,,,,,,,,,,,,,,,,,,,,,,,,,,,,,,,,,,,,,,,,,,,,,,,,CS1_USpos,None,1,,,,,,,,,,,,,,,,,,25,m,29,n,2019_Dec_08_1015,ec_RRR,3.0.4,59.95398184157797,
Balas and Sarzynnska,"Dla tego zadania, docelową postacią jest Bergmite:","Więc gdy tylko Bergmite (jego imię lub jego podobizna) pojawi się na ekranie, naciśnij spację tak szybko jak to możliwe. Uderz w spację gdy tylko zobaczysz podobiznę Bergmitea lub słowo BERGMITE.

Naciśnij spację by rozpocząć zadanie",target3,stimuli/t3.jpg,29,78,stimuli/filler2.jpg,filler,False,None,,,,,,,,,,,,,,0,0,0,0,,,,,0,1,1,2,0,77,77,77,,,,,,,,,,,,,,,,,,,,,,,,,,,,,,,,,,,,,,,,,,,,,,,,,,,,,CS1_USpos,None,1,,,,,,,,,,,,,,,,,,25,m,29,n,2019_Dec_08_1015,ec_RRR,3.0.4,59.95398184157797,
Balas and Sarzynnska,"Dla tego zadania, docelową postacią jest Bergmite:","Więc gdy tylko Bergmite (jego imię lub jego podobizna) pojawi się na ekranie, naciśnij spację tak szybko jak to możliwe. Uderz w spację gdy tylko zobaczysz podobiznę Bergmitea lub słowo BERGMITE.

Naciśnij spację by rozpocząć zadanie",target3,stimuli/t3.jpg,29,79,stimuli/filler49.jpg,filler,False,None,,,,,,,,,,,,,,0,0,0,0,,,,,0,1,1,2,0,78,78,78,,,,,,,,,,,,,,,,,,,,,,,,,,,,,,,,,,,,,,,,,,,,,,,,,,,,,CS1_USpos,None,1,,,,,,,,,,,,,,,,,,25,m,29,n,2019_Dec_08_1015,ec_RRR,3.0.4,59.95398184157797,
Balas and Sarzynnska,"Dla tego zadania, docelową postacią jest Bergmite:","Więc gdy tylko Bergmite (jego imię lub jego podobizna) pojawi się na ekranie, naciśnij spację tak szybko jak to możliwe. Uderz w spację gdy tylko zobaczysz podobiznę Bergmitea lub słowo BERGMITE.

Naciśnij spację by rozpocząć zadanie",target3,stimuli/t3.jpg,29,80,stimuli/blank.jpg,blank,False,None,,,,,,,,,,,,,,0,0,0,0,,,,,0,1,1,2,0,79,79,79,,,,,,,,,,,,,,,,,,,,,,,,,,,,,,,,,,,,,,,,,,,,,,,,,,,,,CS1_USpos,None,1,,,,,,,,,,,,,,,,,,25,m,29,n,2019_Dec_08_1015,ec_RRR,3.0.4,59.95398184157797,
Balas and Sarzynnska,"Dla tego zadania, docelową postacią jest Bergmite:","Więc gdy tylko Bergmite (jego imię lub jego podobizna) pojawi się na ekranie, naciśnij spację tak szybko jak to możliwe. Uderz w spację gdy tylko zobaczysz podobiznę Bergmitea lub słowo BERGMITE.

Naciśnij spację by rozpocząć zadanie",target3,stimuli/t3.jpg,29,81,stimuli/cs2_neg7.jpg,CSUS,False,None,,,,,,,,,,,,,,0,0,0,0,,,,,0,1,1,2,0,80,80,80,,,,,,,,,,,,,,,,,,,,,,,,,,,,,,,,,,,,,,,,,,,,,,,,,,,,,CS1_USpos,None,1,,,,,,,,,,,,,,,,,,25,m,29,n,2019_Dec_08_1015,ec_RRR,3.0.4,59.95398184157797,
Balas and Sarzynnska,"Dla tego zadania, docelową postacią jest Bergmite:","Więc gdy tylko Bergmite (jego imię lub jego podobizna) pojawi się na ekranie, naciśnij spację tak szybko jak to możliwe. Uderz w spację gdy tylko zobaczysz podobiznę Bergmitea lub słowo BERGMITE.

Naciśnij spację by rozpocząć zadanie",target3,stimuli/t3.jpg,29,82,stimuli/blank.jpg,blank,False,None,,,,,,,,,,,,,,0,0,0,0,,,,,0,1,1,2,0,81,81,81,,,,,,,,,,,,,,,,,,,,,,,,,,,,,,,,,,,,,,,,,,,,,,,,,,,,,CS1_USpos,None,1,,,,,,,,,,,,,,,,,,25,m,29,n,2019_Dec_08_1015,ec_RRR,3.0.4,59.95398184157797,
Balas and Sarzynnska,"Dla tego zadania, docelową postacią jest Bergmite:","Więc gdy tylko Bergmite (jego imię lub jego podobizna) pojawi się na ekranie, naciśnij spację tak szybko jak to możliwe. Uderz w spację gdy tylko zobaczysz podobiznę Bergmitea lub słowo BERGMITE.

Naciśnij spację by rozpocząć zadanie",target3,stimuli/t3.jpg,29,83,stimuli/target3_2.jpg,target,True,space,,,,,,,,,,,,,,0,0,0,0,,,,,0,1,1,2,0,82,82,82,,,,,,,,,,,,,,,,,,,,,,,,,,,,,,,,,,,,,,,,,,,,,,,,,,,,,CS1_USpos,space,1,0.5344678349999867,,,,,,,,,,,,,,,,,25,m,29,n,2019_Dec_08_1015,ec_RRR,3.0.4,59.95398184157797,
