data_collection_site,instructions_text_top,instructions_text_bottom,block_id,example_image,participant,trial_number,stimulus,trial_type,target_trial,surveillance_correct_response,filler_1_items,filler_2_items,middle_text,left_text,right_text,evaluation_stimulus,left_stimulus,right_stimulus,evaluation_response_indicating_CS1_preferred,awareness_1_question_text,awareness_2a_question_text,awareness_2b_question_text,awareness_2_question_text,record_data_collection_site_variable.thisRepN,record_data_collection_site_variable.thisTrialN,record_data_collection_site_variable.thisN,record_data_collection_site_variable.thisIndex,surveillance_instructions_loop.thisRepN,surveillance_instructions_loop.thisTrialN,surveillance_instructions_loop.thisN,surveillance_instructions_loop.thisIndex,surveillance_blocks_loop.thisRepN,surveillance_blocks_loop.thisTrialN,surveillance_blocks_loop.thisN,surveillance_blocks_loop.thisIndex,surveillance_trials_loop.thisRepN,surveillance_trials_loop.thisTrialN,surveillance_trials_loop.thisN,surveillance_trials_loop.thisIndex,filler_1_instructions_loop.thisRepN,filler_1_instructions_loop.thisTrialN,filler_1_instructions_loop.thisN,filler_1_instructions_loop.thisIndex,filler_1_loop.thisRepN,filler_1_loop.thisTrialN,filler_1_loop.thisN,filler_1_loop.thisIndex,filler_2_instructions_loop.thisRepN,filler_2_instructions_loop.thisTrialN,filler_2_instructions_loop.thisN,filler_2_instructions_loop.thisIndex,filler_2_loop.thisRepN,filler_2_loop.thisTrialN,filler_2_loop.thisN,filler_2_loop.thisIndex,evaluation_instructions_loop.thisRepN,evaluation_instructions_loop.thisTrialN,evaluation_instructions_loop.thisN,evaluation_instructions_loop.thisIndex,evaluation_loop.thisRepN,evaluation_loop.thisTrialN,evaluation_loop.thisN,evaluation_loop.thisIndex,evaluation_trials.thisRepN,evaluation_trials.thisTrialN,evaluation_trials.thisN,evaluation_trials.thisIndex,awareness_instructions_loop.thisRepN,awareness_instructions_loop.thisTrialN,awareness_instructions_loop.thisN,awareness_instructions_loop.thisIndex,awareness_1_trials_loop.thisRepN,awareness_1_trials_loop.thisTrialN,awareness_1_trials_loop.thisN,awareness_1_trials_loop.thisIndex,awareness_2a_trials_loop.thisRepN,awareness_2a_trials_loop.thisTrialN,awareness_2a_trials_loop.thisN,awareness_2a_trials_loop.thisIndex,awareness_2b_trials_loop.thisRepN,awareness_2b_trials_loop.thisTrialN,awareness_2b_trials_loop.thisN,awareness_2b_trials_loop.thisIndex,awareness_2c_trials_loop.thisRepN,awareness_2c_trials_loop.thisTrialN,awareness_2c_trials_loop.thisN,awareness_2c_trials_loop.thisIndex,end_message_loop.thisRepN,end_message_loop.thisTrialN,end_message_loop.thisN,end_message_loop.thisIndex,condition,surveillance_response.keys,surveillance_response.corr,surveillance_response.rt,filler_1_rating.response,filler_1_rating.rt,filler_2_rating.response,filler_2_rating.rt,evaluation_response.keys,evaluation_response.corr,evaluation_response.rt,inputText,awareness_1_response.keys,awareness_1_response.rt,awareness_type_2a_rating.response,awareness_type_2a_rating.rt,awareness_type_2b_rating.response,awareness_type_2b_rating.rt,awareness_type_2c_rating.response,awareness_type_2c_rating.rt,age,gender,participant,UseMonkey,date,expName,psychopyVersion,frameRate,
Balas and Sarzynnska,"Dla tego zadania, docelową postacią jest Scatterbug:","Więc gdy tylko Scatterbug (jego imię lub jego podobizna) pojawi się na ekranie, naciśnij spację tak szybko jak to możliwe. Uderz w spację gdy tylko zobaczysz podobiznę Scatterbuga lub słowo SCATTERBUG.

Naciśnij spację by rozpocząć zadanie",target5,stimuli/t5.jpg,71,1,stimuli/filler26.jpg,filler,False,None,,,,,,,,,,,,,,0,0,0,0,,,,,0,0,0,4,0,0,0,0,,,,,,,,,,,,,,,,,,,,,,,,,,,,,,,,,,,,,,,,,,,,,,,,,,,,,CS1_USneg,None,1,,,,,,,,,,,,,,,,,,23,F,71,n,2019_Nov_24_1418,ec_RRR,3.0.4,59.99668808775441,
Balas and Sarzynnska,"Dla tego zadania, docelową postacią jest Scatterbug:","Więc gdy tylko Scatterbug (jego imię lub jego podobizna) pojawi się na ekranie, naciśnij spację tak szybko jak to możliwe. Uderz w spację gdy tylko zobaczysz podobiznę Scatterbuga lub słowo SCATTERBUG.

Naciśnij spację by rozpocząć zadanie",target5,stimuli/t5.jpg,71,2,stimuli/target5_10.jpg,target,True,space,,,,,,,,,,,,,,0,0,0,0,,,,,0,0,0,4,0,1,1,1,,,,,,,,,,,,,,,,,,,,,,,,,,,,,,,,,,,,,,,,,,,,,,,,,,,,,CS1_USneg,space,1,0.6669262185459957,,,,,,,,,,,,,,,,,23,F,71,n,2019_Nov_24_1418,ec_RRR,3.0.4,59.99668808775441,
Balas and Sarzynnska,"Dla tego zadania, docelową postacią jest Scatterbug:","Więc gdy tylko Scatterbug (jego imię lub jego podobizna) pojawi się na ekranie, naciśnij spację tak szybko jak to możliwe. Uderz w spację gdy tylko zobaczysz podobiznę Scatterbuga lub słowo SCATTERBUG.

Naciśnij spację by rozpocząć zadanie",target5,stimuli/t5.jpg,71,3,stimuli/filler44.jpg,filler,False,None,,,,,,,,,,,,,,0,0,0,0,,,,,0,0,0,4,0,2,2,2,,,,,,,,,,,,,,,,,,,,,,,,,,,,,,,,,,,,,,,,,,,,,,,,,,,,,CS1_USneg,None,1,,,,,,,,,,,,,,,,,,23,F,71,n,2019_Nov_24_1418,ec_RRR,3.0.4,59.99668808775441,
Balas and Sarzynnska,"Dla tego zadania, docelową postacią jest Scatterbug:","Więc gdy tylko Scatterbug (jego imię lub jego podobizna) pojawi się na ekranie, naciśnij spację tak szybko jak to możliwe. Uderz w spację gdy tylko zobaczysz podobiznę Scatterbuga lub słowo SCATTERBUG.

Naciśnij spację by rozpocząć zadanie",target5,stimuli/t5.jpg,71,4,stimuli/filler30.jpg,filler,False,None,,,,,,,,,,,,,,0,0,0,0,,,,,0,0,0,4,0,3,3,3,,,,,,,,,,,,,,,,,,,,,,,,,,,,,,,,,,,,,,,,,,,,,,,,,,,,,CS1_USneg,None,1,,,,,,,,,,,,,,,,,,23,F,71,n,2019_Nov_24_1418,ec_RRR,3.0.4,59.99668808775441,
Balas and Sarzynnska,"Dla tego zadania, docelową postacią jest Scatterbug:","Więc gdy tylko Scatterbug (jego imię lub jego podobizna) pojawi się na ekranie, naciśnij spację tak szybko jak to możliwe. Uderz w spację gdy tylko zobaczysz podobiznę Scatterbuga lub słowo SCATTERBUG.

Naciśnij spację by rozpocząć zadanie",target5,stimuli/t5.jpg,71,5,stimuli/filler8.jpg,filler,False,None,,,,,,,,,,,,,,0,0,0,0,,,,,0,0,0,4,0,4,4,4,,,,,,,,,,,,,,,,,,,,,,,,,,,,,,,,,,,,,,,,,,,,,,,,,,,,,CS1_USneg,None,1,,,,,,,,,,,,,,,,,,23,F,71,n,2019_Nov_24_1418,ec_RRR,3.0.4,59.99668808775441,
Balas and Sarzynnska,"Dla tego zadania, docelową postacią jest Scatterbug:","Więc gdy tylko Scatterbug (jego imię lub jego podobizna) pojawi się na ekranie, naciśnij spację tak szybko jak to możliwe. Uderz w spację gdy tylko zobaczysz podobiznę Scatterbuga lub słowo SCATTERBUG.

Naciśnij spację by rozpocząć zadanie",target5,stimuli/t5.jpg,71,6,stimuli/target5_7.jpg,target,True,space,,,,,,,,,,,,,,0,0,0,0,,,,,0,0,0,4,0,5,5,5,,,,,,,,,,,,,,,,,,,,,,,,,,,,,,,,,,,,,,,,,,,,,,,,,,,,,CS1_USneg,space,1,0.9002277713734657,,,,,,,,,,,,,,,,,23,F,71,n,2019_Nov_24_1418,ec_RRR,3.0.4,59.99668808775441,
Balas and Sarzynnska,"Dla tego zadania, docelową postacią jest Scatterbug:","Więc gdy tylko Scatterbug (jego imię lub jego podobizna) pojawi się na ekranie, naciśnij spację tak szybko jak to możliwe. Uderz w spację gdy tylko zobaczysz podobiznę Scatterbuga lub słowo SCATTERBUG.

Naciśnij spację by rozpocząć zadanie",target5,stimuli/t5.jpg,71,7,stimuli/filler49.jpg,filler,False,None,,,,,,,,,,,,,,0,0,0,0,,,,,0,0,0,4,0,6,6,6,,,,,,,,,,,,,,,,,,,,,,,,,,,,,,,,,,,,,,,,,,,,,,,,,,,,,CS1_USneg,None,1,,,,,,,,,,,,,,,,,,23,F,71,n,2019_Nov_24_1418,ec_RRR,3.0.4,59.99668808775441,
Balas and Sarzynnska,"Dla tego zadania, docelową postacią jest Scatterbug:","Więc gdy tylko Scatterbug (jego imię lub jego podobizna) pojawi się na ekranie, naciśnij spację tak szybko jak to możliwe. Uderz w spację gdy tylko zobaczysz podobiznę Scatterbuga lub słowo SCATTERBUG.

Naciśnij spację by rozpocząć zadanie",target5,stimuli/t5.jpg,71,8,stimuli/filler4.jpg,filler,False,None,,,,,,,,,,,,,,0,0,0,0,,,,,0,0,0,4,0,7,7,7,,,,,,,,,,,,,,,,,,,,,,,,,,,,,,,,,,,,,,,,,,,,,,,,,,,,,CS1_USneg,None,1,,,,,,,,,,,,,,,,,,23,F,71,n,2019_Nov_24_1418,ec_RRR,3.0.4,59.99668808775441,
Balas and Sarzynnska,"Dla tego zadania, docelową postacią jest Scatterbug:","Więc gdy tylko Scatterbug (jego imię lub jego podobizna) pojawi się na ekranie, naciśnij spację tak szybko jak to możliwe. Uderz w spację gdy tylko zobaczysz podobiznę Scatterbuga lub słowo SCATTERBUG.

Naciśnij spację by rozpocząć zadanie",target5,stimuli/t5.jpg,71,9,stimuli/filler1.jpg,filler,False,None,,,,,,,,,,,,,,0,0,0,0,,,,,0,0,0,4,0,8,8,8,,,,,,,,,,,,,,,,,,,,,,,,,,,,,,,,,,,,,,,,,,,,,,,,,,,,,CS1_USneg,None,1,,,,,,,,,,,,,,,,,,23,F,71,n,2019_Nov_24_1418,ec_RRR,3.0.4,59.99668808775441,
Balas and Sarzynnska,"Dla tego zadania, docelową postacią jest Scatterbug:","Więc gdy tylko Scatterbug (jego imię lub jego podobizna) pojawi się na ekranie, naciśnij spację tak szybko jak to możliwe. Uderz w spację gdy tylko zobaczysz podobiznę Scatterbuga lub słowo SCATTERBUG.

Naciśnij spację by rozpocząć zadanie",target5,stimuli/t5.jpg,71,10,stimuli/blank.jpg,blank,False,None,,,,,,,,,,,,,,0,0,0,0,,,,,0,0,0,4,0,9,9,9,,,,,,,,,,,,,,,,,,,,,,,,,,,,,,,,,,,,,,,,,,,,,,,,,,,,,CS1_USneg,None,1,,,,,,,,,,,,,,,,,,23,F,71,n,2019_Nov_24_1418,ec_RRR,3.0.4,59.99668808775441,
Balas and Sarzynnska,"Dla tego zadania, docelową postacią jest Scatterbug:","Więc gdy tylko Scatterbug (jego imię lub jego podobizna) pojawi się na ekranie, naciśnij spację tak szybko jak to możliwe. Uderz w spację gdy tylko zobaczysz podobiznę Scatterbuga lub słowo SCATTERBUG.

Naciśnij spację by rozpocząć zadanie",target5,stimuli/t5.jpg,71,11,stimuli/cs1_neg10.jpg,CSUS,False,None,,,,,,,,,,,,,,0,0,0,0,,,,,0,0,0,4,0,10,10,10,,,,,,,,,,,,,,,,,,,,,,,,,,,,,,,,,,,,,,,,,,,,,,,,,,,,,CS1_USneg,None,1,,,,,,,,,,,,,,,,,,23,F,71,n,2019_Nov_24_1418,ec_RRR,3.0.4,59.99668808775441,
Balas and Sarzynnska,"Dla tego zadania, docelową postacią jest Scatterbug:","Więc gdy tylko Scatterbug (jego imię lub jego podobizna) pojawi się na ekranie, naciśnij spację tak szybko jak to możliwe. Uderz w spację gdy tylko zobaczysz podobiznę Scatterbuga lub słowo SCATTERBUG.

Naciśnij spację by rozpocząć zadanie",target5,stimuli/t5.jpg,71,12,stimuli/blank.jpg,blank,False,None,,,,,,,,,,,,,,0,0,0,0,,,,,0,0,0,4,0,11,11,11,,,,,,,,,,,,,,,,,,,,,,,,,,,,,,,,,,,,,,,,,,,,,,,,,,,,,CS1_USneg,None,1,,,,,,,,,,,,,,,,,,23,F,71,n,2019_Nov_24_1418,ec_RRR,3.0.4,59.99668808775441,
Balas and Sarzynnska,"Dla tego zadania, docelową postacią jest Scatterbug:","Więc gdy tylko Scatterbug (jego imię lub jego podobizna) pojawi się na ekranie, naciśnij spację tak szybko jak to możliwe. Uderz w spację gdy tylko zobaczysz podobiznę Scatterbuga lub słowo SCATTERBUG.

Naciśnij spację by rozpocząć zadanie",target5,stimuli/t5.jpg,71,13,stimuli/filler24.jpg,filler,False,None,,,,,,,,,,,,,,0,0,0,0,,,,,0,0,0,4,0,12,12,12,,,,,,,,,,,,,,,,,,,,,,,,,,,,,,,,,,,,,,,,,,,,,,,,,,,,,CS1_USneg,None,1,,,,,,,,,,,,,,,,,,23,F,71,n,2019_Nov_24_1418,ec_RRR,3.0.4,59.99668808775441,
Balas and Sarzynnska,"Dla tego zadania, docelową postacią jest Scatterbug:","Więc gdy tylko Scatterbug (jego imię lub jego podobizna) pojawi się na ekranie, naciśnij spację tak szybko jak to możliwe. Uderz w spację gdy tylko zobaczysz podobiznę Scatterbuga lub słowo SCATTERBUG.

Naciśnij spację by rozpocząć zadanie",target5,stimuli/t5.jpg,71,14,stimuli/filler39.jpg,filler,False,None,,,,,,,,,,,,,,0,0,0,0,,,,,0,0,0,4,0,13,13,13,,,,,,,,,,,,,,,,,,,,,,,,,,,,,,,,,,,,,,,,,,,,,,,,,,,,,CS1_USneg,None,1,,,,,,,,,,,,,,,,,,23,F,71,n,2019_Nov_24_1418,ec_RRR,3.0.4,59.99668808775441,
Balas and Sarzynnska,"Dla tego zadania, docelową postacią jest Scatterbug:","Więc gdy tylko Scatterbug (jego imię lub jego podobizna) pojawi się na ekranie, naciśnij spację tak szybko jak to możliwe. Uderz w spację gdy tylko zobaczysz podobiznę Scatterbuga lub słowo SCATTERBUG.

Naciśnij spację by rozpocząć zadanie",target5,stimuli/t5.jpg,71,15,stimuli/filler16.jpg,filler,False,None,,,,,,,,,,,,,,0,0,0,0,,,,,0,0,0,4,0,14,14,14,,,,,,,,,,,,,,,,,,,,,,,,,,,,,,,,,,,,,,,,,,,,,,,,,,,,,CS1_USneg,None,1,,,,,,,,,,,,,,,,,,23,F,71,n,2019_Nov_24_1418,ec_RRR,3.0.4,59.99668808775441,
Balas and Sarzynnska,"Dla tego zadania, docelową postacią jest Scatterbug:","Więc gdy tylko Scatterbug (jego imię lub jego podobizna) pojawi się na ekranie, naciśnij spację tak szybko jak to możliwe. Uderz w spację gdy tylko zobaczysz podobiznę Scatterbuga lub słowo SCATTERBUG.

Naciśnij spację by rozpocząć zadanie",target5,stimuli/t5.jpg,71,16,stimuli/filler29.jpg,filler,False,None,,,,,,,,,,,,,,0,0,0,0,,,,,0,0,0,4,0,15,15,15,,,,,,,,,,,,,,,,,,,,,,,,,,,,,,,,,,,,,,,,,,,,,,,,,,,,,CS1_USneg,None,1,,,,,,,,,,,,,,,,,,23,F,71,n,2019_Nov_24_1418,ec_RRR,3.0.4,59.99668808775441,
Balas and Sarzynnska,"Dla tego zadania, docelową postacią jest Scatterbug:","Więc gdy tylko Scatterbug (jego imię lub jego podobizna) pojawi się na ekranie, naciśnij spację tak szybko jak to możliwe. Uderz w spację gdy tylko zobaczysz podobiznę Scatterbuga lub słowo SCATTERBUG.

Naciśnij spację by rozpocząć zadanie",target5,stimuli/t5.jpg,71,17,stimuli/filler20.jpg,filler,False,None,,,,,,,,,,,,,,0,0,0,0,,,,,0,0,0,4,0,16,16,16,,,,,,,,,,,,,,,,,,,,,,,,,,,,,,,,,,,,,,,,,,,,,,,,,,,,,CS1_USneg,None,1,,,,,,,,,,,,,,,,,,23,F,71,n,2019_Nov_24_1418,ec_RRR,3.0.4,59.99668808775441,
Balas and Sarzynnska,"Dla tego zadania, docelową postacią jest Scatterbug:","Więc gdy tylko Scatterbug (jego imię lub jego podobizna) pojawi się na ekranie, naciśnij spację tak szybko jak to możliwe. Uderz w spację gdy tylko zobaczysz podobiznę Scatterbuga lub słowo SCATTERBUG.

Naciśnij spację by rozpocząć zadanie",target5,stimuli/t5.jpg,71,18,stimuli/target5_4.jpg,target,True,space,,,,,,,,,,,,,,0,0,0,0,,,,,0,0,0,4,0,17,17,17,,,,,,,,,,,,,,,,,,,,,,,,,,,,,,,,,,,,,,,,,,,,,,,,,,,,,CS1_USneg,space,1,0.7168722507776693,,,,,,,,,,,,,,,,,23,F,71,n,2019_Nov_24_1418,ec_RRR,3.0.4,59.99668808775441,
Balas and Sarzynnska,"Dla tego zadania, docelową postacią jest Scatterbug:","Więc gdy tylko Scatterbug (jego imię lub jego podobizna) pojawi się na ekranie, naciśnij spację tak szybko jak to możliwe. Uderz w spację gdy tylko zobaczysz podobiznę Scatterbuga lub słowo SCATTERBUG.

Naciśnij spację by rozpocząć zadanie",target5,stimuli/t5.jpg,71,19,stimuli/filler2.jpg,filler,False,None,,,,,,,,,,,,,,0,0,0,0,,,,,0,0,0,4,0,18,18,18,,,,,,,,,,,,,,,,,,,,,,,,,,,,,,,,,,,,,,,,,,,,,,,,,,,,,CS1_USneg,None,1,,,,,,,,,,,,,,,,,,23,F,71,n,2019_Nov_24_1418,ec_RRR,3.0.4,59.99668808775441,
Balas and Sarzynnska,"Dla tego zadania, docelową postacią jest Scatterbug:","Więc gdy tylko Scatterbug (jego imię lub jego podobizna) pojawi się na ekranie, naciśnij spację tak szybko jak to możliwe. Uderz w spację gdy tylko zobaczysz podobiznę Scatterbuga lub słowo SCATTERBUG.

Naciśnij spację by rozpocząć zadanie",target5,stimuli/t5.jpg,71,20,stimuli/blank.jpg,blank,False,None,,,,,,,,,,,,,,0,0,0,0,,,,,0,0,0,4,0,19,19,19,,,,,,,,,,,,,,,,,,,,,,,,,,,,,,,,,,,,,,,,,,,,,,,,,,,,,CS1_USneg,None,1,,,,,,,,,,,,,,,,,,23,F,71,n,2019_Nov_24_1418,ec_RRR,3.0.4,59.99668808775441,
Balas and Sarzynnska,"Dla tego zadania, docelową postacią jest Scatterbug:","Więc gdy tylko Scatterbug (jego imię lub jego podobizna) pojawi się na ekranie, naciśnij spację tak szybko jak to możliwe. Uderz w spację gdy tylko zobaczysz podobiznę Scatterbuga lub słowo SCATTERBUG.

Naciśnij spację by rozpocząć zadanie",target5,stimuli/t5.jpg,71,21,stimuli/cs2_pos12.jpg,CSUS,False,None,,,,,,,,,,,,,,0,0,0,0,,,,,0,0,0,4,0,20,20,20,,,,,,,,,,,,,,,,,,,,,,,,,,,,,,,,,,,,,,,,,,,,,,,,,,,,,CS1_USneg,None,1,,,,,,,,,,,,,,,,,,23,F,71,n,2019_Nov_24_1418,ec_RRR,3.0.4,59.99668808775441,
Balas and Sarzynnska,"Dla tego zadania, docelową postacią jest Scatterbug:","Więc gdy tylko Scatterbug (jego imię lub jego podobizna) pojawi się na ekranie, naciśnij spację tak szybko jak to możliwe. Uderz w spację gdy tylko zobaczysz podobiznę Scatterbuga lub słowo SCATTERBUG.

Naciśnij spację by rozpocząć zadanie",target5,stimuli/t5.jpg,71,22,stimuli/blank.jpg,blank,False,None,,,,,,,,,,,,,,0,0,0,0,,,,,0,0,0,4,0,21,21,21,,,,,,,,,,,,,,,,,,,,,,,,,,,,,,,,,,,,,,,,,,,,,,,,,,,,,CS1_USneg,None,1,,,,,,,,,,,,,,,,,,23,F,71,n,2019_Nov_24_1418,ec_RRR,3.0.4,59.99668808775441,
Balas and Sarzynnska,"Dla tego zadania, docelową postacią jest Scatterbug:","Więc gdy tylko Scatterbug (jego imię lub jego podobizna) pojawi się na ekranie, naciśnij spację tak szybko jak to możliwe. Uderz w spację gdy tylko zobaczysz podobiznę Scatterbuga lub słowo SCATTERBUG.

Naciśnij spację by rozpocząć zadanie",target5,stimuli/t5.jpg,71,23,stimuli/filler34.jpg,filler,False,None,,,,,,,,,,,,,,0,0,0,0,,,,,0,0,0,4,0,22,22,22,,,,,,,,,,,,,,,,,,,,,,,,,,,,,,,,,,,,,,,,,,,,,,,,,,,,,CS1_USneg,None,1,,,,,,,,,,,,,,,,,,23,F,71,n,2019_Nov_24_1418,ec_RRR,3.0.4,59.99668808775441,
Balas and Sarzynnska,"Dla tego zadania, docelową postacią jest Scatterbug:","Więc gdy tylko Scatterbug (jego imię lub jego podobizna) pojawi się na ekranie, naciśnij spację tak szybko jak to możliwe. Uderz w spację gdy tylko zobaczysz podobiznę Scatterbuga lub słowo SCATTERBUG.

Naciśnij spację by rozpocząć zadanie",target5,stimuli/t5.jpg,71,24,stimuli/filler37.jpg,filler,False,None,,,,,,,,,,,,,,0,0,0,0,,,,,0,0,0,4,0,23,23,23,,,,,,,,,,,,,,,,,,,,,,,,,,,,,,,,,,,,,,,,,,,,,,,,,,,,,CS1_USneg,None,1,,,,,,,,,,,,,,,,,,23,F,71,n,2019_Nov_24_1418,ec_RRR,3.0.4,59.99668808775441,
Balas and Sarzynnska,"Dla tego zadania, docelową postacią jest Scatterbug:","Więc gdy tylko Scatterbug (jego imię lub jego podobizna) pojawi się na ekranie, naciśnij spację tak szybko jak to możliwe. Uderz w spację gdy tylko zobaczysz podobiznę Scatterbuga lub słowo SCATTERBUG.

Naciśnij spację by rozpocząć zadanie",target5,stimuli/t5.jpg,71,25,stimuli/target5_9.jpg,target,True,space,,,,,,,,,,,,,,0,0,0,0,,,,,0,0,0,4,0,24,24,24,,,,,,,,,,,,,,,,,,,,,,,,,,,,,,,,,,,,,,,,,,,,,,,,,,,,,CS1_USneg,space,1,0.8502684240229428,,,,,,,,,,,,,,,,,23,F,71,n,2019_Nov_24_1418,ec_RRR,3.0.4,59.99668808775441,
Balas and Sarzynnska,"Dla tego zadania, docelową postacią jest Scatterbug:","Więc gdy tylko Scatterbug (jego imię lub jego podobizna) pojawi się na ekranie, naciśnij spację tak szybko jak to możliwe. Uderz w spację gdy tylko zobaczysz podobiznę Scatterbuga lub słowo SCATTERBUG.

Naciśnij spację by rozpocząć zadanie",target5,stimuli/t5.jpg,71,26,stimuli/filler38.jpg,filler,False,None,,,,,,,,,,,,,,0,0,0,0,,,,,0,0,0,4,0,25,25,25,,,,,,,,,,,,,,,,,,,,,,,,,,,,,,,,,,,,,,,,,,,,,,,,,,,,,CS1_USneg,None,1,,,,,,,,,,,,,,,,,,23,F,71,n,2019_Nov_24_1418,ec_RRR,3.0.4,59.99668808775441,
Balas and Sarzynnska,"Dla tego zadania, docelową postacią jest Scatterbug:","Więc gdy tylko Scatterbug (jego imię lub jego podobizna) pojawi się na ekranie, naciśnij spację tak szybko jak to możliwe. Uderz w spację gdy tylko zobaczysz podobiznę Scatterbuga lub słowo SCATTERBUG.

Naciśnij spację by rozpocząć zadanie",target5,stimuli/t5.jpg,71,27,stimuli/filler17.jpg,filler,False,None,,,,,,,,,,,,,,0,0,0,0,,,,,0,0,0,4,0,26,26,26,,,,,,,,,,,,,,,,,,,,,,,,,,,,,,,,,,,,,,,,,,,,,,,,,,,,,CS1_USneg,None,1,,,,,,,,,,,,,,,,,,23,F,71,n,2019_Nov_24_1418,ec_RRR,3.0.4,59.99668808775441,
Balas and Sarzynnska,"Dla tego zadania, docelową postacią jest Scatterbug:","Więc gdy tylko Scatterbug (jego imię lub jego podobizna) pojawi się na ekranie, naciśnij spację tak szybko jak to możliwe. Uderz w spację gdy tylko zobaczysz podobiznę Scatterbuga lub słowo SCATTERBUG.

Naciśnij spację by rozpocząć zadanie",target5,stimuli/t5.jpg,71,28,stimuli/filler36.jpg,filler,False,None,,,,,,,,,,,,,,0,0,0,0,,,,,0,0,0,4,0,27,27,27,,,,,,,,,,,,,,,,,,,,,,,,,,,,,,,,,,,,,,,,,,,,,,,,,,,,,CS1_USneg,None,1,,,,,,,,,,,,,,,,,,23,F,71,n,2019_Nov_24_1418,ec_RRR,3.0.4,59.99668808775441,
Balas and Sarzynnska,"Dla tego zadania, docelową postacią jest Scatterbug:","Więc gdy tylko Scatterbug (jego imię lub jego podobizna) pojawi się na ekranie, naciśnij spację tak szybko jak to możliwe. Uderz w spację gdy tylko zobaczysz podobiznę Scatterbuga lub słowo SCATTERBUG.

Naciśnij spację by rozpocząć zadanie",target5,stimuli/t5.jpg,71,29,stimuli/filler46.jpg,filler,False,None,,,,,,,,,,,,,,0,0,0,0,,,,,0,0,0,4,0,28,28,28,,,,,,,,,,,,,,,,,,,,,,,,,,,,,,,,,,,,,,,,,,,,,,,,,,,,,CS1_USneg,None,1,,,,,,,,,,,,,,,,,,23,F,71,n,2019_Nov_24_1418,ec_RRR,3.0.4,59.99668808775441,
Balas and Sarzynnska,"Dla tego zadania, docelową postacią jest Scatterbug:","Więc gdy tylko Scatterbug (jego imię lub jego podobizna) pojawi się na ekranie, naciśnij spację tak szybko jak to możliwe. Uderz w spację gdy tylko zobaczysz podobiznę Scatterbuga lub słowo SCATTERBUG.

Naciśnij spację by rozpocząć zadanie",target5,stimuli/t5.jpg,71,30,stimuli/blank.jpg,blank,False,None,,,,,,,,,,,,,,0,0,0,0,,,,,0,0,0,4,0,29,29,29,,,,,,,,,,,,,,,,,,,,,,,,,,,,,,,,,,,,,,,,,,,,,,,,,,,,,CS1_USneg,None,1,,,,,,,,,,,,,,,,,,23,F,71,n,2019_Nov_24_1418,ec_RRR,3.0.4,59.99668808775441,
Balas and Sarzynnska,"Dla tego zadania, docelową postacią jest Scatterbug:","Więc gdy tylko Scatterbug (jego imię lub jego podobizna) pojawi się na ekranie, naciśnij spację tak szybko jak to możliwe. Uderz w spację gdy tylko zobaczysz podobiznę Scatterbuga lub słowo SCATTERBUG.

Naciśnij spację by rozpocząć zadanie",target5,stimuli/t5.jpg,71,31,stimuli/cs1_neg5.jpg,CSUS,False,None,,,,,,,,,,,,,,0,0,0,0,,,,,0,0,0,4,0,30,30,30,,,,,,,,,,,,,,,,,,,,,,,,,,,,,,,,,,,,,,,,,,,,,,,,,,,,,CS1_USneg,None,1,,,,,,,,,,,,,,,,,,23,F,71,n,2019_Nov_24_1418,ec_RRR,3.0.4,59.99668808775441,
Balas and Sarzynnska,"Dla tego zadania, docelową postacią jest Scatterbug:","Więc gdy tylko Scatterbug (jego imię lub jego podobizna) pojawi się na ekranie, naciśnij spację tak szybko jak to możliwe. Uderz w spację gdy tylko zobaczysz podobiznę Scatterbuga lub słowo SCATTERBUG.

Naciśnij spację by rozpocząć zadanie",target5,stimuli/t5.jpg,71,32,stimuli/blank.jpg,blank,False,None,,,,,,,,,,,,,,0,0,0,0,,,,,0,0,0,4,0,31,31,31,,,,,,,,,,,,,,,,,,,,,,,,,,,,,,,,,,,,,,,,,,,,,,,,,,,,,CS1_USneg,None,1,,,,,,,,,,,,,,,,,,23,F,71,n,2019_Nov_24_1418,ec_RRR,3.0.4,59.99668808775441,
Balas and Sarzynnska,"Dla tego zadania, docelową postacią jest Scatterbug:","Więc gdy tylko Scatterbug (jego imię lub jego podobizna) pojawi się na ekranie, naciśnij spację tak szybko jak to możliwe. Uderz w spację gdy tylko zobaczysz podobiznę Scatterbuga lub słowo SCATTERBUG.

Naciśnij spację by rozpocząć zadanie",target5,stimuli/t5.jpg,71,33,stimuli/filler45.jpg,filler,False,None,,,,,,,,,,,,,,0,0,0,0,,,,,0,0,0,4,0,32,32,32,,,,,,,,,,,,,,,,,,,,,,,,,,,,,,,,,,,,,,,,,,,,,,,,,,,,,CS1_USneg,None,1,,,,,,,,,,,,,,,,,,23,F,71,n,2019_Nov_24_1418,ec_RRR,3.0.4,59.99668808775441,
Balas and Sarzynnska,"Dla tego zadania, docelową postacią jest Scatterbug:","Więc gdy tylko Scatterbug (jego imię lub jego podobizna) pojawi się na ekranie, naciśnij spację tak szybko jak to możliwe. Uderz w spację gdy tylko zobaczysz podobiznę Scatterbuga lub słowo SCATTERBUG.

Naciśnij spację by rozpocząć zadanie",target5,stimuli/t5.jpg,71,34,stimuli/filler33.jpg,filler,False,None,,,,,,,,,,,,,,0,0,0,0,,,,,0,0,0,4,0,33,33,33,,,,,,,,,,,,,,,,,,,,,,,,,,,,,,,,,,,,,,,,,,,,,,,,,,,,,CS1_USneg,None,1,,,,,,,,,,,,,,,,,,23,F,71,n,2019_Nov_24_1418,ec_RRR,3.0.4,59.99668808775441,
Balas and Sarzynnska,"Dla tego zadania, docelową postacią jest Scatterbug:","Więc gdy tylko Scatterbug (jego imię lub jego podobizna) pojawi się na ekranie, naciśnij spację tak szybko jak to możliwe. Uderz w spację gdy tylko zobaczysz podobiznę Scatterbuga lub słowo SCATTERBUG.

Naciśnij spację by rozpocząć zadanie",target5,stimuli/t5.jpg,71,35,stimuli/target5_8.jpg,target,True,space,,,,,,,,,,,,,,0,0,0,0,,,,,0,0,0,4,0,34,34,34,,,,,,,,,,,,,,,,,,,,,,,,,,,,,,,,,,,,,,,,,,,,,,,,,,,,,CS1_USneg,space,1,0.716918021440506,,,,,,,,,,,,,,,,,23,F,71,n,2019_Nov_24_1418,ec_RRR,3.0.4,59.99668808775441,
Balas and Sarzynnska,"Dla tego zadania, docelową postacią jest Scatterbug:","Więc gdy tylko Scatterbug (jego imię lub jego podobizna) pojawi się na ekranie, naciśnij spację tak szybko jak to możliwe. Uderz w spację gdy tylko zobaczysz podobiznę Scatterbuga lub słowo SCATTERBUG.

Naciśnij spację by rozpocząć zadanie",target5,stimuli/t5.jpg,71,36,stimuli/filler35.jpg,filler,False,None,,,,,,,,,,,,,,0,0,0,0,,,,,0,0,0,4,0,35,35,35,,,,,,,,,,,,,,,,,,,,,,,,,,,,,,,,,,,,,,,,,,,,,,,,,,,,,CS1_USneg,None,1,,,,,,,,,,,,,,,,,,23,F,71,n,2019_Nov_24_1418,ec_RRR,3.0.4,59.99668808775441,
Balas and Sarzynnska,"Dla tego zadania, docelową postacią jest Scatterbug:","Więc gdy tylko Scatterbug (jego imię lub jego podobizna) pojawi się na ekranie, naciśnij spację tak szybko jak to możliwe. Uderz w spację gdy tylko zobaczysz podobiznę Scatterbuga lub słowo SCATTERBUG.

Naciśnij spację by rozpocząć zadanie",target5,stimuli/t5.jpg,71,37,stimuli/filler32.jpg,filler,False,None,,,,,,,,,,,,,,0,0,0,0,,,,,0,0,0,4,0,36,36,36,,,,,,,,,,,,,,,,,,,,,,,,,,,,,,,,,,,,,,,,,,,,,,,,,,,,,CS1_USneg,None,1,,,,,,,,,,,,,,,,,,23,F,71,n,2019_Nov_24_1418,ec_RRR,3.0.4,59.99668808775441,
Balas and Sarzynnska,"Dla tego zadania, docelową postacią jest Scatterbug:","Więc gdy tylko Scatterbug (jego imię lub jego podobizna) pojawi się na ekranie, naciśnij spację tak szybko jak to możliwe. Uderz w spację gdy tylko zobaczysz podobiznę Scatterbuga lub słowo SCATTERBUG.

Naciśnij spację by rozpocząć zadanie",target5,stimuli/t5.jpg,71,38,stimuli/filler43.jpg,filler,False,None,,,,,,,,,,,,,,0,0,0,0,,,,,0,0,0,4,0,37,37,37,,,,,,,,,,,,,,,,,,,,,,,,,,,,,,,,,,,,,,,,,,,,,,,,,,,,,CS1_USneg,None,1,,,,,,,,,,,,,,,,,,23,F,71,n,2019_Nov_24_1418,ec_RRR,3.0.4,59.99668808775441,
Balas and Sarzynnska,"Dla tego zadania, docelową postacią jest Scatterbug:","Więc gdy tylko Scatterbug (jego imię lub jego podobizna) pojawi się na ekranie, naciśnij spację tak szybko jak to możliwe. Uderz w spację gdy tylko zobaczysz podobiznę Scatterbuga lub słowo SCATTERBUG.

Naciśnij spację by rozpocząć zadanie",target5,stimuli/t5.jpg,71,39,stimuli/filler19.jpg,filler,False,None,,,,,,,,,,,,,,0,0,0,0,,,,,0,0,0,4,0,38,38,38,,,,,,,,,,,,,,,,,,,,,,,,,,,,,,,,,,,,,,,,,,,,,,,,,,,,,CS1_USneg,None,1,,,,,,,,,,,,,,,,,,23,F,71,n,2019_Nov_24_1418,ec_RRR,3.0.4,59.99668808775441,
Balas and Sarzynnska,"Dla tego zadania, docelową postacią jest Scatterbug:","Więc gdy tylko Scatterbug (jego imię lub jego podobizna) pojawi się na ekranie, naciśnij spację tak szybko jak to możliwe. Uderz w spację gdy tylko zobaczysz podobiznę Scatterbuga lub słowo SCATTERBUG.

Naciśnij spację by rozpocząć zadanie",target5,stimuli/t5.jpg,71,40,stimuli/blank.jpg,blank,False,None,,,,,,,,,,,,,,0,0,0,0,,,,,0,0,0,4,0,39,39,39,,,,,,,,,,,,,,,,,,,,,,,,,,,,,,,,,,,,,,,,,,,,,,,,,,,,,CS1_USneg,None,1,,,,,,,,,,,,,,,,,,23,F,71,n,2019_Nov_24_1418,ec_RRR,3.0.4,59.99668808775441,
Balas and Sarzynnska,"Dla tego zadania, docelową postacią jest Scatterbug:","Więc gdy tylko Scatterbug (jego imię lub jego podobizna) pojawi się na ekranie, naciśnij spację tak szybko jak to możliwe. Uderz w spację gdy tylko zobaczysz podobiznę Scatterbuga lub słowo SCATTERBUG.

Naciśnij spację by rozpocząć zadanie",target5,stimuli/t5.jpg,71,41,stimuli/cs2_pos4.jpg,CSUS,False,None,,,,,,,,,,,,,,0,0,0,0,,,,,0,0,0,4,0,40,40,40,,,,,,,,,,,,,,,,,,,,,,,,,,,,,,,,,,,,,,,,,,,,,,,,,,,,,CS1_USneg,None,1,,,,,,,,,,,,,,,,,,23,F,71,n,2019_Nov_24_1418,ec_RRR,3.0.4,59.99668808775441,
Balas and Sarzynnska,"Dla tego zadania, docelową postacią jest Scatterbug:","Więc gdy tylko Scatterbug (jego imię lub jego podobizna) pojawi się na ekranie, naciśnij spację tak szybko jak to możliwe. Uderz w spację gdy tylko zobaczysz podobiznę Scatterbuga lub słowo SCATTERBUG.

Naciśnij spację by rozpocząć zadanie",target5,stimuli/t5.jpg,71,42,stimuli/blank.jpg,blank,False,None,,,,,,,,,,,,,,0,0,0,0,,,,,0,0,0,4,0,41,41,41,,,,,,,,,,,,,,,,,,,,,,,,,,,,,,,,,,,,,,,,,,,,,,,,,,,,,CS1_USneg,None,1,,,,,,,,,,,,,,,,,,23,F,71,n,2019_Nov_24_1418,ec_RRR,3.0.4,59.99668808775441,
Balas and Sarzynnska,"Dla tego zadania, docelową postacią jest Scatterbug:","Więc gdy tylko Scatterbug (jego imię lub jego podobizna) pojawi się na ekranie, naciśnij spację tak szybko jak to możliwe. Uderz w spację gdy tylko zobaczysz podobiznę Scatterbuga lub słowo SCATTERBUG.

Naciśnij spację by rozpocząć zadanie",target5,stimuli/t5.jpg,71,43,stimuli/filler9.jpg,filler,False,None,,,,,,,,,,,,,,0,0,0,0,,,,,0,0,0,4,0,42,42,42,,,,,,,,,,,,,,,,,,,,,,,,,,,,,,,,,,,,,,,,,,,,,,,,,,,,,CS1_USneg,None,1,,,,,,,,,,,,,,,,,,23,F,71,n,2019_Nov_24_1418,ec_RRR,3.0.4,59.99668808775441,
Balas and Sarzynnska,"Dla tego zadania, docelową postacią jest Scatterbug:","Więc gdy tylko Scatterbug (jego imię lub jego podobizna) pojawi się na ekranie, naciśnij spację tak szybko jak to możliwe. Uderz w spację gdy tylko zobaczysz podobiznę Scatterbuga lub słowo SCATTERBUG.

Naciśnij spację by rozpocząć zadanie",target5,stimuli/t5.jpg,71,44,stimuli/filler23.jpg,filler,False,None,,,,,,,,,,,,,,0,0,0,0,,,,,0,0,0,4,0,43,43,43,,,,,,,,,,,,,,,,,,,,,,,,,,,,,,,,,,,,,,,,,,,,,,,,,,,,,CS1_USneg,None,1,,,,,,,,,,,,,,,,,,23,F,71,n,2019_Nov_24_1418,ec_RRR,3.0.4,59.99668808775441,
Balas and Sarzynnska,"Dla tego zadania, docelową postacią jest Scatterbug:","Więc gdy tylko Scatterbug (jego imię lub jego podobizna) pojawi się na ekranie, naciśnij spację tak szybko jak to możliwe. Uderz w spację gdy tylko zobaczysz podobiznę Scatterbuga lub słowo SCATTERBUG.

Naciśnij spację by rozpocząć zadanie",target5,stimuli/t5.jpg,71,45,stimuli/filler52.jpg,filler,False,None,,,,,,,,,,,,,,0,0,0,0,,,,,0,0,0,4,0,44,44,44,,,,,,,,,,,,,,,,,,,,,,,,,,,,,,,,,,,,,,,,,,,,,,,,,,,,,CS1_USneg,None,1,,,,,,,,,,,,,,,,,,23,F,71,n,2019_Nov_24_1418,ec_RRR,3.0.4,59.99668808775441,
Balas and Sarzynnska,"Dla tego zadania, docelową postacią jest Scatterbug:","Więc gdy tylko Scatterbug (jego imię lub jego podobizna) pojawi się na ekranie, naciśnij spację tak szybko jak to możliwe. Uderz w spację gdy tylko zobaczysz podobiznę Scatterbuga lub słowo SCATTERBUG.

Naciśnij spację by rozpocząć zadanie",target5,stimuli/t5.jpg,71,46,stimuli/filler13.jpg,filler,False,None,,,,,,,,,,,,,,0,0,0,0,,,,,0,0,0,4,0,45,45,45,,,,,,,,,,,,,,,,,,,,,,,,,,,,,,,,,,,,,,,,,,,,,,,,,,,,,CS1_USneg,None,1,,,,,,,,,,,,,,,,,,23,F,71,n,2019_Nov_24_1418,ec_RRR,3.0.4,59.99668808775441,
Balas and Sarzynnska,"Dla tego zadania, docelową postacią jest Scatterbug:","Więc gdy tylko Scatterbug (jego imię lub jego podobizna) pojawi się na ekranie, naciśnij spację tak szybko jak to możliwe. Uderz w spację gdy tylko zobaczysz podobiznę Scatterbuga lub słowo SCATTERBUG.

Naciśnij spację by rozpocząć zadanie",target5,stimuli/t5.jpg,71,47,stimuli/filler15.jpg,filler,False,None,,,,,,,,,,,,,,0,0,0,0,,,,,0,0,0,4,0,46,46,46,,,,,,,,,,,,,,,,,,,,,,,,,,,,,,,,,,,,,,,,,,,,,,,,,,,,,CS1_USneg,None,1,,,,,,,,,,,,,,,,,,23,F,71,n,2019_Nov_24_1418,ec_RRR,3.0.4,59.99668808775441,
Balas and Sarzynnska,"Dla tego zadania, docelową postacią jest Scatterbug:","Więc gdy tylko Scatterbug (jego imię lub jego podobizna) pojawi się na ekranie, naciśnij spację tak szybko jak to możliwe. Uderz w spację gdy tylko zobaczysz podobiznę Scatterbuga lub słowo SCATTERBUG.

Naciśnij spację by rozpocząć zadanie",target5,stimuli/t5.jpg,71,48,stimuli/filler12.jpg,filler,False,None,,,,,,,,,,,,,,0,0,0,0,,,,,0,0,0,4,0,47,47,47,,,,,,,,,,,,,,,,,,,,,,,,,,,,,,,,,,,,,,,,,,,,,,,,,,,,,CS1_USneg,None,1,,,,,,,,,,,,,,,,,,23,F,71,n,2019_Nov_24_1418,ec_RRR,3.0.4,59.99668808775441,
Balas and Sarzynnska,"Dla tego zadania, docelową postacią jest Scatterbug:","Więc gdy tylko Scatterbug (jego imię lub jego podobizna) pojawi się na ekranie, naciśnij spację tak szybko jak to możliwe. Uderz w spację gdy tylko zobaczysz podobiznę Scatterbuga lub słowo SCATTERBUG.

Naciśnij spację by rozpocząć zadanie",target5,stimuli/t5.jpg,71,49,stimuli/filler47.jpg,filler,False,None,,,,,,,,,,,,,,0,0,0,0,,,,,0,0,0,4,0,48,48,48,,,,,,,,,,,,,,,,,,,,,,,,,,,,,,,,,,,,,,,,,,,,,,,,,,,,,CS1_USneg,None,1,,,,,,,,,,,,,,,,,,23,F,71,n,2019_Nov_24_1418,ec_RRR,3.0.4,59.99668808775441,
Balas and Sarzynnska,"Dla tego zadania, docelową postacią jest Scatterbug:","Więc gdy tylko Scatterbug (jego imię lub jego podobizna) pojawi się na ekranie, naciśnij spację tak szybko jak to możliwe. Uderz w spację gdy tylko zobaczysz podobiznę Scatterbuga lub słowo SCATTERBUG.

Naciśnij spację by rozpocząć zadanie",target5,stimuli/t5.jpg,71,50,stimuli/blank.jpg,blank,False,None,,,,,,,,,,,,,,0,0,0,0,,,,,0,0,0,4,0,49,49,49,,,,,,,,,,,,,,,,,,,,,,,,,,,,,,,,,,,,,,,,,,,,,,,,,,,,,CS1_USneg,None,1,,,,,,,,,,,,,,,,,,23,F,71,n,2019_Nov_24_1418,ec_RRR,3.0.4,59.99668808775441,
Balas and Sarzynnska,"Dla tego zadania, docelową postacią jest Scatterbug:","Więc gdy tylko Scatterbug (jego imię lub jego podobizna) pojawi się na ekranie, naciśnij spację tak szybko jak to możliwe. Uderz w spację gdy tylko zobaczysz podobiznę Scatterbuga lub słowo SCATTERBUG.

Naciśnij spację by rozpocząć zadanie",target5,stimuli/t5.jpg,71,51,stimuli/cs1_neg17.jpg,CSUS,False,None,,,,,,,,,,,,,,0,0,0,0,,,,,0,0,0,4,0,50,50,50,,,,,,,,,,,,,,,,,,,,,,,,,,,,,,,,,,,,,,,,,,,,,,,,,,,,,CS1_USneg,None,1,,,,,,,,,,,,,,,,,,23,F,71,n,2019_Nov_24_1418,ec_RRR,3.0.4,59.99668808775441,
Balas and Sarzynnska,"Dla tego zadania, docelową postacią jest Scatterbug:","Więc gdy tylko Scatterbug (jego imię lub jego podobizna) pojawi się na ekranie, naciśnij spację tak szybko jak to możliwe. Uderz w spację gdy tylko zobaczysz podobiznę Scatterbuga lub słowo SCATTERBUG.

Naciśnij spację by rozpocząć zadanie",target5,stimuli/t5.jpg,71,52,stimuli/blank.jpg,blank,False,None,,,,,,,,,,,,,,0,0,0,0,,,,,0,0,0,4,0,51,51,51,,,,,,,,,,,,,,,,,,,,,,,,,,,,,,,,,,,,,,,,,,,,,,,,,,,,,CS1_USneg,None,1,,,,,,,,,,,,,,,,,,23,F,71,n,2019_Nov_24_1418,ec_RRR,3.0.4,59.99668808775441,
Balas and Sarzynnska,"Dla tego zadania, docelową postacią jest Scatterbug:","Więc gdy tylko Scatterbug (jego imię lub jego podobizna) pojawi się na ekranie, naciśnij spację tak szybko jak to możliwe. Uderz w spację gdy tylko zobaczysz podobiznę Scatterbuga lub słowo SCATTERBUG.

Naciśnij spację by rozpocząć zadanie",target5,stimuli/t5.jpg,71,53,stimuli/filler21.jpg,filler,False,None,,,,,,,,,,,,,,0,0,0,0,,,,,0,0,0,4,0,52,52,52,,,,,,,,,,,,,,,,,,,,,,,,,,,,,,,,,,,,,,,,,,,,,,,,,,,,,CS1_USneg,None,1,,,,,,,,,,,,,,,,,,23,F,71,n,2019_Nov_24_1418,ec_RRR,3.0.4,59.99668808775441,
Balas and Sarzynnska,"Dla tego zadania, docelową postacią jest Scatterbug:","Więc gdy tylko Scatterbug (jego imię lub jego podobizna) pojawi się na ekranie, naciśnij spację tak szybko jak to możliwe. Uderz w spację gdy tylko zobaczysz podobiznę Scatterbuga lub słowo SCATTERBUG.

Naciśnij spację by rozpocząć zadanie",target5,stimuli/t5.jpg,71,54,stimuli/filler51.jpg,filler,False,None,,,,,,,,,,,,,,0,0,0,0,,,,,0,0,0,4,0,53,53,53,,,,,,,,,,,,,,,,,,,,,,,,,,,,,,,,,,,,,,,,,,,,,,,,,,,,,CS1_USneg,None,1,,,,,,,,,,,,,,,,,,23,F,71,n,2019_Nov_24_1418,ec_RRR,3.0.4,59.99668808775441,
Balas and Sarzynnska,"Dla tego zadania, docelową postacią jest Scatterbug:","Więc gdy tylko Scatterbug (jego imię lub jego podobizna) pojawi się na ekranie, naciśnij spację tak szybko jak to możliwe. Uderz w spację gdy tylko zobaczysz podobiznę Scatterbuga lub słowo SCATTERBUG.

Naciśnij spację by rozpocząć zadanie",target5,stimuli/t5.jpg,71,55,stimuli/filler14.jpg,filler,False,None,,,,,,,,,,,,,,0,0,0,0,,,,,0,0,0,4,0,54,54,54,,,,,,,,,,,,,,,,,,,,,,,,,,,,,,,,,,,,,,,,,,,,,,,,,,,,,CS1_USneg,None,1,,,,,,,,,,,,,,,,,,23,F,71,n,2019_Nov_24_1418,ec_RRR,3.0.4,59.99668808775441,
Balas and Sarzynnska,"Dla tego zadania, docelową postacią jest Scatterbug:","Więc gdy tylko Scatterbug (jego imię lub jego podobizna) pojawi się na ekranie, naciśnij spację tak szybko jak to możliwe. Uderz w spację gdy tylko zobaczysz podobiznę Scatterbuga lub słowo SCATTERBUG.

Naciśnij spację by rozpocząć zadanie",target5,stimuli/t5.jpg,71,56,stimuli/filler50.jpg,filler,False,None,,,,,,,,,,,,,,0,0,0,0,,,,,0,0,0,4,0,55,55,55,,,,,,,,,,,,,,,,,,,,,,,,,,,,,,,,,,,,,,,,,,,,,,,,,,,,,CS1_USneg,None,1,,,,,,,,,,,,,,,,,,23,F,71,n,2019_Nov_24_1418,ec_RRR,3.0.4,59.99668808775441,
Balas and Sarzynnska,"Dla tego zadania, docelową postacią jest Scatterbug:","Więc gdy tylko Scatterbug (jego imię lub jego podobizna) pojawi się na ekranie, naciśnij spację tak szybko jak to możliwe. Uderz w spację gdy tylko zobaczysz podobiznę Scatterbuga lub słowo SCATTERBUG.

Naciśnij spację by rozpocząć zadanie",target5,stimuli/t5.jpg,71,57,stimuli/filler5.jpg,filler,False,None,,,,,,,,,,,,,,0,0,0,0,,,,,0,0,0,4,0,56,56,56,,,,,,,,,,,,,,,,,,,,,,,,,,,,,,,,,,,,,,,,,,,,,,,,,,,,,CS1_USneg,None,1,,,,,,,,,,,,,,,,,,23,F,71,n,2019_Nov_24_1418,ec_RRR,3.0.4,59.99668808775441,
Balas and Sarzynnska,"Dla tego zadania, docelową postacią jest Scatterbug:","Więc gdy tylko Scatterbug (jego imię lub jego podobizna) pojawi się na ekranie, naciśnij spację tak szybko jak to możliwe. Uderz w spację gdy tylko zobaczysz podobiznę Scatterbuga lub słowo SCATTERBUG.

Naciśnij spację by rozpocząć zadanie",target5,stimuli/t5.jpg,71,58,stimuli/filler18.jpg,filler,False,None,,,,,,,,,,,,,,0,0,0,0,,,,,0,0,0,4,0,57,57,57,,,,,,,,,,,,,,,,,,,,,,,,,,,,,,,,,,,,,,,,,,,,,,,,,,,,,CS1_USneg,None,1,,,,,,,,,,,,,,,,,,23,F,71,n,2019_Nov_24_1418,ec_RRR,3.0.4,59.99668808775441,
Balas and Sarzynnska,"Dla tego zadania, docelową postacią jest Scatterbug:","Więc gdy tylko Scatterbug (jego imię lub jego podobizna) pojawi się na ekranie, naciśnij spację tak szybko jak to możliwe. Uderz w spację gdy tylko zobaczysz podobiznę Scatterbuga lub słowo SCATTERBUG.

Naciśnij spację by rozpocząć zadanie",target5,stimuli/t5.jpg,71,59,stimuli/filler48.jpg,filler,False,None,,,,,,,,,,,,,,0,0,0,0,,,,,0,0,0,4,0,58,58,58,,,,,,,,,,,,,,,,,,,,,,,,,,,,,,,,,,,,,,,,,,,,,,,,,,,,,CS1_USneg,None,1,,,,,,,,,,,,,,,,,,23,F,71,n,2019_Nov_24_1418,ec_RRR,3.0.4,59.99668808775441,
Balas and Sarzynnska,"Dla tego zadania, docelową postacią jest Scatterbug:","Więc gdy tylko Scatterbug (jego imię lub jego podobizna) pojawi się na ekranie, naciśnij spację tak szybko jak to możliwe. Uderz w spację gdy tylko zobaczysz podobiznę Scatterbuga lub słowo SCATTERBUG.

Naciśnij spację by rozpocząć zadanie",target5,stimuli/t5.jpg,71,60,stimuli/blank.jpg,blank,False,None,,,,,,,,,,,,,,0,0,0,0,,,,,0,0,0,4,0,59,59,59,,,,,,,,,,,,,,,,,,,,,,,,,,,,,,,,,,,,,,,,,,,,,,,,,,,,,CS1_USneg,None,1,,,,,,,,,,,,,,,,,,23,F,71,n,2019_Nov_24_1418,ec_RRR,3.0.4,59.99668808775441,
Balas and Sarzynnska,"Dla tego zadania, docelową postacią jest Scatterbug:","Więc gdy tylko Scatterbug (jego imię lub jego podobizna) pojawi się na ekranie, naciśnij spację tak szybko jak to możliwe. Uderz w spację gdy tylko zobaczysz podobiznę Scatterbuga lub słowo SCATTERBUG.

Naciśnij spację by rozpocząć zadanie",target5,stimuli/t5.jpg,71,61,stimuli/cs2_pos11.jpg,CSUS,False,None,,,,,,,,,,,,,,0,0,0,0,,,,,0,0,0,4,0,60,60,60,,,,,,,,,,,,,,,,,,,,,,,,,,,,,,,,,,,,,,,,,,,,,,,,,,,,,CS1_USneg,None,1,,,,,,,,,,,,,,,,,,23,F,71,n,2019_Nov_24_1418,ec_RRR,3.0.4,59.99668808775441,
Balas and Sarzynnska,"Dla tego zadania, docelową postacią jest Scatterbug:","Więc gdy tylko Scatterbug (jego imię lub jego podobizna) pojawi się na ekranie, naciśnij spację tak szybko jak to możliwe. Uderz w spację gdy tylko zobaczysz podobiznę Scatterbuga lub słowo SCATTERBUG.

Naciśnij spację by rozpocząć zadanie",target5,stimuli/t5.jpg,71,62,stimuli/blank.jpg,blank,False,None,,,,,,,,,,,,,,0,0,0,0,,,,,0,0,0,4,0,61,61,61,,,,,,,,,,,,,,,,,,,,,,,,,,,,,,,,,,,,,,,,,,,,,,,,,,,,,CS1_USneg,None,1,,,,,,,,,,,,,,,,,,23,F,71,n,2019_Nov_24_1418,ec_RRR,3.0.4,59.99668808775441,
Balas and Sarzynnska,"Dla tego zadania, docelową postacią jest Scatterbug:","Więc gdy tylko Scatterbug (jego imię lub jego podobizna) pojawi się na ekranie, naciśnij spację tak szybko jak to możliwe. Uderz w spację gdy tylko zobaczysz podobiznę Scatterbuga lub słowo SCATTERBUG.

Naciśnij spację by rozpocząć zadanie",target5,stimuli/t5.jpg,71,63,stimuli/filler28.jpg,filler,False,None,,,,,,,,,,,,,,0,0,0,0,,,,,0,0,0,4,0,62,62,62,,,,,,,,,,,,,,,,,,,,,,,,,,,,,,,,,,,,,,,,,,,,,,,,,,,,,CS1_USneg,None,1,,,,,,,,,,,,,,,,,,23,F,71,n,2019_Nov_24_1418,ec_RRR,3.0.4,59.99668808775441,
Balas and Sarzynnska,"Dla tego zadania, docelową postacią jest Scatterbug:","Więc gdy tylko Scatterbug (jego imię lub jego podobizna) pojawi się na ekranie, naciśnij spację tak szybko jak to możliwe. Uderz w spację gdy tylko zobaczysz podobiznę Scatterbuga lub słowo SCATTERBUG.

Naciśnij spację by rozpocząć zadanie",target5,stimuli/t5.jpg,71,64,stimuli/filler6.jpg,filler,False,None,,,,,,,,,,,,,,0,0,0,0,,,,,0,0,0,4,0,63,63,63,,,,,,,,,,,,,,,,,,,,,,,,,,,,,,,,,,,,,,,,,,,,,,,,,,,,,CS1_USneg,None,1,,,,,,,,,,,,,,,,,,23,F,71,n,2019_Nov_24_1418,ec_RRR,3.0.4,59.99668808775441,
Balas and Sarzynnska,"Dla tego zadania, docelową postacią jest Scatterbug:","Więc gdy tylko Scatterbug (jego imię lub jego podobizna) pojawi się na ekranie, naciśnij spację tak szybko jak to możliwe. Uderz w spację gdy tylko zobaczysz podobiznę Scatterbuga lub słowo SCATTERBUG.

Naciśnij spację by rozpocząć zadanie",target5,stimuli/t5.jpg,71,65,stimuli/filler41.jpg,filler,False,None,,,,,,,,,,,,,,0,0,0,0,,,,,0,0,0,4,0,64,64,64,,,,,,,,,,,,,,,,,,,,,,,,,,,,,,,,,,,,,,,,,,,,,,,,,,,,,CS1_USneg,None,1,,,,,,,,,,,,,,,,,,23,F,71,n,2019_Nov_24_1418,ec_RRR,3.0.4,59.99668808775441,
Balas and Sarzynnska,"Dla tego zadania, docelową postacią jest Scatterbug:","Więc gdy tylko Scatterbug (jego imię lub jego podobizna) pojawi się na ekranie, naciśnij spację tak szybko jak to możliwe. Uderz w spację gdy tylko zobaczysz podobiznę Scatterbuga lub słowo SCATTERBUG.

Naciśnij spację by rozpocząć zadanie",target5,stimuli/t5.jpg,71,66,stimuli/target5_3.jpg,target,True,space,,,,,,,,,,,,,,0,0,0,0,,,,,0,0,0,4,0,65,65,65,,,,,,,,,,,,,,,,,,,,,,,,,,,,,,,,,,,,,,,,,,,,,,,,,,,,,CS1_USneg,space,1,0.9335770920151845,,,,,,,,,,,,,,,,,23,F,71,n,2019_Nov_24_1418,ec_RRR,3.0.4,59.99668808775441,
Balas and Sarzynnska,"Dla tego zadania, docelową postacią jest Scatterbug:","Więc gdy tylko Scatterbug (jego imię lub jego podobizna) pojawi się na ekranie, naciśnij spację tak szybko jak to możliwe. Uderz w spację gdy tylko zobaczysz podobiznę Scatterbuga lub słowo SCATTERBUG.

Naciśnij spację by rozpocząć zadanie",target5,stimuli/t5.jpg,71,67,stimuli/filler25.jpg,filler,False,None,,,,,,,,,,,,,,0,0,0,0,,,,,0,0,0,4,0,66,66,66,,,,,,,,,,,,,,,,,,,,,,,,,,,,,,,,,,,,,,,,,,,,,,,,,,,,,CS1_USneg,None,1,,,,,,,,,,,,,,,,,,23,F,71,n,2019_Nov_24_1418,ec_RRR,3.0.4,59.99668808775441,
Balas and Sarzynnska,"Dla tego zadania, docelową postacią jest Scatterbug:","Więc gdy tylko Scatterbug (jego imię lub jego podobizna) pojawi się na ekranie, naciśnij spację tak szybko jak to możliwe. Uderz w spację gdy tylko zobaczysz podobiznę Scatterbuga lub słowo SCATTERBUG.

Naciśnij spację by rozpocząć zadanie",target5,stimuli/t5.jpg,71,68,stimuli/filler11.jpg,filler,False,None,,,,,,,,,,,,,,0,0,0,0,,,,,0,0,0,4,0,67,67,67,,,,,,,,,,,,,,,,,,,,,,,,,,,,,,,,,,,,,,,,,,,,,,,,,,,,,CS1_USneg,None,1,,,,,,,,,,,,,,,,,,23,F,71,n,2019_Nov_24_1418,ec_RRR,3.0.4,59.99668808775441,
Balas and Sarzynnska,"Dla tego zadania, docelową postacią jest Scatterbug:","Więc gdy tylko Scatterbug (jego imię lub jego podobizna) pojawi się na ekranie, naciśnij spację tak szybko jak to możliwe. Uderz w spację gdy tylko zobaczysz podobiznę Scatterbuga lub słowo SCATTERBUG.

Naciśnij spację by rozpocząć zadanie",target5,stimuli/t5.jpg,71,69,stimuli/filler7.jpg,filler,False,None,,,,,,,,,,,,,,0,0,0,0,,,,,0,0,0,4,0,68,68,68,,,,,,,,,,,,,,,,,,,,,,,,,,,,,,,,,,,,,,,,,,,,,,,,,,,,,CS1_USneg,None,1,,,,,,,,,,,,,,,,,,23,F,71,n,2019_Nov_24_1418,ec_RRR,3.0.4,59.99668808775441,
Balas and Sarzynnska,"Dla tego zadania, docelową postacią jest Scatterbug:","Więc gdy tylko Scatterbug (jego imię lub jego podobizna) pojawi się na ekranie, naciśnij spację tak szybko jak to możliwe. Uderz w spację gdy tylko zobaczysz podobiznę Scatterbuga lub słowo SCATTERBUG.

Naciśnij spację by rozpocząć zadanie",target5,stimuli/t5.jpg,71,70,stimuli/blank.jpg,blank,False,None,,,,,,,,,,,,,,0,0,0,0,,,,,0,0,0,4,0,69,69,69,,,,,,,,,,,,,,,,,,,,,,,,,,,,,,,,,,,,,,,,,,,,,,,,,,,,,CS1_USneg,None,1,,,,,,,,,,,,,,,,,,23,F,71,n,2019_Nov_24_1418,ec_RRR,3.0.4,59.99668808775441,
Balas and Sarzynnska,"Dla tego zadania, docelową postacią jest Scatterbug:","Więc gdy tylko Scatterbug (jego imię lub jego podobizna) pojawi się na ekranie, naciśnij spację tak szybko jak to możliwe. Uderz w spację gdy tylko zobaczysz podobiznę Scatterbuga lub słowo SCATTERBUG.

Naciśnij spację by rozpocząć zadanie",target5,stimuli/t5.jpg,71,71,stimuli/cs1_neg11.jpg,CSUS,False,None,,,,,,,,,,,,,,0,0,0,0,,,,,0,0,0,4,0,70,70,70,,,,,,,,,,,,,,,,,,,,,,,,,,,,,,,,,,,,,,,,,,,,,,,,,,,,,CS1_USneg,None,1,,,,,,,,,,,,,,,,,,23,F,71,n,2019_Nov_24_1418,ec_RRR,3.0.4,59.99668808775441,
Balas and Sarzynnska,"Dla tego zadania, docelową postacią jest Scatterbug:","Więc gdy tylko Scatterbug (jego imię lub jego podobizna) pojawi się na ekranie, naciśnij spację tak szybko jak to możliwe. Uderz w spację gdy tylko zobaczysz podobiznę Scatterbuga lub słowo SCATTERBUG.

Naciśnij spację by rozpocząć zadanie",target5,stimuli/t5.jpg,71,72,stimuli/blank.jpg,blank,False,None,,,,,,,,,,,,,,0,0,0,0,,,,,0,0,0,4,0,71,71,71,,,,,,,,,,,,,,,,,,,,,,,,,,,,,,,,,,,,,,,,,,,,,,,,,,,,,CS1_USneg,None,1,,,,,,,,,,,,,,,,,,23,F,71,n,2019_Nov_24_1418,ec_RRR,3.0.4,59.99668808775441,
Balas and Sarzynnska,"Dla tego zadania, docelową postacią jest Scatterbug:","Więc gdy tylko Scatterbug (jego imię lub jego podobizna) pojawi się na ekranie, naciśnij spację tak szybko jak to możliwe. Uderz w spację gdy tylko zobaczysz podobiznę Scatterbuga lub słowo SCATTERBUG.

Naciśnij spację by rozpocząć zadanie",target5,stimuli/t5.jpg,71,73,stimuli/filler3.jpg,filler,False,None,,,,,,,,,,,,,,0,0,0,0,,,,,0,0,0,4,0,72,72,72,,,,,,,,,,,,,,,,,,,,,,,,,,,,,,,,,,,,,,,,,,,,,,,,,,,,,CS1_USneg,None,1,,,,,,,,,,,,,,,,,,23,F,71,n,2019_Nov_24_1418,ec_RRR,3.0.4,59.99668808775441,
Balas and Sarzynnska,"Dla tego zadania, docelową postacią jest Scatterbug:","Więc gdy tylko Scatterbug (jego imię lub jego podobizna) pojawi się na ekranie, naciśnij spację tak szybko jak to możliwe. Uderz w spację gdy tylko zobaczysz podobiznę Scatterbuga lub słowo SCATTERBUG.

Naciśnij spację by rozpocząć zadanie",target5,stimuli/t5.jpg,71,74,stimuli/filler10.jpg,filler,False,None,,,,,,,,,,,,,,0,0,0,0,,,,,0,0,0,4,0,73,73,73,,,,,,,,,,,,,,,,,,,,,,,,,,,,,,,,,,,,,,,,,,,,,,,,,,,,,CS1_USneg,None,1,,,,,,,,,,,,,,,,,,23,F,71,n,2019_Nov_24_1418,ec_RRR,3.0.4,59.99668808775441,
Balas and Sarzynnska,"Dla tego zadania, docelową postacią jest Scatterbug:","Więc gdy tylko Scatterbug (jego imię lub jego podobizna) pojawi się na ekranie, naciśnij spację tak szybko jak to możliwe. Uderz w spację gdy tylko zobaczysz podobiznę Scatterbuga lub słowo SCATTERBUG.

Naciśnij spację by rozpocząć zadanie",target5,stimuli/t5.jpg,71,75,stimuli/target5_1.jpg,target,True,space,,,,,,,,,,,,,,0,0,0,0,,,,,0,0,0,4,0,74,74,74,,,,,,,,,,,,,,,,,,,,,,,,,,,,,,,,,,,,,,,,,,,,,,,,,,,,,CS1_USneg,space,1,0.7835756079293787,,,,,,,,,,,,,,,,,23,F,71,n,2019_Nov_24_1418,ec_RRR,3.0.4,59.99668808775441,
Balas and Sarzynnska,"Dla tego zadania, docelową postacią jest Scatterbug:","Więc gdy tylko Scatterbug (jego imię lub jego podobizna) pojawi się na ekranie, naciśnij spację tak szybko jak to możliwe. Uderz w spację gdy tylko zobaczysz podobiznę Scatterbuga lub słowo SCATTERBUG.

Naciśnij spację by rozpocząć zadanie",target5,stimuli/t5.jpg,71,76,stimuli/filler42.jpg,filler,False,None,,,,,,,,,,,,,,0,0,0,0,,,,,0,0,0,4,0,75,75,75,,,,,,,,,,,,,,,,,,,,,,,,,,,,,,,,,,,,,,,,,,,,,,,,,,,,,CS1_USneg,None,1,,,,,,,,,,,,,,,,,,23,F,71,n,2019_Nov_24_1418,ec_RRR,3.0.4,59.99668808775441,
Balas and Sarzynnska,"Dla tego zadania, docelową postacią jest Scatterbug:","Więc gdy tylko Scatterbug (jego imię lub jego podobizna) pojawi się na ekranie, naciśnij spację tak szybko jak to możliwe. Uderz w spację gdy tylko zobaczysz podobiznę Scatterbuga lub słowo SCATTERBUG.

Naciśnij spację by rozpocząć zadanie",target5,stimuli/t5.jpg,71,77,stimuli/target5_2.jpg,target,True,space,,,,,,,,,,,,,,0,0,0,0,,,,,0,0,0,4,0,76,76,76,,,,,,,,,,,,,,,,,,,,,,,,,,,,,,,,,,,,,,,,,,,,,,,,,,,,,CS1_USneg,space,1,0.7501985474955291,,,,,,,,,,,,,,,,,23,F,71,n,2019_Nov_24_1418,ec_RRR,3.0.4,59.99668808775441,
Balas and Sarzynnska,"Dla tego zadania, docelową postacią jest Scatterbug:","Więc gdy tylko Scatterbug (jego imię lub jego podobizna) pojawi się na ekranie, naciśnij spację tak szybko jak to możliwe. Uderz w spację gdy tylko zobaczysz podobiznę Scatterbuga lub słowo SCATTERBUG.

Naciśnij spację by rozpocząć zadanie",target5,stimuli/t5.jpg,71,78,stimuli/filler31.jpg,filler,False,None,,,,,,,,,,,,,,0,0,0,0,,,,,0,0,0,4,0,77,77,77,,,,,,,,,,,,,,,,,,,,,,,,,,,,,,,,,,,,,,,,,,,,,,,,,,,,,CS1_USneg,None,1,,,,,,,,,,,,,,,,,,23,F,71,n,2019_Nov_24_1418,ec_RRR,3.0.4,59.99668808775441,
Balas and Sarzynnska,"Dla tego zadania, docelową postacią jest Scatterbug:","Więc gdy tylko Scatterbug (jego imię lub jego podobizna) pojawi się na ekranie, naciśnij spację tak szybko jak to możliwe. Uderz w spację gdy tylko zobaczysz podobiznę Scatterbuga lub słowo SCATTERBUG.

Naciśnij spację by rozpocząć zadanie",target5,stimuli/t5.jpg,71,79,stimuli/target5_6.jpg,target,True,space,,,,,,,,,,,,,,0,0,0,0,,,,,0,0,0,4,0,78,78,78,,,,,,,,,,,,,,,,,,,,,,,,,,,,,,,,,,,,,,,,,,,,,,,,,,,,,CS1_USneg,space,1,0.9835905319778249,,,,,,,,,,,,,,,,,23,F,71,n,2019_Nov_24_1418,ec_RRR,3.0.4,59.99668808775441,
Balas and Sarzynnska,"Dla tego zadania, docelową postacią jest Scatterbug:","Więc gdy tylko Scatterbug (jego imię lub jego podobizna) pojawi się na ekranie, naciśnij spację tak szybko jak to możliwe. Uderz w spację gdy tylko zobaczysz podobiznę Scatterbuga lub słowo SCATTERBUG.

Naciśnij spację by rozpocząć zadanie",target5,stimuli/t5.jpg,71,80,stimuli/blank.jpg,blank,False,None,,,,,,,,,,,,,,0,0,0,0,,,,,0,0,0,4,0,79,79,79,,,,,,,,,,,,,,,,,,,,,,,,,,,,,,,,,,,,,,,,,,,,,,,,,,,,,CS1_USneg,None,1,,,,,,,,,,,,,,,,,,23,F,71,n,2019_Nov_24_1418,ec_RRR,3.0.4,59.99668808775441,
Balas and Sarzynnska,"Dla tego zadania, docelową postacią jest Scatterbug:","Więc gdy tylko Scatterbug (jego imię lub jego podobizna) pojawi się na ekranie, naciśnij spację tak szybko jak to możliwe. Uderz w spację gdy tylko zobaczysz podobiznę Scatterbuga lub słowo SCATTERBUG.

Naciśnij spację by rozpocząć zadanie",target5,stimuli/t5.jpg,71,81,stimuli/cs2_pos2.jpg,CSUS,False,None,,,,,,,,,,,,,,0,0,0,0,,,,,0,0,0,4,0,80,80,80,,,,,,,,,,,,,,,,,,,,,,,,,,,,,,,,,,,,,,,,,,,,,,,,,,,,,CS1_USneg,None,1,,,,,,,,,,,,,,,,,,23,F,71,n,2019_Nov_24_1418,ec_RRR,3.0.4,59.99668808775441,
Balas and Sarzynnska,"Dla tego zadania, docelową postacią jest Scatterbug:","Więc gdy tylko Scatterbug (jego imię lub jego podobizna) pojawi się na ekranie, naciśnij spację tak szybko jak to możliwe. Uderz w spację gdy tylko zobaczysz podobiznę Scatterbuga lub słowo SCATTERBUG.

Naciśnij spację by rozpocząć zadanie",target5,stimuli/t5.jpg,71,82,stimuli/blank.jpg,blank,False,None,,,,,,,,,,,,,,0,0,0,0,,,,,0,0,0,4,0,81,81,81,,,,,,,,,,,,,,,,,,,,,,,,,,,,,,,,,,,,,,,,,,,,,,,,,,,,,CS1_USneg,None,1,,,,,,,,,,,,,,,,,,23,F,71,n,2019_Nov_24_1418,ec_RRR,3.0.4,59.99668808775441,
Balas and Sarzynnska,"Dla tego zadania, docelową postacią jest Scatterbug:","Więc gdy tylko Scatterbug (jego imię lub jego podobizna) pojawi się na ekranie, naciśnij spację tak szybko jak to możliwe. Uderz w spację gdy tylko zobaczysz podobiznę Scatterbuga lub słowo SCATTERBUG.

Naciśnij spację by rozpocząć zadanie",target5,stimuli/t5.jpg,71,83,stimuli/target5_5.jpg,target,True,space,,,,,,,,,,,,,,0,0,0,0,,,,,0,0,0,4,0,82,82,82,,,,,,,,,,,,,,,,,,,,,,,,,,,,,,,,,,,,,,,,,,,,,,,,,,,,,CS1_USneg,space,1,0.883585843956098,,,,,,,,,,,,,,,,,23,F,71,n,2019_Nov_24_1418,ec_RRR,3.0.4,59.99668808775441,
Balas and Sarzynnska,"Dla tego zadania, docelową postacią jest Scatterbug:","Więc gdy tylko Scatterbug (jego imię lub jego podobizna) pojawi się na ekranie, naciśnij spację tak szybko jak to możliwe. Uderz w spację gdy tylko zobaczysz podobiznę Scatterbuga lub słowo SCATTERBUG.

Naciśnij spację by rozpocząć zadanie",target5,stimuli/t5.jpg,71,84,stimuli/filler40.jpg,filler,False,None,,,,,,,,,,,,,,0,0,0,0,,,,,0,0,0,4,0,83,83,83,,,,,,,,,,,,,,,,,,,,,,,,,,,,,,,,,,,,,,,,,,,,,,,,,,,,,CS1_USneg,None,1,,,,,,,,,,,,,,,,,,23,F,71,n,2019_Nov_24_1418,ec_RRR,3.0.4,59.99668808775441,
Balas and Sarzynnska,"Dla tego zadania, docelową postacią jest Scatterbug:","Więc gdy tylko Scatterbug (jego imię lub jego podobizna) pojawi się na ekranie, naciśnij spację tak szybko jak to możliwe. Uderz w spację gdy tylko zobaczysz podobiznę Scatterbuga lub słowo SCATTERBUG.

Naciśnij spację by rozpocząć zadanie",target5,stimuli/t5.jpg,71,85,stimuli/filler22.jpg,filler,False,None,,,,,,,,,,,,,,0,0,0,0,,,,,0,0,0,4,0,84,84,84,,,,,,,,,,,,,,,,,,,,,,,,,,,,,,,,,,,,,,,,,,,,,,,,,,,,,CS1_USneg,None,1,,,,,,,,,,,,,,,,,,23,F,71,n,2019_Nov_24_1418,ec_RRR,3.0.4,59.99668808775441,
Balas and Sarzynnska,"Dla tego zadania, docelową postacią jest Scatterbug:","Więc gdy tylko Scatterbug (jego imię lub jego podobizna) pojawi się na ekranie, naciśnij spację tak szybko jak to możliwe. Uderz w spację gdy tylko zobaczysz podobiznę Scatterbuga lub słowo SCATTERBUG.

Naciśnij spację by rozpocząć zadanie",target5,stimuli/t5.jpg,71,86,stimuli/filler27.jpg,filler,False,None,,,,,,,,,,,,,,0,0,0,0,,,,,0,0,0,4,0,85,85,85,,,,,,,,,,,,,,,,,,,,,,,,,,,,,,,,,,,,,,,,,,,,,,,,,,,,,CS1_USneg,None,1,,,,,,,,,,,,,,,,,,23,F,71,n,2019_Nov_24_1418,ec_RRR,3.0.4,59.99668808775441,
Balas and Sarzynnska,"Dla tego zadania, docelową postacią jest Jangmo:","Więc gdy tylko Jangmo (jego imię lub jego podobizna) pojawi się na ekranie, naciśnij spację tak szybko jak to możliwe. Uderz w spację gdy tylko zobaczysz podobiznę Jangmoa lub słowo JANGMO.

Naciśnij spację by rozpocząć zadanie",target1,stimuli/t1.jpg,71,1,stimuli/filler12.jpg,filler,False,None,,,,,,,,,,,,,,0,0,0,0,,,,,0,1,1,0,0,0,0,0,,,,,,,,,,,,,,,,,,,,,,,,,,,,,,,,,,,,,,,,,,,,,,,,,,,,,CS1_USneg,None,1,,,,,,,,,,,,,,,,,,23,F,71,n,2019_Nov_24_1418,ec_RRR,3.0.4,59.99668808775441,
Balas and Sarzynnska,"Dla tego zadania, docelową postacią jest Jangmo:","Więc gdy tylko Jangmo (jego imię lub jego podobizna) pojawi się na ekranie, naciśnij spację tak szybko jak to możliwe. Uderz w spację gdy tylko zobaczysz podobiznę Jangmoa lub słowo JANGMO.

Naciśnij spację by rozpocząć zadanie",target1,stimuli/t1.jpg,71,2,stimuli/filler22.jpg,filler,False,None,,,,,,,,,,,,,,0,0,0,0,,,,,0,1,1,0,0,1,1,1,,,,,,,,,,,,,,,,,,,,,,,,,,,,,,,,,,,,,,,,,,,,,,,,,,,,,CS1_USneg,None,1,,,,,,,,,,,,,,,,,,23,F,71,n,2019_Nov_24_1418,ec_RRR,3.0.4,59.99668808775441,
Balas and Sarzynnska,"Dla tego zadania, docelową postacią jest Jangmo:","Więc gdy tylko Jangmo (jego imię lub jego podobizna) pojawi się na ekranie, naciśnij spację tak szybko jak to możliwe. Uderz w spację gdy tylko zobaczysz podobiznę Jangmoa lub słowo JANGMO.

Naciśnij spację by rozpocząć zadanie",target1,stimuli/t1.jpg,71,3,stimuli/target1_3.jpg,target,True,space,,,,,,,,,,,,,,0,0,0,0,,,,,0,1,1,0,0,2,2,2,,,,,,,,,,,,,,,,,,,,,,,,,,,,,,,,,,,,,,,,,,,,,,,,,,,,,CS1_USneg,space,1,0.5836197696626186,,,,,,,,,,,,,,,,,23,F,71,n,2019_Nov_24_1418,ec_RRR,3.0.4,59.99668808775441,
Balas and Sarzynnska,"Dla tego zadania, docelową postacią jest Jangmo:","Więc gdy tylko Jangmo (jego imię lub jego podobizna) pojawi się na ekranie, naciśnij spację tak szybko jak to możliwe. Uderz w spację gdy tylko zobaczysz podobiznę Jangmoa lub słowo JANGMO.

Naciśnij spację by rozpocząć zadanie",target1,stimuli/t1.jpg,71,4,stimuli/filler9.jpg,filler,False,None,,,,,,,,,,,,,,0,0,0,0,,,,,0,1,1,0,0,3,3,3,,,,,,,,,,,,,,,,,,,,,,,,,,,,,,,,,,,,,,,,,,,,,,,,,,,,,CS1_USneg,None,1,,,,,,,,,,,,,,,,,,23,F,71,n,2019_Nov_24_1418,ec_RRR,3.0.4,59.99668808775441,
Balas and Sarzynnska,"Dla tego zadania, docelową postacią jest Jangmo:","Więc gdy tylko Jangmo (jego imię lub jego podobizna) pojawi się na ekranie, naciśnij spację tak szybko jak to możliwe. Uderz w spację gdy tylko zobaczysz podobiznę Jangmoa lub słowo JANGMO.

Naciśnij spację by rozpocząć zadanie",target1,stimuli/t1.jpg,71,5,stimuli/filler13.jpg,filler,False,None,,,,,,,,,,,,,,0,0,0,0,,,,,0,1,1,0,0,4,4,4,,,,,,,,,,,,,,,,,,,,,,,,,,,,,,,,,,,,,,,,,,,,,,,,,,,,,CS1_USneg,None,1,,,,,,,,,,,,,,,,,,23,F,71,n,2019_Nov_24_1418,ec_RRR,3.0.4,59.99668808775441,
Balas and Sarzynnska,"Dla tego zadania, docelową postacią jest Jangmo:","Więc gdy tylko Jangmo (jego imię lub jego podobizna) pojawi się na ekranie, naciśnij spację tak szybko jak to możliwe. Uderz w spację gdy tylko zobaczysz podobiznę Jangmoa lub słowo JANGMO.

Naciśnij spację by rozpocząć zadanie",target1,stimuli/t1.jpg,71,6,stimuli/target1_4.jpg,target,True,space,,,,,,,,,,,,,,0,0,0,0,,,,,0,1,1,0,0,5,5,5,,,,,,,,,,,,,,,,,,,,,,,,,,,,,,,,,,,,,,,,,,,,,,,,,,,,,CS1_USneg,space,1,0.8503760542953387,,,,,,,,,,,,,,,,,23,F,71,n,2019_Nov_24_1418,ec_RRR,3.0.4,59.99668808775441,
Balas and Sarzynnska,"Dla tego zadania, docelową postacią jest Jangmo:","Więc gdy tylko Jangmo (jego imię lub jego podobizna) pojawi się na ekranie, naciśnij spację tak szybko jak to możliwe. Uderz w spację gdy tylko zobaczysz podobiznę Jangmoa lub słowo JANGMO.

Naciśnij spację by rozpocząć zadanie",target1,stimuli/t1.jpg,71,7,stimuli/filler16.jpg,filler,False,None,,,,,,,,,,,,,,0,0,0,0,,,,,0,1,1,0,0,6,6,6,,,,,,,,,,,,,,,,,,,,,,,,,,,,,,,,,,,,,,,,,,,,,,,,,,,,,CS1_USneg,None,1,,,,,,,,,,,,,,,,,,23,F,71,n,2019_Nov_24_1418,ec_RRR,3.0.4,59.99668808775441,
Balas and Sarzynnska,"Dla tego zadania, docelową postacią jest Jangmo:","Więc gdy tylko Jangmo (jego imię lub jego podobizna) pojawi się na ekranie, naciśnij spację tak szybko jak to możliwe. Uderz w spację gdy tylko zobaczysz podobiznę Jangmoa lub słowo JANGMO.

Naciśnij spację by rozpocząć zadanie",target1,stimuli/t1.jpg,71,8,stimuli/filler37.jpg,filler,False,None,,,,,,,,,,,,,,0,0,0,0,,,,,0,1,1,0,0,7,7,7,,,,,,,,,,,,,,,,,,,,,,,,,,,,,,,,,,,,,,,,,,,,,,,,,,,,,CS1_USneg,None,1,,,,,,,,,,,,,,,,,,23,F,71,n,2019_Nov_24_1418,ec_RRR,3.0.4,59.99668808775441,
Balas and Sarzynnska,"Dla tego zadania, docelową postacią jest Jangmo:","Więc gdy tylko Jangmo (jego imię lub jego podobizna) pojawi się na ekranie, naciśnij spację tak szybko jak to możliwe. Uderz w spację gdy tylko zobaczysz podobiznę Jangmoa lub słowo JANGMO.

Naciśnij spację by rozpocząć zadanie",target1,stimuli/t1.jpg,71,9,stimuli/filler48.jpg,filler,False,None,,,,,,,,,,,,,,0,0,0,0,,,,,0,1,1,0,0,8,8,8,,,,,,,,,,,,,,,,,,,,,,,,,,,,,,,,,,,,,,,,,,,,,,,,,,,,,CS1_USneg,None,1,,,,,,,,,,,,,,,,,,23,F,71,n,2019_Nov_24_1418,ec_RRR,3.0.4,59.99668808775441,
Balas and Sarzynnska,"Dla tego zadania, docelową postacią jest Jangmo:","Więc gdy tylko Jangmo (jego imię lub jego podobizna) pojawi się na ekranie, naciśnij spację tak szybko jak to możliwe. Uderz w spację gdy tylko zobaczysz podobiznę Jangmoa lub słowo JANGMO.

Naciśnij spację by rozpocząć zadanie",target1,stimuli/t1.jpg,71,10,stimuli/blank.jpg,blank,False,None,,,,,,,,,,,,,,0,0,0,0,,,,,0,1,1,0,0,9,9,9,,,,,,,,,,,,,,,,,,,,,,,,,,,,,,,,,,,,,,,,,,,,,,,,,,,,,CS1_USneg,None,1,,,,,,,,,,,,,,,,,,23,F,71,n,2019_Nov_24_1418,ec_RRR,3.0.4,59.99668808775441,
Balas and Sarzynnska,"Dla tego zadania, docelową postacią jest Jangmo:","Więc gdy tylko Jangmo (jego imię lub jego podobizna) pojawi się na ekranie, naciśnij spację tak szybko jak to możliwe. Uderz w spację gdy tylko zobaczysz podobiznę Jangmoa lub słowo JANGMO.

Naciśnij spację by rozpocząć zadanie",target1,stimuli/t1.jpg,71,11,stimuli/cs1_neg20.jpg,CSUS,False,None,,,,,,,,,,,,,,0,0,0,0,,,,,0,1,1,0,0,10,10,10,,,,,,,,,,,,,,,,,,,,,,,,,,,,,,,,,,,,,,,,,,,,,,,,,,,,,CS1_USneg,None,1,,,,,,,,,,,,,,,,,,23,F,71,n,2019_Nov_24_1418,ec_RRR,3.0.4,59.99668808775441,
Balas and Sarzynnska,"Dla tego zadania, docelową postacią jest Jangmo:","Więc gdy tylko Jangmo (jego imię lub jego podobizna) pojawi się na ekranie, naciśnij spację tak szybko jak to możliwe. Uderz w spację gdy tylko zobaczysz podobiznę Jangmoa lub słowo JANGMO.

Naciśnij spację by rozpocząć zadanie",target1,stimuli/t1.jpg,71,12,stimuli/blank.jpg,blank,False,None,,,,,,,,,,,,,,0,0,0,0,,,,,0,1,1,0,0,11,11,11,,,,,,,,,,,,,,,,,,,,,,,,,,,,,,,,,,,,,,,,,,,,,,,,,,,,,CS1_USneg,None,1,,,,,,,,,,,,,,,,,,23,F,71,n,2019_Nov_24_1418,ec_RRR,3.0.4,59.99668808775441,
Balas and Sarzynnska,"Dla tego zadania, docelową postacią jest Jangmo:","Więc gdy tylko Jangmo (jego imię lub jego podobizna) pojawi się na ekranie, naciśnij spację tak szybko jak to możliwe. Uderz w spację gdy tylko zobaczysz podobiznę Jangmoa lub słowo JANGMO.

Naciśnij spację by rozpocząć zadanie",target1,stimuli/t1.jpg,71,13,stimuli/filler2.jpg,filler,False,None,,,,,,,,,,,,,,0,0,0,0,,,,,0,1,1,0,0,12,12,12,,,,,,,,,,,,,,,,,,,,,,,,,,,,,,,,,,,,,,,,,,,,,,,,,,,,,CS1_USneg,None,1,,,,,,,,,,,,,,,,,,23,F,71,n,2019_Nov_24_1418,ec_RRR,3.0.4,59.99668808775441,
Balas and Sarzynnska,"Dla tego zadania, docelową postacią jest Jangmo:","Więc gdy tylko Jangmo (jego imię lub jego podobizna) pojawi się na ekranie, naciśnij spację tak szybko jak to możliwe. Uderz w spację gdy tylko zobaczysz podobiznę Jangmoa lub słowo JANGMO.

Naciśnij spację by rozpocząć zadanie",target1,stimuli/t1.jpg,71,14,stimuli/filler29.jpg,filler,False,None,,,,,,,,,,,,,,0,0,0,0,,,,,0,1,1,0,0,13,13,13,,,,,,,,,,,,,,,,,,,,,,,,,,,,,,,,,,,,,,,,,,,,,,,,,,,,,CS1_USneg,None,1,,,,,,,,,,,,,,,,,,23,F,71,n,2019_Nov_24_1418,ec_RRR,3.0.4,59.99668808775441,
Balas and Sarzynnska,"Dla tego zadania, docelową postacią jest Jangmo:","Więc gdy tylko Jangmo (jego imię lub jego podobizna) pojawi się na ekranie, naciśnij spację tak szybko jak to możliwe. Uderz w spację gdy tylko zobaczysz podobiznę Jangmoa lub słowo JANGMO.

Naciśnij spację by rozpocząć zadanie",target1,stimuli/t1.jpg,71,15,stimuli/filler7.jpg,filler,False,None,,,,,,,,,,,,,,0,0,0,0,,,,,0,1,1,0,0,14,14,14,,,,,,,,,,,,,,,,,,,,,,,,,,,,,,,,,,,,,,,,,,,,,,,,,,,,,CS1_USneg,None,1,,,,,,,,,,,,,,,,,,23,F,71,n,2019_Nov_24_1418,ec_RRR,3.0.4,59.99668808775441,
Balas and Sarzynnska,"Dla tego zadania, docelową postacią jest Jangmo:","Więc gdy tylko Jangmo (jego imię lub jego podobizna) pojawi się na ekranie, naciśnij spację tak szybko jak to możliwe. Uderz w spację gdy tylko zobaczysz podobiznę Jangmoa lub słowo JANGMO.

Naciśnij spację by rozpocząć zadanie",target1,stimuli/t1.jpg,71,16,stimuli/filler14.jpg,filler,False,None,,,,,,,,,,,,,,0,0,0,0,,,,,0,1,1,0,0,15,15,15,,,,,,,,,,,,,,,,,,,,,,,,,,,,,,,,,,,,,,,,,,,,,,,,,,,,,CS1_USneg,None,1,,,,,,,,,,,,,,,,,,23,F,71,n,2019_Nov_24_1418,ec_RRR,3.0.4,59.99668808775441,
Balas and Sarzynnska,"Dla tego zadania, docelową postacią jest Jangmo:","Więc gdy tylko Jangmo (jego imię lub jego podobizna) pojawi się na ekranie, naciśnij spację tak szybko jak to możliwe. Uderz w spację gdy tylko zobaczysz podobiznę Jangmoa lub słowo JANGMO.

Naciśnij spację by rozpocząć zadanie",target1,stimuli/t1.jpg,71,17,stimuli/target1_8.jpg,target,True,space,,,,,,,,,,,,,,0,0,0,0,,,,,0,1,1,0,0,16,16,16,,,,,,,,,,,,,,,,,,,,,,,,,,,,,,,,,,,,,,,,,,,,,,,,,,,,,CS1_USneg,space,1,0.866907577496022,,,,,,,,,,,,,,,,,23,F,71,n,2019_Nov_24_1418,ec_RRR,3.0.4,59.99668808775441,
Balas and Sarzynnska,"Dla tego zadania, docelową postacią jest Jangmo:","Więc gdy tylko Jangmo (jego imię lub jego podobizna) pojawi się na ekranie, naciśnij spację tak szybko jak to możliwe. Uderz w spację gdy tylko zobaczysz podobiznę Jangmoa lub słowo JANGMO.

Naciśnij spację by rozpocząć zadanie",target1,stimuli/t1.jpg,71,18,stimuli/filler49.jpg,filler,False,None,,,,,,,,,,,,,,0,0,0,0,,,,,0,1,1,0,0,17,17,17,,,,,,,,,,,,,,,,,,,,,,,,,,,,,,,,,,,,,,,,,,,,,,,,,,,,,CS1_USneg,None,1,,,,,,,,,,,,,,,,,,23,F,71,n,2019_Nov_24_1418,ec_RRR,3.0.4,59.99668808775441,
Balas and Sarzynnska,"Dla tego zadania, docelową postacią jest Jangmo:","Więc gdy tylko Jangmo (jego imię lub jego podobizna) pojawi się na ekranie, naciśnij spację tak szybko jak to możliwe. Uderz w spację gdy tylko zobaczysz podobiznę Jangmoa lub słowo JANGMO.

Naciśnij spację by rozpocząć zadanie",target1,stimuli/t1.jpg,71,19,stimuli/filler28.jpg,filler,False,None,,,,,,,,,,,,,,0,0,0,0,,,,,0,1,1,0,0,18,18,18,,,,,,,,,,,,,,,,,,,,,,,,,,,,,,,,,,,,,,,,,,,,,,,,,,,,,CS1_USneg,None,1,,,,,,,,,,,,,,,,,,23,F,71,n,2019_Nov_24_1418,ec_RRR,3.0.4,59.99668808775441,
Balas and Sarzynnska,"Dla tego zadania, docelową postacią jest Jangmo:","Więc gdy tylko Jangmo (jego imię lub jego podobizna) pojawi się na ekranie, naciśnij spację tak szybko jak to możliwe. Uderz w spację gdy tylko zobaczysz podobiznę Jangmoa lub słowo JANGMO.

Naciśnij spację by rozpocząć zadanie",target1,stimuli/t1.jpg,71,20,stimuli/blank.jpg,blank,False,None,,,,,,,,,,,,,,0,0,0,0,,,,,0,1,1,0,0,19,19,19,,,,,,,,,,,,,,,,,,,,,,,,,,,,,,,,,,,,,,,,,,,,,,,,,,,,,CS1_USneg,None,1,,,,,,,,,,,,,,,,,,23,F,71,n,2019_Nov_24_1418,ec_RRR,3.0.4,59.99668808775441,
Balas and Sarzynnska,"Dla tego zadania, docelową postacią jest Jangmo:","Więc gdy tylko Jangmo (jego imię lub jego podobizna) pojawi się na ekranie, naciśnij spację tak szybko jak to możliwe. Uderz w spację gdy tylko zobaczysz podobiznę Jangmoa lub słowo JANGMO.

Naciśnij spację by rozpocząć zadanie",target1,stimuli/t1.jpg,71,21,stimuli/cs2_pos14.jpg,CSUS,False,None,,,,,,,,,,,,,,0,0,0,0,,,,,0,1,1,0,0,20,20,20,,,,,,,,,,,,,,,,,,,,,,,,,,,,,,,,,,,,,,,,,,,,,,,,,,,,,CS1_USneg,None,1,,,,,,,,,,,,,,,,,,23,F,71,n,2019_Nov_24_1418,ec_RRR,3.0.4,59.99668808775441,
Balas and Sarzynnska,"Dla tego zadania, docelową postacią jest Jangmo:","Więc gdy tylko Jangmo (jego imię lub jego podobizna) pojawi się na ekranie, naciśnij spację tak szybko jak to możliwe. Uderz w spację gdy tylko zobaczysz podobiznę Jangmoa lub słowo JANGMO.

Naciśnij spację by rozpocząć zadanie",target1,stimuli/t1.jpg,71,22,stimuli/blank.jpg,blank,False,None,,,,,,,,,,,,,,0,0,0,0,,,,,0,1,1,0,0,21,21,21,,,,,,,,,,,,,,,,,,,,,,,,,,,,,,,,,,,,,,,,,,,,,,,,,,,,,CS1_USneg,None,1,,,,,,,,,,,,,,,,,,23,F,71,n,2019_Nov_24_1418,ec_RRR,3.0.4,59.99668808775441,
Balas and Sarzynnska,"Dla tego zadania, docelową postacią jest Jangmo:","Więc gdy tylko Jangmo (jego imię lub jego podobizna) pojawi się na ekranie, naciśnij spację tak szybko jak to możliwe. Uderz w spację gdy tylko zobaczysz podobiznę Jangmoa lub słowo JANGMO.

Naciśnij spację by rozpocząć zadanie",target1,stimuli/t1.jpg,71,23,stimuli/filler43.jpg,filler,False,None,,,,,,,,,,,,,,0,0,0,0,,,,,0,1,1,0,0,22,22,22,,,,,,,,,,,,,,,,,,,,,,,,,,,,,,,,,,,,,,,,,,,,,,,,,,,,,CS1_USneg,None,1,,,,,,,,,,,,,,,,,,23,F,71,n,2019_Nov_24_1418,ec_RRR,3.0.4,59.99668808775441,
Balas and Sarzynnska,"Dla tego zadania, docelową postacią jest Jangmo:","Więc gdy tylko Jangmo (jego imię lub jego podobizna) pojawi się na ekranie, naciśnij spację tak szybko jak to możliwe. Uderz w spację gdy tylko zobaczysz podobiznę Jangmoa lub słowo JANGMO.

Naciśnij spację by rozpocząć zadanie",target1,stimuli/t1.jpg,71,24,stimuli/filler45.jpg,filler,False,None,,,,,,,,,,,,,,0,0,0,0,,,,,0,1,1,0,0,23,23,23,,,,,,,,,,,,,,,,,,,,,,,,,,,,,,,,,,,,,,,,,,,,,,,,,,,,,CS1_USneg,None,1,,,,,,,,,,,,,,,,,,23,F,71,n,2019_Nov_24_1418,ec_RRR,3.0.4,59.99668808775441,
Balas and Sarzynnska,"Dla tego zadania, docelową postacią jest Jangmo:","Więc gdy tylko Jangmo (jego imię lub jego podobizna) pojawi się na ekranie, naciśnij spację tak szybko jak to możliwe. Uderz w spację gdy tylko zobaczysz podobiznę Jangmoa lub słowo JANGMO.

Naciśnij spację by rozpocząć zadanie",target1,stimuli/t1.jpg,71,25,stimuli/filler26.jpg,filler,False,None,,,,,,,,,,,,,,0,0,0,0,,,,,0,1,1,0,0,24,24,24,,,,,,,,,,,,,,,,,,,,,,,,,,,,,,,,,,,,,,,,,,,,,,,,,,,,,CS1_USneg,None,1,,,,,,,,,,,,,,,,,,23,F,71,n,2019_Nov_24_1418,ec_RRR,3.0.4,59.99668808775441,
Balas and Sarzynnska,"Dla tego zadania, docelową postacią jest Jangmo:","Więc gdy tylko Jangmo (jego imię lub jego podobizna) pojawi się na ekranie, naciśnij spację tak szybko jak to możliwe. Uderz w spację gdy tylko zobaczysz podobiznę Jangmoa lub słowo JANGMO.

Naciśnij spację by rozpocząć zadanie",target1,stimuli/t1.jpg,71,26,stimuli/filler46.jpg,filler,False,None,,,,,,,,,,,,,,0,0,0,0,,,,,0,1,1,0,0,25,25,25,,,,,,,,,,,,,,,,,,,,,,,,,,,,,,,,,,,,,,,,,,,,,,,,,,,,,CS1_USneg,None,1,,,,,,,,,,,,,,,,,,23,F,71,n,2019_Nov_24_1418,ec_RRR,3.0.4,59.99668808775441,
Balas and Sarzynnska,"Dla tego zadania, docelową postacią jest Jangmo:","Więc gdy tylko Jangmo (jego imię lub jego podobizna) pojawi się na ekranie, naciśnij spację tak szybko jak to możliwe. Uderz w spację gdy tylko zobaczysz podobiznę Jangmoa lub słowo JANGMO.

Naciśnij spację by rozpocząć zadanie",target1,stimuli/t1.jpg,71,27,stimuli/filler6.jpg,filler,False,None,,,,,,,,,,,,,,0,0,0,0,,,,,0,1,1,0,0,26,26,26,,,,,,,,,,,,,,,,,,,,,,,,,,,,,,,,,,,,,,,,,,,,,,,,,,,,,CS1_USneg,None,1,,,,,,,,,,,,,,,,,,23,F,71,n,2019_Nov_24_1418,ec_RRR,3.0.4,59.99668808775441,
Balas and Sarzynnska,"Dla tego zadania, docelową postacią jest Jangmo:","Więc gdy tylko Jangmo (jego imię lub jego podobizna) pojawi się na ekranie, naciśnij spację tak szybko jak to możliwe. Uderz w spację gdy tylko zobaczysz podobiznę Jangmoa lub słowo JANGMO.

Naciśnij spację by rozpocząć zadanie",target1,stimuli/t1.jpg,71,28,stimuli/filler35.jpg,filler,False,None,,,,,,,,,,,,,,0,0,0,0,,,,,0,1,1,0,0,27,27,27,,,,,,,,,,,,,,,,,,,,,,,,,,,,,,,,,,,,,,,,,,,,,,,,,,,,,CS1_USneg,None,1,,,,,,,,,,,,,,,,,,23,F,71,n,2019_Nov_24_1418,ec_RRR,3.0.4,59.99668808775441,
Balas and Sarzynnska,"Dla tego zadania, docelową postacią jest Jangmo:","Więc gdy tylko Jangmo (jego imię lub jego podobizna) pojawi się na ekranie, naciśnij spację tak szybko jak to możliwe. Uderz w spację gdy tylko zobaczysz podobiznę Jangmoa lub słowo JANGMO.

Naciśnij spację by rozpocząć zadanie",target1,stimuli/t1.jpg,71,29,stimuli/filler34.jpg,filler,False,None,,,,,,,,,,,,,,0,0,0,0,,,,,0,1,1,0,0,28,28,28,,,,,,,,,,,,,,,,,,,,,,,,,,,,,,,,,,,,,,,,,,,,,,,,,,,,,CS1_USneg,None,1,,,,,,,,,,,,,,,,,,23,F,71,n,2019_Nov_24_1418,ec_RRR,3.0.4,59.99668808775441,
Balas and Sarzynnska,"Dla tego zadania, docelową postacią jest Jangmo:","Więc gdy tylko Jangmo (jego imię lub jego podobizna) pojawi się na ekranie, naciśnij spację tak szybko jak to możliwe. Uderz w spację gdy tylko zobaczysz podobiznę Jangmoa lub słowo JANGMO.

Naciśnij spację by rozpocząć zadanie",target1,stimuli/t1.jpg,71,30,stimuli/blank.jpg,blank,False,None,,,,,,,,,,,,,,0,0,0,0,,,,,0,1,1,0,0,29,29,29,,,,,,,,,,,,,,,,,,,,,,,,,,,,,,,,,,,,,,,,,,,,,,,,,,,,,CS1_USneg,None,1,,,,,,,,,,,,,,,,,,23,F,71,n,2019_Nov_24_1418,ec_RRR,3.0.4,59.99668808775441,
Balas and Sarzynnska,"Dla tego zadania, docelową postacią jest Jangmo:","Więc gdy tylko Jangmo (jego imię lub jego podobizna) pojawi się na ekranie, naciśnij spację tak szybko jak to możliwe. Uderz w spację gdy tylko zobaczysz podobiznę Jangmoa lub słowo JANGMO.

Naciśnij spację by rozpocząć zadanie",target1,stimuli/t1.jpg,71,31,stimuli/cs1_neg4.jpg,CSUS,False,None,,,,,,,,,,,,,,0,0,0,0,,,,,0,1,1,0,0,30,30,30,,,,,,,,,,,,,,,,,,,,,,,,,,,,,,,,,,,,,,,,,,,,,,,,,,,,,CS1_USneg,None,1,,,,,,,,,,,,,,,,,,23,F,71,n,2019_Nov_24_1418,ec_RRR,3.0.4,59.99668808775441,
Balas and Sarzynnska,"Dla tego zadania, docelową postacią jest Jangmo:","Więc gdy tylko Jangmo (jego imię lub jego podobizna) pojawi się na ekranie, naciśnij spację tak szybko jak to możliwe. Uderz w spację gdy tylko zobaczysz podobiznę Jangmoa lub słowo JANGMO.

Naciśnij spację by rozpocząć zadanie",target1,stimuli/t1.jpg,71,32,stimuli/blank.jpg,blank,False,None,,,,,,,,,,,,,,0,0,0,0,,,,,0,1,1,0,0,31,31,31,,,,,,,,,,,,,,,,,,,,,,,,,,,,,,,,,,,,,,,,,,,,,,,,,,,,,CS1_USneg,None,1,,,,,,,,,,,,,,,,,,23,F,71,n,2019_Nov_24_1418,ec_RRR,3.0.4,59.99668808775441,
Balas and Sarzynnska,"Dla tego zadania, docelową postacią jest Jangmo:","Więc gdy tylko Jangmo (jego imię lub jego podobizna) pojawi się na ekranie, naciśnij spację tak szybko jak to możliwe. Uderz w spację gdy tylko zobaczysz podobiznę Jangmoa lub słowo JANGMO.

Naciśnij spację by rozpocząć zadanie",target1,stimuli/t1.jpg,71,33,stimuli/filler38.jpg,filler,False,None,,,,,,,,,,,,,,0,0,0,0,,,,,0,1,1,0,0,32,32,32,,,,,,,,,,,,,,,,,,,,,,,,,,,,,,,,,,,,,,,,,,,,,,,,,,,,,CS1_USneg,None,1,,,,,,,,,,,,,,,,,,23,F,71,n,2019_Nov_24_1418,ec_RRR,3.0.4,59.99668808775441,
Balas and Sarzynnska,"Dla tego zadania, docelową postacią jest Jangmo:","Więc gdy tylko Jangmo (jego imię lub jego podobizna) pojawi się na ekranie, naciśnij spację tak szybko jak to możliwe. Uderz w spację gdy tylko zobaczysz podobiznę Jangmoa lub słowo JANGMO.

Naciśnij spację by rozpocząć zadanie",target1,stimuli/t1.jpg,71,34,stimuli/filler25.jpg,filler,False,None,,,,,,,,,,,,,,0,0,0,0,,,,,0,1,1,0,0,33,33,33,,,,,,,,,,,,,,,,,,,,,,,,,,,,,,,,,,,,,,,,,,,,,,,,,,,,,CS1_USneg,None,1,,,,,,,,,,,,,,,,,,23,F,71,n,2019_Nov_24_1418,ec_RRR,3.0.4,59.99668808775441,
Balas and Sarzynnska,"Dla tego zadania, docelową postacią jest Jangmo:","Więc gdy tylko Jangmo (jego imię lub jego podobizna) pojawi się na ekranie, naciśnij spację tak szybko jak to możliwe. Uderz w spację gdy tylko zobaczysz podobiznę Jangmoa lub słowo JANGMO.

Naciśnij spację by rozpocząć zadanie",target1,stimuli/t1.jpg,71,35,stimuli/filler39.jpg,filler,False,None,,,,,,,,,,,,,,0,0,0,0,,,,,0,1,1,0,0,34,34,34,,,,,,,,,,,,,,,,,,,,,,,,,,,,,,,,,,,,,,,,,,,,,,,,,,,,,CS1_USneg,None,1,,,,,,,,,,,,,,,,,,23,F,71,n,2019_Nov_24_1418,ec_RRR,3.0.4,59.99668808775441,
Balas and Sarzynnska,"Dla tego zadania, docelową postacią jest Jangmo:","Więc gdy tylko Jangmo (jego imię lub jego podobizna) pojawi się na ekranie, naciśnij spację tak szybko jak to możliwe. Uderz w spację gdy tylko zobaczysz podobiznę Jangmoa lub słowo JANGMO.

Naciśnij spację by rozpocząć zadanie",target1,stimuli/t1.jpg,71,36,stimuli/filler15.jpg,filler,False,None,,,,,,,,,,,,,,0,0,0,0,,,,,0,1,1,0,0,35,35,35,,,,,,,,,,,,,,,,,,,,,,,,,,,,,,,,,,,,,,,,,,,,,,,,,,,,,CS1_USneg,None,1,,,,,,,,,,,,,,,,,,23,F,71,n,2019_Nov_24_1418,ec_RRR,3.0.4,59.99668808775441,
Balas and Sarzynnska,"Dla tego zadania, docelową postacią jest Jangmo:","Więc gdy tylko Jangmo (jego imię lub jego podobizna) pojawi się na ekranie, naciśnij spację tak szybko jak to możliwe. Uderz w spację gdy tylko zobaczysz podobiznę Jangmoa lub słowo JANGMO.

Naciśnij spację by rozpocząć zadanie",target1,stimuli/t1.jpg,71,37,stimuli/target1_6.jpg,target,True,space,,,,,,,,,,,,,,0,0,0,0,,,,,0,1,1,0,0,36,36,36,,,,,,,,,,,,,,,,,,,,,,,,,,,,,,,,,,,,,,,,,,,,,,,,,,,,,CS1_USneg,space,1,1.0335640265839174,,,,,,,,,,,,,,,,,23,F,71,n,2019_Nov_24_1418,ec_RRR,3.0.4,59.99668808775441,
Balas and Sarzynnska,"Dla tego zadania, docelową postacią jest Jangmo:","Więc gdy tylko Jangmo (jego imię lub jego podobizna) pojawi się na ekranie, naciśnij spację tak szybko jak to możliwe. Uderz w spację gdy tylko zobaczysz podobiznę Jangmoa lub słowo JANGMO.

Naciśnij spację by rozpocząć zadanie",target1,stimuli/t1.jpg,71,38,stimuli/filler11.jpg,filler,False,None,,,,,,,,,,,,,,0,0,0,0,,,,,0,1,1,0,0,37,37,37,,,,,,,,,,,,,,,,,,,,,,,,,,,,,,,,,,,,,,,,,,,,,,,,,,,,,CS1_USneg,None,1,,,,,,,,,,,,,,,,,,23,F,71,n,2019_Nov_24_1418,ec_RRR,3.0.4,59.99668808775441,
Balas and Sarzynnska,"Dla tego zadania, docelową postacią jest Jangmo:","Więc gdy tylko Jangmo (jego imię lub jego podobizna) pojawi się na ekranie, naciśnij spację tak szybko jak to możliwe. Uderz w spację gdy tylko zobaczysz podobiznę Jangmoa lub słowo JANGMO.

Naciśnij spację by rozpocząć zadanie",target1,stimuli/t1.jpg,71,39,stimuli/filler40.jpg,filler,False,None,,,,,,,,,,,,,,0,0,0,0,,,,,0,1,1,0,0,38,38,38,,,,,,,,,,,,,,,,,,,,,,,,,,,,,,,,,,,,,,,,,,,,,,,,,,,,,CS1_USneg,None,1,,,,,,,,,,,,,,,,,,23,F,71,n,2019_Nov_24_1418,ec_RRR,3.0.4,59.99668808775441,
Balas and Sarzynnska,"Dla tego zadania, docelową postacią jest Jangmo:","Więc gdy tylko Jangmo (jego imię lub jego podobizna) pojawi się na ekranie, naciśnij spację tak szybko jak to możliwe. Uderz w spację gdy tylko zobaczysz podobiznę Jangmoa lub słowo JANGMO.

Naciśnij spację by rozpocząć zadanie",target1,stimuli/t1.jpg,71,40,stimuli/blank.jpg,blank,False,None,,,,,,,,,,,,,,0,0,0,0,,,,,0,1,1,0,0,39,39,39,,,,,,,,,,,,,,,,,,,,,,,,,,,,,,,,,,,,,,,,,,,,,,,,,,,,,CS1_USneg,None,1,,,,,,,,,,,,,,,,,,23,F,71,n,2019_Nov_24_1418,ec_RRR,3.0.4,59.99668808775441,
Balas and Sarzynnska,"Dla tego zadania, docelową postacią jest Jangmo:","Więc gdy tylko Jangmo (jego imię lub jego podobizna) pojawi się na ekranie, naciśnij spację tak szybko jak to możliwe. Uderz w spację gdy tylko zobaczysz podobiznę Jangmoa lub słowo JANGMO.

Naciśnij spację by rozpocząć zadanie",target1,stimuli/t1.jpg,71,41,stimuli/cs2_pos13.jpg,CSUS,False,None,,,,,,,,,,,,,,0,0,0,0,,,,,0,1,1,0,0,40,40,40,,,,,,,,,,,,,,,,,,,,,,,,,,,,,,,,,,,,,,,,,,,,,,,,,,,,,CS1_USneg,None,1,,,,,,,,,,,,,,,,,,23,F,71,n,2019_Nov_24_1418,ec_RRR,3.0.4,59.99668808775441,
Balas and Sarzynnska,"Dla tego zadania, docelową postacią jest Jangmo:","Więc gdy tylko Jangmo (jego imię lub jego podobizna) pojawi się na ekranie, naciśnij spację tak szybko jak to możliwe. Uderz w spację gdy tylko zobaczysz podobiznę Jangmoa lub słowo JANGMO.

Naciśnij spację by rozpocząć zadanie",target1,stimuli/t1.jpg,71,42,stimuli/blank.jpg,blank,False,None,,,,,,,,,,,,,,0,0,0,0,,,,,0,1,1,0,0,41,41,41,,,,,,,,,,,,,,,,,,,,,,,,,,,,,,,,,,,,,,,,,,,,,,,,,,,,,CS1_USneg,None,1,,,,,,,,,,,,,,,,,,23,F,71,n,2019_Nov_24_1418,ec_RRR,3.0.4,59.99668808775441,
Balas and Sarzynnska,"Dla tego zadania, docelową postacią jest Jangmo:","Więc gdy tylko Jangmo (jego imię lub jego podobizna) pojawi się na ekranie, naciśnij spację tak szybko jak to możliwe. Uderz w spację gdy tylko zobaczysz podobiznę Jangmoa lub słowo JANGMO.

Naciśnij spację by rozpocząć zadanie",target1,stimuli/t1.jpg,71,43,stimuli/filler8.jpg,filler,False,None,,,,,,,,,,,,,,0,0,0,0,,,,,0,1,1,0,0,42,42,42,,,,,,,,,,,,,,,,,,,,,,,,,,,,,,,,,,,,,,,,,,,,,,,,,,,,,CS1_USneg,None,1,,,,,,,,,,,,,,,,,,23,F,71,n,2019_Nov_24_1418,ec_RRR,3.0.4,59.99668808775441,
Balas and Sarzynnska,"Dla tego zadania, docelową postacią jest Jangmo:","Więc gdy tylko Jangmo (jego imię lub jego podobizna) pojawi się na ekranie, naciśnij spację tak szybko jak to możliwe. Uderz w spację gdy tylko zobaczysz podobiznę Jangmoa lub słowo JANGMO.

Naciśnij spację by rozpocząć zadanie",target1,stimuli/t1.jpg,71,44,stimuli/filler32.jpg,filler,False,None,,,,,,,,,,,,,,0,0,0,0,,,,,0,1,1,0,0,43,43,43,,,,,,,,,,,,,,,,,,,,,,,,,,,,,,,,,,,,,,,,,,,,,,,,,,,,,CS1_USneg,None,1,,,,,,,,,,,,,,,,,,23,F,71,n,2019_Nov_24_1418,ec_RRR,3.0.4,59.99668808775441,
Balas and Sarzynnska,"Dla tego zadania, docelową postacią jest Jangmo:","Więc gdy tylko Jangmo (jego imię lub jego podobizna) pojawi się na ekranie, naciśnij spację tak szybko jak to możliwe. Uderz w spację gdy tylko zobaczysz podobiznę Jangmoa lub słowo JANGMO.

Naciśnij spację by rozpocząć zadanie",target1,stimuli/t1.jpg,71,45,stimuli/filler3.jpg,filler,False,None,,,,,,,,,,,,,,0,0,0,0,,,,,0,1,1,0,0,44,44,44,,,,,,,,,,,,,,,,,,,,,,,,,,,,,,,,,,,,,,,,,,,,,,,,,,,,,CS1_USneg,None,1,,,,,,,,,,,,,,,,,,23,F,71,n,2019_Nov_24_1418,ec_RRR,3.0.4,59.99668808775441,
Balas and Sarzynnska,"Dla tego zadania, docelową postacią jest Jangmo:","Więc gdy tylko Jangmo (jego imię lub jego podobizna) pojawi się na ekranie, naciśnij spację tak szybko jak to możliwe. Uderz w spację gdy tylko zobaczysz podobiznę Jangmoa lub słowo JANGMO.

Naciśnij spację by rozpocząć zadanie",target1,stimuli/t1.jpg,71,46,stimuli/filler17.jpg,filler,False,None,,,,,,,,,,,,,,0,0,0,0,,,,,0,1,1,0,0,45,45,45,,,,,,,,,,,,,,,,,,,,,,,,,,,,,,,,,,,,,,,,,,,,,,,,,,,,,CS1_USneg,None,1,,,,,,,,,,,,,,,,,,23,F,71,n,2019_Nov_24_1418,ec_RRR,3.0.4,59.99668808775441,
Balas and Sarzynnska,"Dla tego zadania, docelową postacią jest Jangmo:","Więc gdy tylko Jangmo (jego imię lub jego podobizna) pojawi się na ekranie, naciśnij spację tak szybko jak to możliwe. Uderz w spację gdy tylko zobaczysz podobiznę Jangmoa lub słowo JANGMO.

Naciśnij spację by rozpocząć zadanie",target1,stimuli/t1.jpg,71,47,stimuli/filler31.jpg,filler,False,None,,,,,,,,,,,,,,0,0,0,0,,,,,0,1,1,0,0,46,46,46,,,,,,,,,,,,,,,,,,,,,,,,,,,,,,,,,,,,,,,,,,,,,,,,,,,,,CS1_USneg,None,1,,,,,,,,,,,,,,,,,,23,F,71,n,2019_Nov_24_1418,ec_RRR,3.0.4,59.99668808775441,
Balas and Sarzynnska,"Dla tego zadania, docelową postacią jest Jangmo:","Więc gdy tylko Jangmo (jego imię lub jego podobizna) pojawi się na ekranie, naciśnij spację tak szybko jak to możliwe. Uderz w spację gdy tylko zobaczysz podobiznę Jangmoa lub słowo JANGMO.

Naciśnij spację by rozpocząć zadanie",target1,stimuli/t1.jpg,71,48,stimuli/filler24.jpg,filler,False,None,,,,,,,,,,,,,,0,0,0,0,,,,,0,1,1,0,0,47,47,47,,,,,,,,,,,,,,,,,,,,,,,,,,,,,,,,,,,,,,,,,,,,,,,,,,,,,CS1_USneg,None,1,,,,,,,,,,,,,,,,,,23,F,71,n,2019_Nov_24_1418,ec_RRR,3.0.4,59.99668808775441,
Balas and Sarzynnska,"Dla tego zadania, docelową postacią jest Jangmo:","Więc gdy tylko Jangmo (jego imię lub jego podobizna) pojawi się na ekranie, naciśnij spację tak szybko jak to możliwe. Uderz w spację gdy tylko zobaczysz podobiznę Jangmoa lub słowo JANGMO.

Naciśnij spację by rozpocząć zadanie",target1,stimuli/t1.jpg,71,49,stimuli/filler23.jpg,filler,False,None,,,,,,,,,,,,,,0,0,0,0,,,,,0,1,1,0,0,48,48,48,,,,,,,,,,,,,,,,,,,,,,,,,,,,,,,,,,,,,,,,,,,,,,,,,,,,,CS1_USneg,None,1,,,,,,,,,,,,,,,,,,23,F,71,n,2019_Nov_24_1418,ec_RRR,3.0.4,59.99668808775441,
Balas and Sarzynnska,"Dla tego zadania, docelową postacią jest Jangmo:","Więc gdy tylko Jangmo (jego imię lub jego podobizna) pojawi się na ekranie, naciśnij spację tak szybko jak to możliwe. Uderz w spację gdy tylko zobaczysz podobiznę Jangmoa lub słowo JANGMO.

Naciśnij spację by rozpocząć zadanie",target1,stimuli/t1.jpg,71,50,stimuli/blank.jpg,blank,False,None,,,,,,,,,,,,,,0,0,0,0,,,,,0,1,1,0,0,49,49,49,,,,,,,,,,,,,,,,,,,,,,,,,,,,,,,,,,,,,,,,,,,,,,,,,,,,,CS1_USneg,None,1,,,,,,,,,,,,,,,,,,23,F,71,n,2019_Nov_24_1418,ec_RRR,3.0.4,59.99668808775441,
Balas and Sarzynnska,"Dla tego zadania, docelową postacią jest Jangmo:","Więc gdy tylko Jangmo (jego imię lub jego podobizna) pojawi się na ekranie, naciśnij spację tak szybko jak to możliwe. Uderz w spację gdy tylko zobaczysz podobiznę Jangmoa lub słowo JANGMO.

Naciśnij spację by rozpocząć zadanie",target1,stimuli/t1.jpg,71,51,stimuli/cs1_neg15.jpg,CSUS,False,None,,,,,,,,,,,,,,0,0,0,0,,,,,0,1,1,0,0,50,50,50,,,,,,,,,,,,,,,,,,,,,,,,,,,,,,,,,,,,,,,,,,,,,,,,,,,,,CS1_USneg,None,1,,,,,,,,,,,,,,,,,,23,F,71,n,2019_Nov_24_1418,ec_RRR,3.0.4,59.99668808775441,
Balas and Sarzynnska,"Dla tego zadania, docelową postacią jest Jangmo:","Więc gdy tylko Jangmo (jego imię lub jego podobizna) pojawi się na ekranie, naciśnij spację tak szybko jak to możliwe. Uderz w spację gdy tylko zobaczysz podobiznę Jangmoa lub słowo JANGMO.

Naciśnij spację by rozpocząć zadanie",target1,stimuli/t1.jpg,71,52,stimuli/blank.jpg,blank,False,None,,,,,,,,,,,,,,0,0,0,0,,,,,0,1,1,0,0,51,51,51,,,,,,,,,,,,,,,,,,,,,,,,,,,,,,,,,,,,,,,,,,,,,,,,,,,,,CS1_USneg,None,1,,,,,,,,,,,,,,,,,,23,F,71,n,2019_Nov_24_1418,ec_RRR,3.0.4,59.99668808775441,
Balas and Sarzynnska,"Dla tego zadania, docelową postacią jest Jangmo:","Więc gdy tylko Jangmo (jego imię lub jego podobizna) pojawi się na ekranie, naciśnij spację tak szybko jak to możliwe. Uderz w spację gdy tylko zobaczysz podobiznę Jangmoa lub słowo JANGMO.

Naciśnij spację by rozpocząć zadanie",target1,stimuli/t1.jpg,71,53,stimuli/filler27.jpg,filler,False,None,,,,,,,,,,,,,,0,0,0,0,,,,,0,1,1,0,0,52,52,52,,,,,,,,,,,,,,,,,,,,,,,,,,,,,,,,,,,,,,,,,,,,,,,,,,,,,CS1_USneg,None,1,,,,,,,,,,,,,,,,,,23,F,71,n,2019_Nov_24_1418,ec_RRR,3.0.4,59.99668808775441,
Balas and Sarzynnska,"Dla tego zadania, docelową postacią jest Jangmo:","Więc gdy tylko Jangmo (jego imię lub jego podobizna) pojawi się na ekranie, naciśnij spację tak szybko jak to możliwe. Uderz w spację gdy tylko zobaczysz podobiznę Jangmoa lub słowo JANGMO.

Naciśnij spację by rozpocząć zadanie",target1,stimuli/t1.jpg,71,54,stimuli/filler42.jpg,filler,False,None,,,,,,,,,,,,,,0,0,0,0,,,,,0,1,1,0,0,53,53,53,,,,,,,,,,,,,,,,,,,,,,,,,,,,,,,,,,,,,,,,,,,,,,,,,,,,,CS1_USneg,None,1,,,,,,,,,,,,,,,,,,23,F,71,n,2019_Nov_24_1418,ec_RRR,3.0.4,59.99668808775441,
Balas and Sarzynnska,"Dla tego zadania, docelową postacią jest Jangmo:","Więc gdy tylko Jangmo (jego imię lub jego podobizna) pojawi się na ekranie, naciśnij spację tak szybko jak to możliwe. Uderz w spację gdy tylko zobaczysz podobiznę Jangmoa lub słowo JANGMO.

Naciśnij spację by rozpocząć zadanie",target1,stimuli/t1.jpg,71,55,stimuli/target1_1.jpg,target,True,space,,,,,,,,,,,,,,0,0,0,0,,,,,0,1,1,0,0,54,54,54,,,,,,,,,,,,,,,,,,,,,,,,,,,,,,,,,,,,,,,,,,,,,,,,,,,,,CS1_USneg,space,1,0.7836011284962296,,,,,,,,,,,,,,,,,23,F,71,n,2019_Nov_24_1418,ec_RRR,3.0.4,59.99668808775441,
Balas and Sarzynnska,"Dla tego zadania, docelową postacią jest Jangmo:","Więc gdy tylko Jangmo (jego imię lub jego podobizna) pojawi się na ekranie, naciśnij spację tak szybko jak to możliwe. Uderz w spację gdy tylko zobaczysz podobiznę Jangmoa lub słowo JANGMO.

Naciśnij spację by rozpocząć zadanie",target1,stimuli/t1.jpg,71,56,stimuli/filler47.jpg,filler,False,None,,,,,,,,,,,,,,0,0,0,0,,,,,0,1,1,0,0,55,55,55,,,,,,,,,,,,,,,,,,,,,,,,,,,,,,,,,,,,,,,,,,,,,,,,,,,,,CS1_USneg,None,1,,,,,,,,,,,,,,,,,,23,F,71,n,2019_Nov_24_1418,ec_RRR,3.0.4,59.99668808775441,
Balas and Sarzynnska,"Dla tego zadania, docelową postacią jest Jangmo:","Więc gdy tylko Jangmo (jego imię lub jego podobizna) pojawi się na ekranie, naciśnij spację tak szybko jak to możliwe. Uderz w spację gdy tylko zobaczysz podobiznę Jangmoa lub słowo JANGMO.

Naciśnij spację by rozpocząć zadanie",target1,stimuli/t1.jpg,71,57,stimuli/filler18.jpg,filler,False,None,,,,,,,,,,,,,,0,0,0,0,,,,,0,1,1,0,0,56,56,56,,,,,,,,,,,,,,,,,,,,,,,,,,,,,,,,,,,,,,,,,,,,,,,,,,,,,CS1_USneg,None,1,,,,,,,,,,,,,,,,,,23,F,71,n,2019_Nov_24_1418,ec_RRR,3.0.4,59.99668808775441,
Balas and Sarzynnska,"Dla tego zadania, docelową postacią jest Jangmo:","Więc gdy tylko Jangmo (jego imię lub jego podobizna) pojawi się na ekranie, naciśnij spację tak szybko jak to możliwe. Uderz w spację gdy tylko zobaczysz podobiznę Jangmoa lub słowo JANGMO.

Naciśnij spację by rozpocząć zadanie",target1,stimuli/t1.jpg,71,58,stimuli/filler19.jpg,filler,False,None,,,,,,,,,,,,,,0,0,0,0,,,,,0,1,1,0,0,57,57,57,,,,,,,,,,,,,,,,,,,,,,,,,,,,,,,,,,,,,,,,,,,,,,,,,,,,,CS1_USneg,None,1,,,,,,,,,,,,,,,,,,23,F,71,n,2019_Nov_24_1418,ec_RRR,3.0.4,59.99668808775441,
Balas and Sarzynnska,"Dla tego zadania, docelową postacią jest Jangmo:","Więc gdy tylko Jangmo (jego imię lub jego podobizna) pojawi się na ekranie, naciśnij spację tak szybko jak to możliwe. Uderz w spację gdy tylko zobaczysz podobiznę Jangmoa lub słowo JANGMO.

Naciśnij spację by rozpocząć zadanie",target1,stimuli/t1.jpg,71,59,stimuli/filler44.jpg,filler,False,None,,,,,,,,,,,,,,0,0,0,0,,,,,0,1,1,0,0,58,58,58,,,,,,,,,,,,,,,,,,,,,,,,,,,,,,,,,,,,,,,,,,,,,,,,,,,,,CS1_USneg,None,1,,,,,,,,,,,,,,,,,,23,F,71,n,2019_Nov_24_1418,ec_RRR,3.0.4,59.99668808775441,
Balas and Sarzynnska,"Dla tego zadania, docelową postacią jest Jangmo:","Więc gdy tylko Jangmo (jego imię lub jego podobizna) pojawi się na ekranie, naciśnij spację tak szybko jak to możliwe. Uderz w spację gdy tylko zobaczysz podobiznę Jangmoa lub słowo JANGMO.

Naciśnij spację by rozpocząć zadanie",target1,stimuli/t1.jpg,71,60,stimuli/blank.jpg,blank,False,None,,,,,,,,,,,,,,0,0,0,0,,,,,0,1,1,0,0,59,59,59,,,,,,,,,,,,,,,,,,,,,,,,,,,,,,,,,,,,,,,,,,,,,,,,,,,,,CS1_USneg,None,1,,,,,,,,,,,,,,,,,,23,F,71,n,2019_Nov_24_1418,ec_RRR,3.0.4,59.99668808775441,
Balas and Sarzynnska,"Dla tego zadania, docelową postacią jest Jangmo:","Więc gdy tylko Jangmo (jego imię lub jego podobizna) pojawi się na ekranie, naciśnij spację tak szybko jak to możliwe. Uderz w spację gdy tylko zobaczysz podobiznę Jangmoa lub słowo JANGMO.

Naciśnij spację by rozpocząć zadanie",target1,stimuli/t1.jpg,71,61,stimuli/cs2_pos15.jpg,CSUS,False,None,,,,,,,,,,,,,,0,0,0,0,,,,,0,1,1,0,0,60,60,60,,,,,,,,,,,,,,,,,,,,,,,,,,,,,,,,,,,,,,,,,,,,,,,,,,,,,CS1_USneg,None,1,,,,,,,,,,,,,,,,,,23,F,71,n,2019_Nov_24_1418,ec_RRR,3.0.4,59.99668808775441,
Balas and Sarzynnska,"Dla tego zadania, docelową postacią jest Jangmo:","Więc gdy tylko Jangmo (jego imię lub jego podobizna) pojawi się na ekranie, naciśnij spację tak szybko jak to możliwe. Uderz w spację gdy tylko zobaczysz podobiznę Jangmoa lub słowo JANGMO.

Naciśnij spację by rozpocząć zadanie",target1,stimuli/t1.jpg,71,62,stimuli/blank.jpg,blank,False,None,,,,,,,,,,,,,,0,0,0,0,,,,,0,1,1,0,0,61,61,61,,,,,,,,,,,,,,,,,,,,,,,,,,,,,,,,,,,,,,,,,,,,,,,,,,,,,CS1_USneg,None,1,,,,,,,,,,,,,,,,,,23,F,71,n,2019_Nov_24_1418,ec_RRR,3.0.4,59.99668808775441,
Balas and Sarzynnska,"Dla tego zadania, docelową postacią jest Jangmo:","Więc gdy tylko Jangmo (jego imię lub jego podobizna) pojawi się na ekranie, naciśnij spację tak szybko jak to możliwe. Uderz w spację gdy tylko zobaczysz podobiznę Jangmoa lub słowo JANGMO.

Naciśnij spację by rozpocząć zadanie",target1,stimuli/t1.jpg,71,63,stimuli/filler1.jpg,filler,False,None,,,,,,,,,,,,,,0,0,0,0,,,,,0,1,1,0,0,62,62,62,,,,,,,,,,,,,,,,,,,,,,,,,,,,,,,,,,,,,,,,,,,,,,,,,,,,,CS1_USneg,None,1,,,,,,,,,,,,,,,,,,23,F,71,n,2019_Nov_24_1418,ec_RRR,3.0.4,59.99668808775441,
Balas and Sarzynnska,"Dla tego zadania, docelową postacią jest Jangmo:","Więc gdy tylko Jangmo (jego imię lub jego podobizna) pojawi się na ekranie, naciśnij spację tak szybko jak to możliwe. Uderz w spację gdy tylko zobaczysz podobiznę Jangmoa lub słowo JANGMO.

Naciśnij spację by rozpocząć zadanie",target1,stimuli/t1.jpg,71,64,stimuli/target1_2.jpg,target,True,space,,,,,,,,,,,,,,0,0,0,0,,,,,0,1,1,0,0,63,63,63,,,,,,,,,,,,,,,,,,,,,,,,,,,,,,,,,,,,,,,,,,,,,,,,,,,,,CS1_USneg,space,1,0.9169260105118155,,,,,,,,,,,,,,,,,23,F,71,n,2019_Nov_24_1418,ec_RRR,3.0.4,59.99668808775441,
Balas and Sarzynnska,"Dla tego zadania, docelową postacią jest Jangmo:","Więc gdy tylko Jangmo (jego imię lub jego podobizna) pojawi się na ekranie, naciśnij spację tak szybko jak to możliwe. Uderz w spację gdy tylko zobaczysz podobiznę Jangmoa lub słowo JANGMO.

Naciśnij spację by rozpocząć zadanie",target1,stimuli/t1.jpg,71,65,stimuli/filler36.jpg,filler,False,None,,,,,,,,,,,,,,0,0,0,0,,,,,0,1,1,0,0,64,64,64,,,,,,,,,,,,,,,,,,,,,,,,,,,,,,,,,,,,,,,,,,,,,,,,,,,,,CS1_USneg,None,1,,,,,,,,,,,,,,,,,,23,F,71,n,2019_Nov_24_1418,ec_RRR,3.0.4,59.99668808775441,
Balas and Sarzynnska,"Dla tego zadania, docelową postacią jest Jangmo:","Więc gdy tylko Jangmo (jego imię lub jego podobizna) pojawi się na ekranie, naciśnij spację tak szybko jak to możliwe. Uderz w spację gdy tylko zobaczysz podobiznę Jangmoa lub słowo JANGMO.

Naciśnij spację by rozpocząć zadanie",target1,stimuli/t1.jpg,71,66,stimuli/filler33.jpg,filler,False,None,,,,,,,,,,,,,,0,0,0,0,,,,,0,1,1,0,0,65,65,65,,,,,,,,,,,,,,,,,,,,,,,,,,,,,,,,,,,,,,,,,,,,,,,,,,,,,CS1_USneg,None,1,,,,,,,,,,,,,,,,,,23,F,71,n,2019_Nov_24_1418,ec_RRR,3.0.4,59.99668808775441,
Balas and Sarzynnska,"Dla tego zadania, docelową postacią jest Jangmo:","Więc gdy tylko Jangmo (jego imię lub jego podobizna) pojawi się na ekranie, naciśnij spację tak szybko jak to możliwe. Uderz w spację gdy tylko zobaczysz podobiznę Jangmoa lub słowo JANGMO.

Naciśnij spację by rozpocząć zadanie",target1,stimuli/t1.jpg,71,67,stimuli/filler51.jpg,filler,False,None,,,,,,,,,,,,,,0,0,0,0,,,,,0,1,1,0,0,66,66,66,,,,,,,,,,,,,,,,,,,,,,,,,,,,,,,,,,,,,,,,,,,,,,,,,,,,,CS1_USneg,None,1,,,,,,,,,,,,,,,,,,23,F,71,n,2019_Nov_24_1418,ec_RRR,3.0.4,59.99668808775441,
Balas and Sarzynnska,"Dla tego zadania, docelową postacią jest Jangmo:","Więc gdy tylko Jangmo (jego imię lub jego podobizna) pojawi się na ekranie, naciśnij spację tak szybko jak to możliwe. Uderz w spację gdy tylko zobaczysz podobiznę Jangmoa lub słowo JANGMO.

Naciśnij spację by rozpocząć zadanie",target1,stimuli/t1.jpg,71,68,stimuli/filler41.jpg,filler,False,None,,,,,,,,,,,,,,0,0,0,0,,,,,0,1,1,0,0,67,67,67,,,,,,,,,,,,,,,,,,,,,,,,,,,,,,,,,,,,,,,,,,,,,,,,,,,,,CS1_USneg,None,1,,,,,,,,,,,,,,,,,,23,F,71,n,2019_Nov_24_1418,ec_RRR,3.0.4,59.99668808775441,
Balas and Sarzynnska,"Dla tego zadania, docelową postacią jest Jangmo:","Więc gdy tylko Jangmo (jego imię lub jego podobizna) pojawi się na ekranie, naciśnij spację tak szybko jak to możliwe. Uderz w spację gdy tylko zobaczysz podobiznę Jangmoa lub słowo JANGMO.

Naciśnij spację by rozpocząć zadanie",target1,stimuli/t1.jpg,71,69,stimuli/target1_9.jpg,target,True,space,,,,,,,,,,,,,,0,0,0,0,,,,,0,1,1,0,0,68,68,68,,,,,,,,,,,,,,,,,,,,,,,,,,,,,,,,,,,,,,,,,,,,,,,,,,,,,CS1_USneg,space,1,0.9002236104570329,,,,,,,,,,,,,,,,,23,F,71,n,2019_Nov_24_1418,ec_RRR,3.0.4,59.99668808775441,
Balas and Sarzynnska,"Dla tego zadania, docelową postacią jest Jangmo:","Więc gdy tylko Jangmo (jego imię lub jego podobizna) pojawi się na ekranie, naciśnij spację tak szybko jak to możliwe. Uderz w spację gdy tylko zobaczysz podobiznę Jangmoa lub słowo JANGMO.

Naciśnij spację by rozpocząć zadanie",target1,stimuli/t1.jpg,71,70,stimuli/blank.jpg,blank,False,None,,,,,,,,,,,,,,0,0,0,0,,,,,0,1,1,0,0,69,69,69,,,,,,,,,,,,,,,,,,,,,,,,,,,,,,,,,,,,,,,,,,,,,,,,,,,,,CS1_USneg,None,1,,,,,,,,,,,,,,,,,,23,F,71,n,2019_Nov_24_1418,ec_RRR,3.0.4,59.99668808775441,
Balas and Sarzynnska,"Dla tego zadania, docelową postacią jest Jangmo:","Więc gdy tylko Jangmo (jego imię lub jego podobizna) pojawi się na ekranie, naciśnij spację tak szybko jak to możliwe. Uderz w spację gdy tylko zobaczysz podobiznę Jangmoa lub słowo JANGMO.

Naciśnij spację by rozpocząć zadanie",target1,stimuli/t1.jpg,71,71,stimuli/cs1_neg16.jpg,CSUS,False,None,,,,,,,,,,,,,,0,0,0,0,,,,,0,1,1,0,0,70,70,70,,,,,,,,,,,,,,,,,,,,,,,,,,,,,,,,,,,,,,,,,,,,,,,,,,,,,CS1_USneg,None,1,,,,,,,,,,,,,,,,,,23,F,71,n,2019_Nov_24_1418,ec_RRR,3.0.4,59.99668808775441,
Balas and Sarzynnska,"Dla tego zadania, docelową postacią jest Jangmo:","Więc gdy tylko Jangmo (jego imię lub jego podobizna) pojawi się na ekranie, naciśnij spację tak szybko jak to możliwe. Uderz w spację gdy tylko zobaczysz podobiznę Jangmoa lub słowo JANGMO.

Naciśnij spację by rozpocząć zadanie",target1,stimuli/t1.jpg,71,72,stimuli/blank.jpg,blank,False,None,,,,,,,,,,,,,,0,0,0,0,,,,,0,1,1,0,0,71,71,71,,,,,,,,,,,,,,,,,,,,,,,,,,,,,,,,,,,,,,,,,,,,,,,,,,,,,CS1_USneg,None,1,,,,,,,,,,,,,,,,,,23,F,71,n,2019_Nov_24_1418,ec_RRR,3.0.4,59.99668808775441,
Balas and Sarzynnska,"Dla tego zadania, docelową postacią jest Jangmo:","Więc gdy tylko Jangmo (jego imię lub jego podobizna) pojawi się na ekranie, naciśnij spację tak szybko jak to możliwe. Uderz w spację gdy tylko zobaczysz podobiznę Jangmoa lub słowo JANGMO.

Naciśnij spację by rozpocząć zadanie",target1,stimuli/t1.jpg,71,73,stimuli/target1_10.jpg,target,True,space,,,,,,,,,,,,,,0,0,0,0,,,,,0,1,1,0,0,72,72,72,,,,,,,,,,,,,,,,,,,,,,,,,,,,,,,,,,,,,,,,,,,,,,,,,,,,,CS1_USneg,space,1,0.8502756363013759,,,,,,,,,,,,,,,,,23,F,71,n,2019_Nov_24_1418,ec_RRR,3.0.4,59.99668808775441,
Balas and Sarzynnska,"Dla tego zadania, docelową postacią jest Jangmo:","Więc gdy tylko Jangmo (jego imię lub jego podobizna) pojawi się na ekranie, naciśnij spację tak szybko jak to możliwe. Uderz w spację gdy tylko zobaczysz podobiznę Jangmoa lub słowo JANGMO.

Naciśnij spację by rozpocząć zadanie",target1,stimuli/t1.jpg,71,74,stimuli/filler50.jpg,filler,False,None,,,,,,,,,,,,,,0,0,0,0,,,,,0,1,1,0,0,73,73,73,,,,,,,,,,,,,,,,,,,,,,,,,,,,,,,,,,,,,,,,,,,,,,,,,,,,,CS1_USneg,None,1,,,,,,,,,,,,,,,,,,23,F,71,n,2019_Nov_24_1418,ec_RRR,3.0.4,59.99668808775441,
Balas and Sarzynnska,"Dla tego zadania, docelową postacią jest Jangmo:","Więc gdy tylko Jangmo (jego imię lub jego podobizna) pojawi się na ekranie, naciśnij spację tak szybko jak to możliwe. Uderz w spację gdy tylko zobaczysz podobiznę Jangmoa lub słowo JANGMO.

Naciśnij spację by rozpocząć zadanie",target1,stimuli/t1.jpg,71,75,stimuli/filler10.jpg,filler,False,None,,,,,,,,,,,,,,0,0,0,0,,,,,0,1,1,0,0,74,74,74,,,,,,,,,,,,,,,,,,,,,,,,,,,,,,,,,,,,,,,,,,,,,,,,,,,,,CS1_USneg,None,1,,,,,,,,,,,,,,,,,,23,F,71,n,2019_Nov_24_1418,ec_RRR,3.0.4,59.99668808775441,
Balas and Sarzynnska,"Dla tego zadania, docelową postacią jest Jangmo:","Więc gdy tylko Jangmo (jego imię lub jego podobizna) pojawi się na ekranie, naciśnij spację tak szybko jak to możliwe. Uderz w spację gdy tylko zobaczysz podobiznę Jangmoa lub słowo JANGMO.

Naciśnij spację by rozpocząć zadanie",target1,stimuli/t1.jpg,71,76,stimuli/filler5.jpg,filler,False,None,,,,,,,,,,,,,,0,0,0,0,,,,,0,1,1,0,0,75,75,75,,,,,,,,,,,,,,,,,,,,,,,,,,,,,,,,,,,,,,,,,,,,,,,,,,,,,CS1_USneg,None,1,,,,,,,,,,,,,,,,,,23,F,71,n,2019_Nov_24_1418,ec_RRR,3.0.4,59.99668808775441,
Balas and Sarzynnska,"Dla tego zadania, docelową postacią jest Jangmo:","Więc gdy tylko Jangmo (jego imię lub jego podobizna) pojawi się na ekranie, naciśnij spację tak szybko jak to możliwe. Uderz w spację gdy tylko zobaczysz podobiznę Jangmoa lub słowo JANGMO.

Naciśnij spację by rozpocząć zadanie",target1,stimuli/t1.jpg,71,77,stimuli/filler4.jpg,filler,False,None,,,,,,,,,,,,,,0,0,0,0,,,,,0,1,1,0,0,76,76,76,,,,,,,,,,,,,,,,,,,,,,,,,,,,,,,,,,,,,,,,,,,,,,,,,,,,,CS1_USneg,None,1,,,,,,,,,,,,,,,,,,23,F,71,n,2019_Nov_24_1418,ec_RRR,3.0.4,59.99668808775441,
Balas and Sarzynnska,"Dla tego zadania, docelową postacią jest Jangmo:","Więc gdy tylko Jangmo (jego imię lub jego podobizna) pojawi się na ekranie, naciśnij spację tak szybko jak to możliwe. Uderz w spację gdy tylko zobaczysz podobiznę Jangmoa lub słowo JANGMO.

Naciśnij spację by rozpocząć zadanie",target1,stimuli/t1.jpg,71,78,stimuli/target1_5.jpg,target,True,space,,,,,,,,,,,,,,0,0,0,0,,,,,0,1,1,0,0,77,77,77,,,,,,,,,,,,,,,,,,,,,,,,,,,,,,,,,,,,,,,,,,,,,,,,,,,,,CS1_USneg,space,1,1.100271267350763,,,,,,,,,,,,,,,,,23,F,71,n,2019_Nov_24_1418,ec_RRR,3.0.4,59.99668808775441,
Balas and Sarzynnska,"Dla tego zadania, docelową postacią jest Jangmo:","Więc gdy tylko Jangmo (jego imię lub jego podobizna) pojawi się na ekranie, naciśnij spację tak szybko jak to możliwe. Uderz w spację gdy tylko zobaczysz podobiznę Jangmoa lub słowo JANGMO.

Naciśnij spację by rozpocząć zadanie",target1,stimuli/t1.jpg,71,79,stimuli/filler21.jpg,filler,False,None,,,,,,,,,,,,,,0,0,0,0,,,,,0,1,1,0,0,78,78,78,,,,,,,,,,,,,,,,,,,,,,,,,,,,,,,,,,,,,,,,,,,,,,,,,,,,,CS1_USneg,None,1,,,,,,,,,,,,,,,,,,23,F,71,n,2019_Nov_24_1418,ec_RRR,3.0.4,59.99668808775441,
Balas and Sarzynnska,"Dla tego zadania, docelową postacią jest Jangmo:","Więc gdy tylko Jangmo (jego imię lub jego podobizna) pojawi się na ekranie, naciśnij spację tak szybko jak to możliwe. Uderz w spację gdy tylko zobaczysz podobiznę Jangmoa lub słowo JANGMO.

Naciśnij spację by rozpocząć zadanie",target1,stimuli/t1.jpg,71,80,stimuli/blank.jpg,blank,False,None,,,,,,,,,,,,,,0,0,0,0,,,,,0,1,1,0,0,79,79,79,,,,,,,,,,,,,,,,,,,,,,,,,,,,,,,,,,,,,,,,,,,,,,,,,,,,,CS1_USneg,None,1,,,,,,,,,,,,,,,,,,23,F,71,n,2019_Nov_24_1418,ec_RRR,3.0.4,59.99668808775441,
Balas and Sarzynnska,"Dla tego zadania, docelową postacią jest Jangmo:","Więc gdy tylko Jangmo (jego imię lub jego podobizna) pojawi się na ekranie, naciśnij spację tak szybko jak to możliwe. Uderz w spację gdy tylko zobaczysz podobiznę Jangmoa lub słowo JANGMO.

Naciśnij spację by rozpocząć zadanie",target1,stimuli/t1.jpg,71,81,stimuli/cs2_pos1.jpg,CSUS,False,None,,,,,,,,,,,,,,0,0,0,0,,,,,0,1,1,0,0,80,80,80,,,,,,,,,,,,,,,,,,,,,,,,,,,,,,,,,,,,,,,,,,,,,,,,,,,,,CS1_USneg,None,1,,,,,,,,,,,,,,,,,,23,F,71,n,2019_Nov_24_1418,ec_RRR,3.0.4,59.99668808775441,
Balas and Sarzynnska,"Dla tego zadania, docelową postacią jest Jangmo:","Więc gdy tylko Jangmo (jego imię lub jego podobizna) pojawi się na ekranie, naciśnij spację tak szybko jak to możliwe. Uderz w spację gdy tylko zobaczysz podobiznę Jangmoa lub słowo JANGMO.

Naciśnij spację by rozpocząć zadanie",target1,stimuli/t1.jpg,71,82,stimuli/blank.jpg,blank,False,None,,,,,,,,,,,,,,0,0,0,0,,,,,0,1,1,0,0,81,81,81,,,,,,,,,,,,,,,,,,,,,,,,,,,,,,,,,,,,,,,,,,,,,,,,,,,,,CS1_USneg,None,1,,,,,,,,,,,,,,,,,,23,F,71,n,2019_Nov_24_1418,ec_RRR,3.0.4,59.99668808775441,
Balas and Sarzynnska,"Dla tego zadania, docelową postacią jest Jangmo:","Więc gdy tylko Jangmo (jego imię lub jego podobizna) pojawi się na ekranie, naciśnij spację tak szybko jak to możliwe. Uderz w spację gdy tylko zobaczysz podobiznę Jangmoa lub słowo JANGMO.

Naciśnij spację by rozpocząć zadanie",target1,stimuli/t1.jpg,71,83,stimuli/filler52.jpg,filler,False,None,,,,,,,,,,,,,,0,0,0,0,,,,,0,1,1,0,0,82,82,82,,,,,,,,,,,,,,,,,,,,,,,,,,,,,,,,,,,,,,,,,,,,,,,,,,,,,CS1_USneg,None,1,,,,,,,,,,,,,,,,,,23,F,71,n,2019_Nov_24_1418,ec_RRR,3.0.4,59.99668808775441,
Balas and Sarzynnska,"Dla tego zadania, docelową postacią jest Jangmo:","Więc gdy tylko Jangmo (jego imię lub jego podobizna) pojawi się na ekranie, naciśnij spację tak szybko jak to możliwe. Uderz w spację gdy tylko zobaczysz podobiznę Jangmoa lub słowo JANGMO.

Naciśnij spację by rozpocząć zadanie",target1,stimuli/t1.jpg,71,84,stimuli/filler20.jpg,filler,False,None,,,,,,,,,,,,,,0,0,0,0,,,,,0,1,1,0,0,83,83,83,,,,,,,,,,,,,,,,,,,,,,,,,,,,,,,,,,,,,,,,,,,,,,,,,,,,,CS1_USneg,None,1,,,,,,,,,,,,,,,,,,23,F,71,n,2019_Nov_24_1418,ec_RRR,3.0.4,59.99668808775441,
