data_collection_site,instructions_text_top,instructions_text_bottom,block_id,example_image,participant,trial_number,stimulus,trial_type,target_trial,surveillance_correct_response,filler_1_items,filler_2_items,middle_text,left_text,right_text,evaluation_stimulus,left_stimulus,right_stimulus,evaluation_response_indicating_CS1_preferred,awareness_1_question_text,awareness_2a_question_text,awareness_2b_question_text,awareness_2_question_text,record_data_collection_site_variable.thisRepN,record_data_collection_site_variable.thisTrialN,record_data_collection_site_variable.thisN,record_data_collection_site_variable.thisIndex,surveillance_instructions_loop.thisRepN,surveillance_instructions_loop.thisTrialN,surveillance_instructions_loop.thisN,surveillance_instructions_loop.thisIndex,surveillance_blocks_loop.thisRepN,surveillance_blocks_loop.thisTrialN,surveillance_blocks_loop.thisN,surveillance_blocks_loop.thisIndex,surveillance_trials_loop.thisRepN,surveillance_trials_loop.thisTrialN,surveillance_trials_loop.thisN,surveillance_trials_loop.thisIndex,filler_1_instructions_loop.thisRepN,filler_1_instructions_loop.thisTrialN,filler_1_instructions_loop.thisN,filler_1_instructions_loop.thisIndex,filler_1_loop.thisRepN,filler_1_loop.thisTrialN,filler_1_loop.thisN,filler_1_loop.thisIndex,filler_2_instructions_loop.thisRepN,filler_2_instructions_loop.thisTrialN,filler_2_instructions_loop.thisN,filler_2_instructions_loop.thisIndex,filler_2_loop.thisRepN,filler_2_loop.thisTrialN,filler_2_loop.thisN,filler_2_loop.thisIndex,evaluation_instructions_loop.thisRepN,evaluation_instructions_loop.thisTrialN,evaluation_instructions_loop.thisN,evaluation_instructions_loop.thisIndex,evaluation_loop.thisRepN,evaluation_loop.thisTrialN,evaluation_loop.thisN,evaluation_loop.thisIndex,evaluation_trials.thisRepN,evaluation_trials.thisTrialN,evaluation_trials.thisN,evaluation_trials.thisIndex,awareness_instructions_loop.thisRepN,awareness_instructions_loop.thisTrialN,awareness_instructions_loop.thisN,awareness_instructions_loop.thisIndex,awareness_1_trials_loop.thisRepN,awareness_1_trials_loop.thisTrialN,awareness_1_trials_loop.thisN,awareness_1_trials_loop.thisIndex,awareness_2a_trials_loop.thisRepN,awareness_2a_trials_loop.thisTrialN,awareness_2a_trials_loop.thisN,awareness_2a_trials_loop.thisIndex,awareness_2b_trials_loop.thisRepN,awareness_2b_trials_loop.thisTrialN,awareness_2b_trials_loop.thisN,awareness_2b_trials_loop.thisIndex,awareness_2c_trials_loop.thisRepN,awareness_2c_trials_loop.thisTrialN,awareness_2c_trials_loop.thisN,awareness_2c_trials_loop.thisIndex,end_message_loop.thisRepN,end_message_loop.thisTrialN,end_message_loop.thisN,end_message_loop.thisIndex,condition,surveillance_response.keys,surveillance_response.corr,surveillance_response.rt,filler_1_rating.response,filler_1_rating.rt,filler_2_rating.response,filler_2_rating.rt,evaluation_response.keys,evaluation_response.corr,evaluation_response.rt,inputText,awareness_1_response.keys,awareness_1_response.rt,awareness_type_2a_rating.response,awareness_type_2a_rating.rt,awareness_type_2b_rating.response,awareness_type_2b_rating.rt,awareness_type_2c_rating.response,awareness_type_2c_rating.rt,age,gender,participant,UseMonkey,date,expName,psychopyVersion,frameRate,
Balas and Sarzynnska,"Dla tego zadania, docelową postacią jest Zorua:","Więc gdy tylko Zorua (jego imię lub jego podobizna) pojawi się na ekranie, naciśnij spację tak szybko jak to możliwe. Uderz w spację gdy tylko zobaczysz podobiznę Zoruay lub słowo ZORUA

Naciśnij spację by rozpocząć zadanie",target4,stimuli/t4.jpg,7,1,stimuli/target4_7.jpg,target,True,space,,,,,,,,,,,,,,0,0,0,0,,,,,0,0,0,3,0,0,0,0,,,,,,,,,,,,,,,,,,,,,,,,,,,,,,,,,,,,,,,,,,,,,,,,,,,,,CS1_USneg,space,1,0.8354982169985306,,,,,,,,,,,,,,,,,23,m,7,n,2019_Nov_24_1109,ec_RRR,3.0.4,59.98933569568806,
Balas and Sarzynnska,"Dla tego zadania, docelową postacią jest Zorua:","Więc gdy tylko Zorua (jego imię lub jego podobizna) pojawi się na ekranie, naciśnij spację tak szybko jak to możliwe. Uderz w spację gdy tylko zobaczysz podobiznę Zoruay lub słowo ZORUA

Naciśnij spację by rozpocząć zadanie",target4,stimuli/t4.jpg,7,2,stimuli/filler8.jpg,filler,False,None,,,,,,,,,,,,,,0,0,0,0,,,,,0,0,0,3,0,1,1,1,,,,,,,,,,,,,,,,,,,,,,,,,,,,,,,,,,,,,,,,,,,,,,,,,,,,,CS1_USneg,None,1,,,,,,,,,,,,,,,,,,23,m,7,n,2019_Nov_24_1109,ec_RRR,3.0.4,59.98933569568806,
Balas and Sarzynnska,"Dla tego zadania, docelową postacią jest Zorua:","Więc gdy tylko Zorua (jego imię lub jego podobizna) pojawi się na ekranie, naciśnij spację tak szybko jak to możliwe. Uderz w spację gdy tylko zobaczysz podobiznę Zoruay lub słowo ZORUA

Naciśnij spację by rozpocząć zadanie",target4,stimuli/t4.jpg,7,3,stimuli/filler45.jpg,filler,False,None,,,,,,,,,,,,,,0,0,0,0,,,,,0,0,0,3,0,2,2,2,,,,,,,,,,,,,,,,,,,,,,,,,,,,,,,,,,,,,,,,,,,,,,,,,,,,,CS1_USneg,None,1,,,,,,,,,,,,,,,,,,23,m,7,n,2019_Nov_24_1109,ec_RRR,3.0.4,59.98933569568806,
Balas and Sarzynnska,"Dla tego zadania, docelową postacią jest Zorua:","Więc gdy tylko Zorua (jego imię lub jego podobizna) pojawi się na ekranie, naciśnij spację tak szybko jak to możliwe. Uderz w spację gdy tylko zobaczysz podobiznę Zoruay lub słowo ZORUA

Naciśnij spację by rozpocząć zadanie",target4,stimuli/t4.jpg,7,4,stimuli/filler38.jpg,filler,False,None,,,,,,,,,,,,,,0,0,0,0,,,,,0,0,0,3,0,3,3,3,,,,,,,,,,,,,,,,,,,,,,,,,,,,,,,,,,,,,,,,,,,,,,,,,,,,,CS1_USneg,None,1,,,,,,,,,,,,,,,,,,23,m,7,n,2019_Nov_24_1109,ec_RRR,3.0.4,59.98933569568806,
Balas and Sarzynnska,"Dla tego zadania, docelową postacią jest Zorua:","Więc gdy tylko Zorua (jego imię lub jego podobizna) pojawi się na ekranie, naciśnij spację tak szybko jak to możliwe. Uderz w spację gdy tylko zobaczysz podobiznę Zoruay lub słowo ZORUA

Naciśnij spację by rozpocząć zadanie",target4,stimuli/t4.jpg,7,5,stimuli/filler14.jpg,filler,False,None,,,,,,,,,,,,,,0,0,0,0,,,,,0,0,0,3,0,4,4,4,,,,,,,,,,,,,,,,,,,,,,,,,,,,,,,,,,,,,,,,,,,,,,,,,,,,,CS1_USneg,None,1,,,,,,,,,,,,,,,,,,23,m,7,n,2019_Nov_24_1109,ec_RRR,3.0.4,59.98933569568806,
Balas and Sarzynnska,"Dla tego zadania, docelową postacią jest Zorua:","Więc gdy tylko Zorua (jego imię lub jego podobizna) pojawi się na ekranie, naciśnij spację tak szybko jak to możliwe. Uderz w spację gdy tylko zobaczysz podobiznę Zoruay lub słowo ZORUA

Naciśnij spację by rozpocząć zadanie",target4,stimuli/t4.jpg,7,6,stimuli/filler27.jpg,filler,False,None,,,,,,,,,,,,,,0,0,0,0,,,,,0,0,0,3,0,5,5,5,,,,,,,,,,,,,,,,,,,,,,,,,,,,,,,,,,,,,,,,,,,,,,,,,,,,,CS1_USneg,None,1,,,,,,,,,,,,,,,,,,23,m,7,n,2019_Nov_24_1109,ec_RRR,3.0.4,59.98933569568806,
Balas and Sarzynnska,"Dla tego zadania, docelową postacią jest Zorua:","Więc gdy tylko Zorua (jego imię lub jego podobizna) pojawi się na ekranie, naciśnij spację tak szybko jak to możliwe. Uderz w spację gdy tylko zobaczysz podobiznę Zoruay lub słowo ZORUA

Naciśnij spację by rozpocząć zadanie",target4,stimuli/t4.jpg,7,7,stimuli/filler51.jpg,filler,False,None,,,,,,,,,,,,,,0,0,0,0,,,,,0,0,0,3,0,6,6,6,,,,,,,,,,,,,,,,,,,,,,,,,,,,,,,,,,,,,,,,,,,,,,,,,,,,,CS1_USneg,None,1,,,,,,,,,,,,,,,,,,23,m,7,n,2019_Nov_24_1109,ec_RRR,3.0.4,59.98933569568806,
Balas and Sarzynnska,"Dla tego zadania, docelową postacią jest Zorua:","Więc gdy tylko Zorua (jego imię lub jego podobizna) pojawi się na ekranie, naciśnij spację tak szybko jak to możliwe. Uderz w spację gdy tylko zobaczysz podobiznę Zoruay lub słowo ZORUA

Naciśnij spację by rozpocząć zadanie",target4,stimuli/t4.jpg,7,8,stimuli/target4_1.jpg,target,True,space,,,,,,,,,,,,,,0,0,0,0,,,,,0,0,0,3,0,7,7,7,,,,,,,,,,,,,,,,,,,,,,,,,,,,,,,,,,,,,,,,,,,,,,,,,,,,,CS1_USneg,space,1,0.5014064720016904,,,,,,,,,,,,,,,,,23,m,7,n,2019_Nov_24_1109,ec_RRR,3.0.4,59.98933569568806,
Balas and Sarzynnska,"Dla tego zadania, docelową postacią jest Zorua:","Więc gdy tylko Zorua (jego imię lub jego podobizna) pojawi się na ekranie, naciśnij spację tak szybko jak to możliwe. Uderz w spację gdy tylko zobaczysz podobiznę Zoruay lub słowo ZORUA

Naciśnij spację by rozpocząć zadanie",target4,stimuli/t4.jpg,7,9,stimuli/target4_5.jpg,target,True,space,,,,,,,,,,,,,,0,0,0,0,,,,,0,0,0,3,0,8,8,8,,,,,,,,,,,,,,,,,,,,,,,,,,,,,,,,,,,,,,,,,,,,,,,,,,,,,CS1_USneg,space,1,0.9852475820007385,,,,,,,,,,,,,,,,,23,m,7,n,2019_Nov_24_1109,ec_RRR,3.0.4,59.98933569568806,
Balas and Sarzynnska,"Dla tego zadania, docelową postacią jest Zorua:","Więc gdy tylko Zorua (jego imię lub jego podobizna) pojawi się na ekranie, naciśnij spację tak szybko jak to możliwe. Uderz w spację gdy tylko zobaczysz podobiznę Zoruay lub słowo ZORUA

Naciśnij spację by rozpocząć zadanie",target4,stimuli/t4.jpg,7,10,stimuli/blank.jpg,blank,False,None,,,,,,,,,,,,,,0,0,0,0,,,,,0,0,0,3,0,9,9,9,,,,,,,,,,,,,,,,,,,,,,,,,,,,,,,,,,,,,,,,,,,,,,,,,,,,,CS1_USneg,None,1,,,,,,,,,,,,,,,,,,23,m,7,n,2019_Nov_24_1109,ec_RRR,3.0.4,59.98933569568806,
Balas and Sarzynnska,"Dla tego zadania, docelową postacią jest Zorua:","Więc gdy tylko Zorua (jego imię lub jego podobizna) pojawi się na ekranie, naciśnij spację tak szybko jak to możliwe. Uderz w spację gdy tylko zobaczysz podobiznę Zoruay lub słowo ZORUA

Naciśnij spację by rozpocząć zadanie",target4,stimuli/t4.jpg,7,11,stimuli/cs1_neg5.jpg,CSUS,False,None,,,,,,,,,,,,,,0,0,0,0,,,,,0,0,0,3,0,10,10,10,,,,,,,,,,,,,,,,,,,,,,,,,,,,,,,,,,,,,,,,,,,,,,,,,,,,,CS1_USneg,None,1,,,,,,,,,,,,,,,,,,23,m,7,n,2019_Nov_24_1109,ec_RRR,3.0.4,59.98933569568806,
Balas and Sarzynnska,"Dla tego zadania, docelową postacią jest Zorua:","Więc gdy tylko Zorua (jego imię lub jego podobizna) pojawi się na ekranie, naciśnij spację tak szybko jak to możliwe. Uderz w spację gdy tylko zobaczysz podobiznę Zoruay lub słowo ZORUA

Naciśnij spację by rozpocząć zadanie",target4,stimuli/t4.jpg,7,12,stimuli/blank.jpg,blank,False,None,,,,,,,,,,,,,,0,0,0,0,,,,,0,0,0,3,0,11,11,11,,,,,,,,,,,,,,,,,,,,,,,,,,,,,,,,,,,,,,,,,,,,,,,,,,,,,CS1_USneg,None,1,,,,,,,,,,,,,,,,,,23,m,7,n,2019_Nov_24_1109,ec_RRR,3.0.4,59.98933569568806,
Balas and Sarzynnska,"Dla tego zadania, docelową postacią jest Zorua:","Więc gdy tylko Zorua (jego imię lub jego podobizna) pojawi się na ekranie, naciśnij spację tak szybko jak to możliwe. Uderz w spację gdy tylko zobaczysz podobiznę Zoruay lub słowo ZORUA

Naciśnij spację by rozpocząć zadanie",target4,stimuli/t4.jpg,7,13,stimuli/filler6.jpg,filler,False,None,,,,,,,,,,,,,,0,0,0,0,,,,,0,0,0,3,0,12,12,12,,,,,,,,,,,,,,,,,,,,,,,,,,,,,,,,,,,,,,,,,,,,,,,,,,,,,CS1_USneg,None,1,,,,,,,,,,,,,,,,,,23,m,7,n,2019_Nov_24_1109,ec_RRR,3.0.4,59.98933569568806,
Balas and Sarzynnska,"Dla tego zadania, docelową postacią jest Zorua:","Więc gdy tylko Zorua (jego imię lub jego podobizna) pojawi się na ekranie, naciśnij spację tak szybko jak to możliwe. Uderz w spację gdy tylko zobaczysz podobiznę Zoruay lub słowo ZORUA

Naciśnij spację by rozpocząć zadanie",target4,stimuli/t4.jpg,7,14,stimuli/filler29.jpg,filler,False,None,,,,,,,,,,,,,,0,0,0,0,,,,,0,0,0,3,0,13,13,13,,,,,,,,,,,,,,,,,,,,,,,,,,,,,,,,,,,,,,,,,,,,,,,,,,,,,CS1_USneg,None,1,,,,,,,,,,,,,,,,,,23,m,7,n,2019_Nov_24_1109,ec_RRR,3.0.4,59.98933569568806,
Balas and Sarzynnska,"Dla tego zadania, docelową postacią jest Zorua:","Więc gdy tylko Zorua (jego imię lub jego podobizna) pojawi się na ekranie, naciśnij spację tak szybko jak to możliwe. Uderz w spację gdy tylko zobaczysz podobiznę Zoruay lub słowo ZORUA

Naciśnij spację by rozpocząć zadanie",target4,stimuli/t4.jpg,7,15,stimuli/filler16.jpg,filler,False,None,,,,,,,,,,,,,,0,0,0,0,,,,,0,0,0,3,0,14,14,14,,,,,,,,,,,,,,,,,,,,,,,,,,,,,,,,,,,,,,,,,,,,,,,,,,,,,CS1_USneg,None,1,,,,,,,,,,,,,,,,,,23,m,7,n,2019_Nov_24_1109,ec_RRR,3.0.4,59.98933569568806,
Balas and Sarzynnska,"Dla tego zadania, docelową postacią jest Zorua:","Więc gdy tylko Zorua (jego imię lub jego podobizna) pojawi się na ekranie, naciśnij spację tak szybko jak to możliwe. Uderz w spację gdy tylko zobaczysz podobiznę Zoruay lub słowo ZORUA

Naciśnij spację by rozpocząć zadanie",target4,stimuli/t4.jpg,7,16,stimuli/filler23.jpg,filler,False,None,,,,,,,,,,,,,,0,0,0,0,,,,,0,0,0,3,0,15,15,15,,,,,,,,,,,,,,,,,,,,,,,,,,,,,,,,,,,,,,,,,,,,,,,,,,,,,CS1_USneg,None,1,,,,,,,,,,,,,,,,,,23,m,7,n,2019_Nov_24_1109,ec_RRR,3.0.4,59.98933569568806,
Balas and Sarzynnska,"Dla tego zadania, docelową postacią jest Zorua:","Więc gdy tylko Zorua (jego imię lub jego podobizna) pojawi się na ekranie, naciśnij spację tak szybko jak to możliwe. Uderz w spację gdy tylko zobaczysz podobiznę Zoruay lub słowo ZORUA

Naciśnij spację by rozpocząć zadanie",target4,stimuli/t4.jpg,7,17,stimuli/filler21.jpg,filler,False,None,,,,,,,,,,,,,,0,0,0,0,,,,,0,0,0,3,0,16,16,16,,,,,,,,,,,,,,,,,,,,,,,,,,,,,,,,,,,,,,,,,,,,,,,,,,,,,CS1_USneg,None,1,,,,,,,,,,,,,,,,,,23,m,7,n,2019_Nov_24_1109,ec_RRR,3.0.4,59.98933569568806,
Balas and Sarzynnska,"Dla tego zadania, docelową postacią jest Zorua:","Więc gdy tylko Zorua (jego imię lub jego podobizna) pojawi się na ekranie, naciśnij spację tak szybko jak to możliwe. Uderz w spację gdy tylko zobaczysz podobiznę Zoruay lub słowo ZORUA

Naciśnij spację by rozpocząć zadanie",target4,stimuli/t4.jpg,7,18,stimuli/target4_10.jpg,target,True,space,,,,,,,,,,,,,,0,0,0,0,,,,,0,0,0,3,0,17,17,17,,,,,,,,,,,,,,,,,,,,,,,,,,,,,,,,,,,,,,,,,,,,,,,,,,,,,CS1_USneg,space,1,0.40037416799896164,,,,,,,,,,,,,,,,,23,m,7,n,2019_Nov_24_1109,ec_RRR,3.0.4,59.98933569568806,
Balas and Sarzynnska,"Dla tego zadania, docelową postacią jest Zorua:","Więc gdy tylko Zorua (jego imię lub jego podobizna) pojawi się na ekranie, naciśnij spację tak szybko jak to możliwe. Uderz w spację gdy tylko zobaczysz podobiznę Zoruay lub słowo ZORUA

Naciśnij spację by rozpocząć zadanie",target4,stimuli/t4.jpg,7,19,stimuli/filler32.jpg,filler,False,None,,,,,,,,,,,,,,0,0,0,0,,,,,0,0,0,3,0,18,18,18,,,,,,,,,,,,,,,,,,,,,,,,,,,,,,,,,,,,,,,,,,,,,,,,,,,,,CS1_USneg,None,1,,,,,,,,,,,,,,,,,,23,m,7,n,2019_Nov_24_1109,ec_RRR,3.0.4,59.98933569568806,
Balas and Sarzynnska,"Dla tego zadania, docelową postacią jest Zorua:","Więc gdy tylko Zorua (jego imię lub jego podobizna) pojawi się na ekranie, naciśnij spację tak szybko jak to możliwe. Uderz w spację gdy tylko zobaczysz podobiznę Zoruay lub słowo ZORUA

Naciśnij spację by rozpocząć zadanie",target4,stimuli/t4.jpg,7,20,stimuli/blank.jpg,blank,False,None,,,,,,,,,,,,,,0,0,0,0,,,,,0,0,0,3,0,19,19,19,,,,,,,,,,,,,,,,,,,,,,,,,,,,,,,,,,,,,,,,,,,,,,,,,,,,,CS1_USneg,None,1,,,,,,,,,,,,,,,,,,23,m,7,n,2019_Nov_24_1109,ec_RRR,3.0.4,59.98933569568806,
Balas and Sarzynnska,"Dla tego zadania, docelową postacią jest Zorua:","Więc gdy tylko Zorua (jego imię lub jego podobizna) pojawi się na ekranie, naciśnij spację tak szybko jak to możliwe. Uderz w spację gdy tylko zobaczysz podobiznę Zoruay lub słowo ZORUA

Naciśnij spację by rozpocząć zadanie",target4,stimuli/t4.jpg,7,21,stimuli/cs2_pos1.jpg,CSUS,False,None,,,,,,,,,,,,,,0,0,0,0,,,,,0,0,0,3,0,20,20,20,,,,,,,,,,,,,,,,,,,,,,,,,,,,,,,,,,,,,,,,,,,,,,,,,,,,,CS1_USneg,None,1,,,,,,,,,,,,,,,,,,23,m,7,n,2019_Nov_24_1109,ec_RRR,3.0.4,59.98933569568806,
Balas and Sarzynnska,"Dla tego zadania, docelową postacią jest Zorua:","Więc gdy tylko Zorua (jego imię lub jego podobizna) pojawi się na ekranie, naciśnij spację tak szybko jak to możliwe. Uderz w spację gdy tylko zobaczysz podobiznę Zoruay lub słowo ZORUA

Naciśnij spację by rozpocząć zadanie",target4,stimuli/t4.jpg,7,22,stimuli/blank.jpg,blank,False,None,,,,,,,,,,,,,,0,0,0,0,,,,,0,0,0,3,0,21,21,21,,,,,,,,,,,,,,,,,,,,,,,,,,,,,,,,,,,,,,,,,,,,,,,,,,,,,CS1_USneg,None,1,,,,,,,,,,,,,,,,,,23,m,7,n,2019_Nov_24_1109,ec_RRR,3.0.4,59.98933569568806,
Balas and Sarzynnska,"Dla tego zadania, docelową postacią jest Zorua:","Więc gdy tylko Zorua (jego imię lub jego podobizna) pojawi się na ekranie, naciśnij spację tak szybko jak to możliwe. Uderz w spację gdy tylko zobaczysz podobiznę Zoruay lub słowo ZORUA

Naciśnij spację by rozpocząć zadanie",target4,stimuli/t4.jpg,7,23,stimuli/filler28.jpg,filler,False,None,,,,,,,,,,,,,,0,0,0,0,,,,,0,0,0,3,0,22,22,22,,,,,,,,,,,,,,,,,,,,,,,,,,,,,,,,,,,,,,,,,,,,,,,,,,,,,CS1_USneg,None,1,,,,,,,,,,,,,,,,,,23,m,7,n,2019_Nov_24_1109,ec_RRR,3.0.4,59.98933569568806,
Balas and Sarzynnska,"Dla tego zadania, docelową postacią jest Zorua:","Więc gdy tylko Zorua (jego imię lub jego podobizna) pojawi się na ekranie, naciśnij spację tak szybko jak to możliwe. Uderz w spację gdy tylko zobaczysz podobiznę Zoruay lub słowo ZORUA

Naciśnij spację by rozpocząć zadanie",target4,stimuli/t4.jpg,7,24,stimuli/filler24.jpg,filler,False,None,,,,,,,,,,,,,,0,0,0,0,,,,,0,0,0,3,0,23,23,23,,,,,,,,,,,,,,,,,,,,,,,,,,,,,,,,,,,,,,,,,,,,,,,,,,,,,CS1_USneg,None,1,,,,,,,,,,,,,,,,,,23,m,7,n,2019_Nov_24_1109,ec_RRR,3.0.4,59.98933569568806,
Balas and Sarzynnska,"Dla tego zadania, docelową postacią jest Zorua:","Więc gdy tylko Zorua (jego imię lub jego podobizna) pojawi się na ekranie, naciśnij spację tak szybko jak to możliwe. Uderz w spację gdy tylko zobaczysz podobiznę Zoruay lub słowo ZORUA

Naciśnij spację by rozpocząć zadanie",target4,stimuli/t4.jpg,7,25,stimuli/filler43.jpg,filler,False,None,,,,,,,,,,,,,,0,0,0,0,,,,,0,0,0,3,0,24,24,24,,,,,,,,,,,,,,,,,,,,,,,,,,,,,,,,,,,,,,,,,,,,,,,,,,,,,CS1_USneg,None,1,,,,,,,,,,,,,,,,,,23,m,7,n,2019_Nov_24_1109,ec_RRR,3.0.4,59.98933569568806,
Balas and Sarzynnska,"Dla tego zadania, docelową postacią jest Zorua:","Więc gdy tylko Zorua (jego imię lub jego podobizna) pojawi się na ekranie, naciśnij spację tak szybko jak to możliwe. Uderz w spację gdy tylko zobaczysz podobiznę Zoruay lub słowo ZORUA

Naciśnij spację by rozpocząć zadanie",target4,stimuli/t4.jpg,7,26,stimuli/filler40.jpg,filler,False,None,,,,,,,,,,,,,,0,0,0,0,,,,,0,0,0,3,0,25,25,25,,,,,,,,,,,,,,,,,,,,,,,,,,,,,,,,,,,,,,,,,,,,,,,,,,,,,CS1_USneg,None,1,,,,,,,,,,,,,,,,,,23,m,7,n,2019_Nov_24_1109,ec_RRR,3.0.4,59.98933569568806,
Balas and Sarzynnska,"Dla tego zadania, docelową postacią jest Zorua:","Więc gdy tylko Zorua (jego imię lub jego podobizna) pojawi się na ekranie, naciśnij spację tak szybko jak to możliwe. Uderz w spację gdy tylko zobaczysz podobiznę Zoruay lub słowo ZORUA

Naciśnij spację by rozpocząć zadanie",target4,stimuli/t4.jpg,7,27,stimuli/filler7.jpg,filler,False,None,,,,,,,,,,,,,,0,0,0,0,,,,,0,0,0,3,0,26,26,26,,,,,,,,,,,,,,,,,,,,,,,,,,,,,,,,,,,,,,,,,,,,,,,,,,,,,CS1_USneg,None,1,,,,,,,,,,,,,,,,,,23,m,7,n,2019_Nov_24_1109,ec_RRR,3.0.4,59.98933569568806,
Balas and Sarzynnska,"Dla tego zadania, docelową postacią jest Zorua:","Więc gdy tylko Zorua (jego imię lub jego podobizna) pojawi się na ekranie, naciśnij spację tak szybko jak to możliwe. Uderz w spację gdy tylko zobaczysz podobiznę Zoruay lub słowo ZORUA

Naciśnij spację by rozpocząć zadanie",target4,stimuli/t4.jpg,7,28,stimuli/filler49.jpg,filler,False,None,,,,,,,,,,,,,,0,0,0,0,,,,,0,0,0,3,0,27,27,27,,,,,,,,,,,,,,,,,,,,,,,,,,,,,,,,,,,,,,,,,,,,,,,,,,,,,CS1_USneg,None,1,,,,,,,,,,,,,,,,,,23,m,7,n,2019_Nov_24_1109,ec_RRR,3.0.4,59.98933569568806,
Balas and Sarzynnska,"Dla tego zadania, docelową postacią jest Zorua:","Więc gdy tylko Zorua (jego imię lub jego podobizna) pojawi się na ekranie, naciśnij spację tak szybko jak to możliwe. Uderz w spację gdy tylko zobaczysz podobiznę Zoruay lub słowo ZORUA

Naciśnij spację by rozpocząć zadanie",target4,stimuli/t4.jpg,7,29,stimuli/filler5.jpg,filler,False,None,,,,,,,,,,,,,,0,0,0,0,,,,,0,0,0,3,0,28,28,28,,,,,,,,,,,,,,,,,,,,,,,,,,,,,,,,,,,,,,,,,,,,,,,,,,,,,CS1_USneg,None,1,,,,,,,,,,,,,,,,,,23,m,7,n,2019_Nov_24_1109,ec_RRR,3.0.4,59.98933569568806,
Balas and Sarzynnska,"Dla tego zadania, docelową postacią jest Zorua:","Więc gdy tylko Zorua (jego imię lub jego podobizna) pojawi się na ekranie, naciśnij spację tak szybko jak to możliwe. Uderz w spację gdy tylko zobaczysz podobiznę Zoruay lub słowo ZORUA

Naciśnij spację by rozpocząć zadanie",target4,stimuli/t4.jpg,7,30,stimuli/blank.jpg,blank,False,None,,,,,,,,,,,,,,0,0,0,0,,,,,0,0,0,3,0,29,29,29,,,,,,,,,,,,,,,,,,,,,,,,,,,,,,,,,,,,,,,,,,,,,,,,,,,,,CS1_USneg,None,1,,,,,,,,,,,,,,,,,,23,m,7,n,2019_Nov_24_1109,ec_RRR,3.0.4,59.98933569568806,
Balas and Sarzynnska,"Dla tego zadania, docelową postacią jest Zorua:","Więc gdy tylko Zorua (jego imię lub jego podobizna) pojawi się na ekranie, naciśnij spację tak szybko jak to możliwe. Uderz w spację gdy tylko zobaczysz podobiznę Zoruay lub słowo ZORUA

Naciśnij spację by rozpocząć zadanie",target4,stimuli/t4.jpg,7,31,stimuli/cs1_neg11.jpg,CSUS,False,None,,,,,,,,,,,,,,0,0,0,0,,,,,0,0,0,3,0,30,30,30,,,,,,,,,,,,,,,,,,,,,,,,,,,,,,,,,,,,,,,,,,,,,,,,,,,,,CS1_USneg,None,1,,,,,,,,,,,,,,,,,,23,m,7,n,2019_Nov_24_1109,ec_RRR,3.0.4,59.98933569568806,
Balas and Sarzynnska,"Dla tego zadania, docelową postacią jest Zorua:","Więc gdy tylko Zorua (jego imię lub jego podobizna) pojawi się na ekranie, naciśnij spację tak szybko jak to możliwe. Uderz w spację gdy tylko zobaczysz podobiznę Zoruay lub słowo ZORUA

Naciśnij spację by rozpocząć zadanie",target4,stimuli/t4.jpg,7,32,stimuli/blank.jpg,blank,False,None,,,,,,,,,,,,,,0,0,0,0,,,,,0,0,0,3,0,31,31,31,,,,,,,,,,,,,,,,,,,,,,,,,,,,,,,,,,,,,,,,,,,,,,,,,,,,,CS1_USneg,None,1,,,,,,,,,,,,,,,,,,23,m,7,n,2019_Nov_24_1109,ec_RRR,3.0.4,59.98933569568806,
Balas and Sarzynnska,"Dla tego zadania, docelową postacią jest Zorua:","Więc gdy tylko Zorua (jego imię lub jego podobizna) pojawi się na ekranie, naciśnij spację tak szybko jak to możliwe. Uderz w spację gdy tylko zobaczysz podobiznę Zoruay lub słowo ZORUA

Naciśnij spację by rozpocząć zadanie",target4,stimuli/t4.jpg,7,33,stimuli/filler13.jpg,filler,False,None,,,,,,,,,,,,,,0,0,0,0,,,,,0,0,0,3,0,32,32,32,,,,,,,,,,,,,,,,,,,,,,,,,,,,,,,,,,,,,,,,,,,,,,,,,,,,,CS1_USneg,None,1,,,,,,,,,,,,,,,,,,23,m,7,n,2019_Nov_24_1109,ec_RRR,3.0.4,59.98933569568806,
Balas and Sarzynnska,"Dla tego zadania, docelową postacią jest Zorua:","Więc gdy tylko Zorua (jego imię lub jego podobizna) pojawi się na ekranie, naciśnij spację tak szybko jak to możliwe. Uderz w spację gdy tylko zobaczysz podobiznę Zoruay lub słowo ZORUA

Naciśnij spację by rozpocząć zadanie",target4,stimuli/t4.jpg,7,34,stimuli/filler41.jpg,filler,False,None,,,,,,,,,,,,,,0,0,0,0,,,,,0,0,0,3,0,33,33,33,,,,,,,,,,,,,,,,,,,,,,,,,,,,,,,,,,,,,,,,,,,,,,,,,,,,,CS1_USneg,None,1,,,,,,,,,,,,,,,,,,23,m,7,n,2019_Nov_24_1109,ec_RRR,3.0.4,59.98933569568806,
Balas and Sarzynnska,"Dla tego zadania, docelową postacią jest Zorua:","Więc gdy tylko Zorua (jego imię lub jego podobizna) pojawi się na ekranie, naciśnij spację tak szybko jak to możliwe. Uderz w spację gdy tylko zobaczysz podobiznę Zoruay lub słowo ZORUA

Naciśnij spację by rozpocząć zadanie",target4,stimuli/t4.jpg,7,35,stimuli/target4_3.jpg,target,True,space,,,,,,,,,,,,,,0,0,0,0,,,,,0,0,0,3,0,34,34,34,,,,,,,,,,,,,,,,,,,,,,,,,,,,,,,,,,,,,,,,,,,,,,,,,,,,,CS1_USneg,space,1,0.5521955479998724,,,,,,,,,,,,,,,,,23,m,7,n,2019_Nov_24_1109,ec_RRR,3.0.4,59.98933569568806,
Balas and Sarzynnska,"Dla tego zadania, docelową postacią jest Zorua:","Więc gdy tylko Zorua (jego imię lub jego podobizna) pojawi się na ekranie, naciśnij spację tak szybko jak to możliwe. Uderz w spację gdy tylko zobaczysz podobiznę Zoruay lub słowo ZORUA

Naciśnij spację by rozpocząć zadanie",target4,stimuli/t4.jpg,7,36,stimuli/target4_4.jpg,target,True,space,,,,,,,,,,,,,,0,0,0,0,,,,,0,0,0,3,0,35,35,35,,,,,,,,,,,,,,,,,,,,,,,,,,,,,,,,,,,,,,,,,,,,,,,,,,,,,CS1_USneg,space,1,0.5354651570014539,,,,,,,,,,,,,,,,,23,m,7,n,2019_Nov_24_1109,ec_RRR,3.0.4,59.98933569568806,
Balas and Sarzynnska,"Dla tego zadania, docelową postacią jest Zorua:","Więc gdy tylko Zorua (jego imię lub jego podobizna) pojawi się na ekranie, naciśnij spację tak szybko jak to możliwe. Uderz w spację gdy tylko zobaczysz podobiznę Zoruay lub słowo ZORUA

Naciśnij spację by rozpocząć zadanie",target4,stimuli/t4.jpg,7,37,stimuli/filler48.jpg,filler,False,None,,,,,,,,,,,,,,0,0,0,0,,,,,0,0,0,3,0,36,36,36,,,,,,,,,,,,,,,,,,,,,,,,,,,,,,,,,,,,,,,,,,,,,,,,,,,,,CS1_USneg,None,1,,,,,,,,,,,,,,,,,,23,m,7,n,2019_Nov_24_1109,ec_RRR,3.0.4,59.98933569568806,
Balas and Sarzynnska,"Dla tego zadania, docelową postacią jest Zorua:","Więc gdy tylko Zorua (jego imię lub jego podobizna) pojawi się na ekranie, naciśnij spację tak szybko jak to możliwe. Uderz w spację gdy tylko zobaczysz podobiznę Zoruay lub słowo ZORUA

Naciśnij spację by rozpocząć zadanie",target4,stimuli/t4.jpg,7,38,stimuli/filler25.jpg,filler,False,None,,,,,,,,,,,,,,0,0,0,0,,,,,0,0,0,3,0,37,37,37,,,,,,,,,,,,,,,,,,,,,,,,,,,,,,,,,,,,,,,,,,,,,,,,,,,,,CS1_USneg,None,1,,,,,,,,,,,,,,,,,,23,m,7,n,2019_Nov_24_1109,ec_RRR,3.0.4,59.98933569568806,
Balas and Sarzynnska,"Dla tego zadania, docelową postacią jest Zorua:","Więc gdy tylko Zorua (jego imię lub jego podobizna) pojawi się na ekranie, naciśnij spację tak szybko jak to możliwe. Uderz w spację gdy tylko zobaczysz podobiznę Zoruay lub słowo ZORUA

Naciśnij spację by rozpocząć zadanie",target4,stimuli/t4.jpg,7,39,stimuli/filler50.jpg,filler,False,None,,,,,,,,,,,,,,0,0,0,0,,,,,0,0,0,3,0,38,38,38,,,,,,,,,,,,,,,,,,,,,,,,,,,,,,,,,,,,,,,,,,,,,,,,,,,,,CS1_USneg,None,1,,,,,,,,,,,,,,,,,,23,m,7,n,2019_Nov_24_1109,ec_RRR,3.0.4,59.98933569568806,
Balas and Sarzynnska,"Dla tego zadania, docelową postacią jest Zorua:","Więc gdy tylko Zorua (jego imię lub jego podobizna) pojawi się na ekranie, naciśnij spację tak szybko jak to możliwe. Uderz w spację gdy tylko zobaczysz podobiznę Zoruay lub słowo ZORUA

Naciśnij spację by rozpocząć zadanie",target4,stimuli/t4.jpg,7,40,stimuli/blank.jpg,blank,False,None,,,,,,,,,,,,,,0,0,0,0,,,,,0,0,0,3,0,39,39,39,,,,,,,,,,,,,,,,,,,,,,,,,,,,,,,,,,,,,,,,,,,,,,,,,,,,,CS1_USneg,None,1,,,,,,,,,,,,,,,,,,23,m,7,n,2019_Nov_24_1109,ec_RRR,3.0.4,59.98933569568806,
Balas and Sarzynnska,"Dla tego zadania, docelową postacią jest Zorua:","Więc gdy tylko Zorua (jego imię lub jego podobizna) pojawi się na ekranie, naciśnij spację tak szybko jak to możliwe. Uderz w spację gdy tylko zobaczysz podobiznę Zoruay lub słowo ZORUA

Naciśnij spację by rozpocząć zadanie",target4,stimuli/t4.jpg,7,41,stimuli/cs2_pos12.jpg,CSUS,False,None,,,,,,,,,,,,,,0,0,0,0,,,,,0,0,0,3,0,40,40,40,,,,,,,,,,,,,,,,,,,,,,,,,,,,,,,,,,,,,,,,,,,,,,,,,,,,,CS1_USneg,None,1,,,,,,,,,,,,,,,,,,23,m,7,n,2019_Nov_24_1109,ec_RRR,3.0.4,59.98933569568806,
Balas and Sarzynnska,"Dla tego zadania, docelową postacią jest Zorua:","Więc gdy tylko Zorua (jego imię lub jego podobizna) pojawi się na ekranie, naciśnij spację tak szybko jak to możliwe. Uderz w spację gdy tylko zobaczysz podobiznę Zoruay lub słowo ZORUA

Naciśnij spację by rozpocząć zadanie",target4,stimuli/t4.jpg,7,42,stimuli/blank.jpg,blank,False,None,,,,,,,,,,,,,,0,0,0,0,,,,,0,0,0,3,0,41,41,41,,,,,,,,,,,,,,,,,,,,,,,,,,,,,,,,,,,,,,,,,,,,,,,,,,,,,CS1_USneg,None,1,,,,,,,,,,,,,,,,,,23,m,7,n,2019_Nov_24_1109,ec_RRR,3.0.4,59.98933569568806,
Balas and Sarzynnska,"Dla tego zadania, docelową postacią jest Zorua:","Więc gdy tylko Zorua (jego imię lub jego podobizna) pojawi się na ekranie, naciśnij spację tak szybko jak to możliwe. Uderz w spację gdy tylko zobaczysz podobiznę Zoruay lub słowo ZORUA

Naciśnij spację by rozpocząć zadanie",target4,stimuli/t4.jpg,7,43,stimuli/filler37.jpg,filler,False,None,,,,,,,,,,,,,,0,0,0,0,,,,,0,0,0,3,0,42,42,42,,,,,,,,,,,,,,,,,,,,,,,,,,,,,,,,,,,,,,,,,,,,,,,,,,,,,CS1_USneg,None,1,,,,,,,,,,,,,,,,,,23,m,7,n,2019_Nov_24_1109,ec_RRR,3.0.4,59.98933569568806,
Balas and Sarzynnska,"Dla tego zadania, docelową postacią jest Zorua:","Więc gdy tylko Zorua (jego imię lub jego podobizna) pojawi się na ekranie, naciśnij spację tak szybko jak to możliwe. Uderz w spację gdy tylko zobaczysz podobiznę Zoruay lub słowo ZORUA

Naciśnij spację by rozpocząć zadanie",target4,stimuli/t4.jpg,7,44,stimuli/filler47.jpg,filler,False,None,,,,,,,,,,,,,,0,0,0,0,,,,,0,0,0,3,0,43,43,43,,,,,,,,,,,,,,,,,,,,,,,,,,,,,,,,,,,,,,,,,,,,,,,,,,,,,CS1_USneg,None,1,,,,,,,,,,,,,,,,,,23,m,7,n,2019_Nov_24_1109,ec_RRR,3.0.4,59.98933569568806,
Balas and Sarzynnska,"Dla tego zadania, docelową postacią jest Zorua:","Więc gdy tylko Zorua (jego imię lub jego podobizna) pojawi się na ekranie, naciśnij spację tak szybko jak to możliwe. Uderz w spację gdy tylko zobaczysz podobiznę Zoruay lub słowo ZORUA

Naciśnij spację by rozpocząć zadanie",target4,stimuli/t4.jpg,7,45,stimuli/filler22.jpg,filler,False,None,,,,,,,,,,,,,,0,0,0,0,,,,,0,0,0,3,0,44,44,44,,,,,,,,,,,,,,,,,,,,,,,,,,,,,,,,,,,,,,,,,,,,,,,,,,,,,CS1_USneg,None,1,,,,,,,,,,,,,,,,,,23,m,7,n,2019_Nov_24_1109,ec_RRR,3.0.4,59.98933569568806,
Balas and Sarzynnska,"Dla tego zadania, docelową postacią jest Zorua:","Więc gdy tylko Zorua (jego imię lub jego podobizna) pojawi się na ekranie, naciśnij spację tak szybko jak to możliwe. Uderz w spację gdy tylko zobaczysz podobiznę Zoruay lub słowo ZORUA

Naciśnij spację by rozpocząć zadanie",target4,stimuli/t4.jpg,7,46,stimuli/filler39.jpg,filler,False,None,,,,,,,,,,,,,,0,0,0,0,,,,,0,0,0,3,0,45,45,45,,,,,,,,,,,,,,,,,,,,,,,,,,,,,,,,,,,,,,,,,,,,,,,,,,,,,CS1_USneg,None,1,,,,,,,,,,,,,,,,,,23,m,7,n,2019_Nov_24_1109,ec_RRR,3.0.4,59.98933569568806,
Balas and Sarzynnska,"Dla tego zadania, docelową postacią jest Zorua:","Więc gdy tylko Zorua (jego imię lub jego podobizna) pojawi się na ekranie, naciśnij spację tak szybko jak to możliwe. Uderz w spację gdy tylko zobaczysz podobiznę Zoruay lub słowo ZORUA

Naciśnij spację by rozpocząć zadanie",target4,stimuli/t4.jpg,7,47,stimuli/filler35.jpg,filler,False,None,,,,,,,,,,,,,,0,0,0,0,,,,,0,0,0,3,0,46,46,46,,,,,,,,,,,,,,,,,,,,,,,,,,,,,,,,,,,,,,,,,,,,,,,,,,,,,CS1_USneg,None,1,,,,,,,,,,,,,,,,,,23,m,7,n,2019_Nov_24_1109,ec_RRR,3.0.4,59.98933569568806,
Balas and Sarzynnska,"Dla tego zadania, docelową postacią jest Zorua:","Więc gdy tylko Zorua (jego imię lub jego podobizna) pojawi się na ekranie, naciśnij spację tak szybko jak to możliwe. Uderz w spację gdy tylko zobaczysz podobiznę Zoruay lub słowo ZORUA

Naciśnij spację by rozpocząć zadanie",target4,stimuli/t4.jpg,7,48,stimuli/filler11.jpg,filler,False,None,,,,,,,,,,,,,,0,0,0,0,,,,,0,0,0,3,0,47,47,47,,,,,,,,,,,,,,,,,,,,,,,,,,,,,,,,,,,,,,,,,,,,,,,,,,,,,CS1_USneg,None,1,,,,,,,,,,,,,,,,,,23,m,7,n,2019_Nov_24_1109,ec_RRR,3.0.4,59.98933569568806,
Balas and Sarzynnska,"Dla tego zadania, docelową postacią jest Zorua:","Więc gdy tylko Zorua (jego imię lub jego podobizna) pojawi się na ekranie, naciśnij spację tak szybko jak to możliwe. Uderz w spację gdy tylko zobaczysz podobiznę Zoruay lub słowo ZORUA

Naciśnij spację by rozpocząć zadanie",target4,stimuli/t4.jpg,7,49,stimuli/filler15.jpg,filler,False,None,,,,,,,,,,,,,,0,0,0,0,,,,,0,0,0,3,0,48,48,48,,,,,,,,,,,,,,,,,,,,,,,,,,,,,,,,,,,,,,,,,,,,,,,,,,,,,CS1_USneg,None,1,,,,,,,,,,,,,,,,,,23,m,7,n,2019_Nov_24_1109,ec_RRR,3.0.4,59.98933569568806,
Balas and Sarzynnska,"Dla tego zadania, docelową postacią jest Zorua:","Więc gdy tylko Zorua (jego imię lub jego podobizna) pojawi się na ekranie, naciśnij spację tak szybko jak to możliwe. Uderz w spację gdy tylko zobaczysz podobiznę Zoruay lub słowo ZORUA

Naciśnij spację by rozpocząć zadanie",target4,stimuli/t4.jpg,7,50,stimuli/blank.jpg,blank,False,None,,,,,,,,,,,,,,0,0,0,0,,,,,0,0,0,3,0,49,49,49,,,,,,,,,,,,,,,,,,,,,,,,,,,,,,,,,,,,,,,,,,,,,,,,,,,,,CS1_USneg,None,1,,,,,,,,,,,,,,,,,,23,m,7,n,2019_Nov_24_1109,ec_RRR,3.0.4,59.98933569568806,
Balas and Sarzynnska,"Dla tego zadania, docelową postacią jest Zorua:","Więc gdy tylko Zorua (jego imię lub jego podobizna) pojawi się na ekranie, naciśnij spację tak szybko jak to możliwe. Uderz w spację gdy tylko zobaczysz podobiznę Zoruay lub słowo ZORUA

Naciśnij spację by rozpocząć zadanie",target4,stimuli/t4.jpg,7,51,stimuli/cs1_neg19.jpg,CSUS,False,None,,,,,,,,,,,,,,0,0,0,0,,,,,0,0,0,3,0,50,50,50,,,,,,,,,,,,,,,,,,,,,,,,,,,,,,,,,,,,,,,,,,,,,,,,,,,,,CS1_USneg,None,1,,,,,,,,,,,,,,,,,,23,m,7,n,2019_Nov_24_1109,ec_RRR,3.0.4,59.98933569568806,
Balas and Sarzynnska,"Dla tego zadania, docelową postacią jest Zorua:","Więc gdy tylko Zorua (jego imię lub jego podobizna) pojawi się na ekranie, naciśnij spację tak szybko jak to możliwe. Uderz w spację gdy tylko zobaczysz podobiznę Zoruay lub słowo ZORUA

Naciśnij spację by rozpocząć zadanie",target4,stimuli/t4.jpg,7,52,stimuli/blank.jpg,blank,False,None,,,,,,,,,,,,,,0,0,0,0,,,,,0,0,0,3,0,51,51,51,,,,,,,,,,,,,,,,,,,,,,,,,,,,,,,,,,,,,,,,,,,,,,,,,,,,,CS1_USneg,None,1,,,,,,,,,,,,,,,,,,23,m,7,n,2019_Nov_24_1109,ec_RRR,3.0.4,59.98933569568806,
Balas and Sarzynnska,"Dla tego zadania, docelową postacią jest Zorua:","Więc gdy tylko Zorua (jego imię lub jego podobizna) pojawi się na ekranie, naciśnij spację tak szybko jak to możliwe. Uderz w spację gdy tylko zobaczysz podobiznę Zoruay lub słowo ZORUA

Naciśnij spację by rozpocząć zadanie",target4,stimuli/t4.jpg,7,53,stimuli/filler46.jpg,filler,False,None,,,,,,,,,,,,,,0,0,0,0,,,,,0,0,0,3,0,52,52,52,,,,,,,,,,,,,,,,,,,,,,,,,,,,,,,,,,,,,,,,,,,,,,,,,,,,,CS1_USneg,None,1,,,,,,,,,,,,,,,,,,23,m,7,n,2019_Nov_24_1109,ec_RRR,3.0.4,59.98933569568806,
Balas and Sarzynnska,"Dla tego zadania, docelową postacią jest Zorua:","Więc gdy tylko Zorua (jego imię lub jego podobizna) pojawi się na ekranie, naciśnij spację tak szybko jak to możliwe. Uderz w spację gdy tylko zobaczysz podobiznę Zoruay lub słowo ZORUA

Naciśnij spację by rozpocząć zadanie",target4,stimuli/t4.jpg,7,54,stimuli/filler33.jpg,filler,False,None,,,,,,,,,,,,,,0,0,0,0,,,,,0,0,0,3,0,53,53,53,,,,,,,,,,,,,,,,,,,,,,,,,,,,,,,,,,,,,,,,,,,,,,,,,,,,,CS1_USneg,None,1,,,,,,,,,,,,,,,,,,23,m,7,n,2019_Nov_24_1109,ec_RRR,3.0.4,59.98933569568806,
Balas and Sarzynnska,"Dla tego zadania, docelową postacią jest Zorua:","Więc gdy tylko Zorua (jego imię lub jego podobizna) pojawi się na ekranie, naciśnij spację tak szybko jak to możliwe. Uderz w spację gdy tylko zobaczysz podobiznę Zoruay lub słowo ZORUA

Naciśnij spację by rozpocząć zadanie",target4,stimuli/t4.jpg,7,55,stimuli/filler31.jpg,filler,False,None,,,,,,,,,,,,,,0,0,0,0,,,,,0,0,0,3,0,54,54,54,,,,,,,,,,,,,,,,,,,,,,,,,,,,,,,,,,,,,,,,,,,,,,,,,,,,,CS1_USneg,None,1,,,,,,,,,,,,,,,,,,23,m,7,n,2019_Nov_24_1109,ec_RRR,3.0.4,59.98933569568806,
Balas and Sarzynnska,"Dla tego zadania, docelową postacią jest Zorua:","Więc gdy tylko Zorua (jego imię lub jego podobizna) pojawi się na ekranie, naciśnij spację tak szybko jak to możliwe. Uderz w spację gdy tylko zobaczysz podobiznę Zoruay lub słowo ZORUA

Naciśnij spację by rozpocząć zadanie",target4,stimuli/t4.jpg,7,56,stimuli/filler30.jpg,filler,False,None,,,,,,,,,,,,,,0,0,0,0,,,,,0,0,0,3,0,55,55,55,,,,,,,,,,,,,,,,,,,,,,,,,,,,,,,,,,,,,,,,,,,,,,,,,,,,,CS1_USneg,None,1,,,,,,,,,,,,,,,,,,23,m,7,n,2019_Nov_24_1109,ec_RRR,3.0.4,59.98933569568806,
Balas and Sarzynnska,"Dla tego zadania, docelową postacią jest Zorua:","Więc gdy tylko Zorua (jego imię lub jego podobizna) pojawi się na ekranie, naciśnij spację tak szybko jak to możliwe. Uderz w spację gdy tylko zobaczysz podobiznę Zoruay lub słowo ZORUA

Naciśnij spację by rozpocząć zadanie",target4,stimuli/t4.jpg,7,57,stimuli/target4_6.jpg,target,True,space,,,,,,,,,,,,,,0,0,0,0,,,,,0,0,0,3,0,56,56,56,,,,,,,,,,,,,,,,,,,,,,,,,,,,,,,,,,,,,,,,,,,,,,,,,,,,,CS1_USneg,space,1,0.8525664349981525,,,,,,,,,,,,,,,,,23,m,7,n,2019_Nov_24_1109,ec_RRR,3.0.4,59.98933569568806,
Balas and Sarzynnska,"Dla tego zadania, docelową postacią jest Zorua:","Więc gdy tylko Zorua (jego imię lub jego podobizna) pojawi się na ekranie, naciśnij spację tak szybko jak to możliwe. Uderz w spację gdy tylko zobaczysz podobiznę Zoruay lub słowo ZORUA

Naciśnij spację by rozpocząć zadanie",target4,stimuli/t4.jpg,7,58,stimuli/target4_9.jpg,target,True,space,,,,,,,,,,,,,,0,0,0,0,,,,,0,0,0,3,0,57,57,57,,,,,,,,,,,,,,,,,,,,,,,,,,,,,,,,,,,,,,,,,,,,,,,,,,,,,CS1_USneg,space,1,0.6001745399989886,,,,,,,,,,,,,,,,,23,m,7,n,2019_Nov_24_1109,ec_RRR,3.0.4,59.98933569568806,
Balas and Sarzynnska,"Dla tego zadania, docelową postacią jest Zorua:","Więc gdy tylko Zorua (jego imię lub jego podobizna) pojawi się na ekranie, naciśnij spację tak szybko jak to możliwe. Uderz w spację gdy tylko zobaczysz podobiznę Zoruay lub słowo ZORUA

Naciśnij spację by rozpocząć zadanie",target4,stimuli/t4.jpg,7,59,stimuli/filler34.jpg,filler,False,None,,,,,,,,,,,,,,0,0,0,0,,,,,0,0,0,3,0,58,58,58,,,,,,,,,,,,,,,,,,,,,,,,,,,,,,,,,,,,,,,,,,,,,,,,,,,,,CS1_USneg,None,1,,,,,,,,,,,,,,,,,,23,m,7,n,2019_Nov_24_1109,ec_RRR,3.0.4,59.98933569568806,
Balas and Sarzynnska,"Dla tego zadania, docelową postacią jest Zorua:","Więc gdy tylko Zorua (jego imię lub jego podobizna) pojawi się na ekranie, naciśnij spację tak szybko jak to możliwe. Uderz w spację gdy tylko zobaczysz podobiznę Zoruay lub słowo ZORUA

Naciśnij spację by rozpocząć zadanie",target4,stimuli/t4.jpg,7,60,stimuli/blank.jpg,blank,False,None,,,,,,,,,,,,,,0,0,0,0,,,,,0,0,0,3,0,59,59,59,,,,,,,,,,,,,,,,,,,,,,,,,,,,,,,,,,,,,,,,,,,,,,,,,,,,,CS1_USneg,None,1,,,,,,,,,,,,,,,,,,23,m,7,n,2019_Nov_24_1109,ec_RRR,3.0.4,59.98933569568806,
Balas and Sarzynnska,"Dla tego zadania, docelową postacią jest Zorua:","Więc gdy tylko Zorua (jego imię lub jego podobizna) pojawi się na ekranie, naciśnij spację tak szybko jak to możliwe. Uderz w spację gdy tylko zobaczysz podobiznę Zoruay lub słowo ZORUA

Naciśnij spację by rozpocząć zadanie",target4,stimuli/t4.jpg,7,61,stimuli/cs2_pos20.jpg,CSUS,False,None,,,,,,,,,,,,,,0,0,0,0,,,,,0,0,0,3,0,60,60,60,,,,,,,,,,,,,,,,,,,,,,,,,,,,,,,,,,,,,,,,,,,,,,,,,,,,,CS1_USneg,None,1,,,,,,,,,,,,,,,,,,23,m,7,n,2019_Nov_24_1109,ec_RRR,3.0.4,59.98933569568806,
Balas and Sarzynnska,"Dla tego zadania, docelową postacią jest Zorua:","Więc gdy tylko Zorua (jego imię lub jego podobizna) pojawi się na ekranie, naciśnij spację tak szybko jak to możliwe. Uderz w spację gdy tylko zobaczysz podobiznę Zoruay lub słowo ZORUA

Naciśnij spację by rozpocząć zadanie",target4,stimuli/t4.jpg,7,62,stimuli/blank.jpg,blank,False,None,,,,,,,,,,,,,,0,0,0,0,,,,,0,0,0,3,0,61,61,61,,,,,,,,,,,,,,,,,,,,,,,,,,,,,,,,,,,,,,,,,,,,,,,,,,,,,CS1_USneg,None,1,,,,,,,,,,,,,,,,,,23,m,7,n,2019_Nov_24_1109,ec_RRR,3.0.4,59.98933569568806,
Balas and Sarzynnska,"Dla tego zadania, docelową postacią jest Zorua:","Więc gdy tylko Zorua (jego imię lub jego podobizna) pojawi się na ekranie, naciśnij spację tak szybko jak to możliwe. Uderz w spację gdy tylko zobaczysz podobiznę Zoruay lub słowo ZORUA

Naciśnij spację by rozpocząć zadanie",target4,stimuli/t4.jpg,7,63,stimuli/target4_2.jpg,target,True,space,,,,,,,,,,,,,,0,0,0,0,,,,,0,0,0,3,0,62,62,62,,,,,,,,,,,,,,,,,,,,,,,,,,,,,,,,,,,,,,,,,,,,,,,,,,,,,CS1_USneg,space,1,0.5369913729991822,,,,,,,,,,,,,,,,,23,m,7,n,2019_Nov_24_1109,ec_RRR,3.0.4,59.98933569568806,
Balas and Sarzynnska,"Dla tego zadania, docelową postacią jest Zorua:","Więc gdy tylko Zorua (jego imię lub jego podobizna) pojawi się na ekranie, naciśnij spację tak szybko jak to możliwe. Uderz w spację gdy tylko zobaczysz podobiznę Zoruay lub słowo ZORUA

Naciśnij spację by rozpocząć zadanie",target4,stimuli/t4.jpg,7,64,stimuli/filler20.jpg,filler,False,None,,,,,,,,,,,,,,0,0,0,0,,,,,0,0,0,3,0,63,63,63,,,,,,,,,,,,,,,,,,,,,,,,,,,,,,,,,,,,,,,,,,,,,,,,,,,,,CS1_USneg,None,1,,,,,,,,,,,,,,,,,,23,m,7,n,2019_Nov_24_1109,ec_RRR,3.0.4,59.98933569568806,
Balas and Sarzynnska,"Dla tego zadania, docelową postacią jest Zorua:","Więc gdy tylko Zorua (jego imię lub jego podobizna) pojawi się na ekranie, naciśnij spację tak szybko jak to możliwe. Uderz w spację gdy tylko zobaczysz podobiznę Zoruay lub słowo ZORUA

Naciśnij spację by rozpocząć zadanie",target4,stimuli/t4.jpg,7,65,stimuli/filler44.jpg,filler,False,None,,,,,,,,,,,,,,0,0,0,0,,,,,0,0,0,3,0,64,64,64,,,,,,,,,,,,,,,,,,,,,,,,,,,,,,,,,,,,,,,,,,,,,,,,,,,,,CS1_USneg,None,1,,,,,,,,,,,,,,,,,,23,m,7,n,2019_Nov_24_1109,ec_RRR,3.0.4,59.98933569568806,
Balas and Sarzynnska,"Dla tego zadania, docelową postacią jest Zorua:","Więc gdy tylko Zorua (jego imię lub jego podobizna) pojawi się na ekranie, naciśnij spację tak szybko jak to możliwe. Uderz w spację gdy tylko zobaczysz podobiznę Zoruay lub słowo ZORUA

Naciśnij spację by rozpocząć zadanie",target4,stimuli/t4.jpg,7,66,stimuli/filler1.jpg,filler,False,None,,,,,,,,,,,,,,0,0,0,0,,,,,0,0,0,3,0,65,65,65,,,,,,,,,,,,,,,,,,,,,,,,,,,,,,,,,,,,,,,,,,,,,,,,,,,,,CS1_USneg,None,1,,,,,,,,,,,,,,,,,,23,m,7,n,2019_Nov_24_1109,ec_RRR,3.0.4,59.98933569568806,
Balas and Sarzynnska,"Dla tego zadania, docelową postacią jest Zorua:","Więc gdy tylko Zorua (jego imię lub jego podobizna) pojawi się na ekranie, naciśnij spację tak szybko jak to możliwe. Uderz w spację gdy tylko zobaczysz podobiznę Zoruay lub słowo ZORUA

Naciśnij spację by rozpocząć zadanie",target4,stimuli/t4.jpg,7,67,stimuli/filler10.jpg,filler,False,None,,,,,,,,,,,,,,0,0,0,0,,,,,0,0,0,3,0,66,66,66,,,,,,,,,,,,,,,,,,,,,,,,,,,,,,,,,,,,,,,,,,,,,,,,,,,,,CS1_USneg,None,1,,,,,,,,,,,,,,,,,,23,m,7,n,2019_Nov_24_1109,ec_RRR,3.0.4,59.98933569568806,
Balas and Sarzynnska,"Dla tego zadania, docelową postacią jest Zorua:","Więc gdy tylko Zorua (jego imię lub jego podobizna) pojawi się na ekranie, naciśnij spację tak szybko jak to możliwe. Uderz w spację gdy tylko zobaczysz podobiznę Zoruay lub słowo ZORUA

Naciśnij spację by rozpocząć zadanie",target4,stimuli/t4.jpg,7,68,stimuli/filler18.jpg,filler,False,None,,,,,,,,,,,,,,0,0,0,0,,,,,0,0,0,3,0,67,67,67,,,,,,,,,,,,,,,,,,,,,,,,,,,,,,,,,,,,,,,,,,,,,,,,,,,,,CS1_USneg,None,1,,,,,,,,,,,,,,,,,,23,m,7,n,2019_Nov_24_1109,ec_RRR,3.0.4,59.98933569568806,
Balas and Sarzynnska,"Dla tego zadania, docelową postacią jest Zorua:","Więc gdy tylko Zorua (jego imię lub jego podobizna) pojawi się na ekranie, naciśnij spację tak szybko jak to możliwe. Uderz w spację gdy tylko zobaczysz podobiznę Zoruay lub słowo ZORUA

Naciśnij spację by rozpocząć zadanie",target4,stimuli/t4.jpg,7,69,stimuli/filler17.jpg,filler,False,None,,,,,,,,,,,,,,0,0,0,0,,,,,0,0,0,3,0,68,68,68,,,,,,,,,,,,,,,,,,,,,,,,,,,,,,,,,,,,,,,,,,,,,,,,,,,,,CS1_USneg,None,1,,,,,,,,,,,,,,,,,,23,m,7,n,2019_Nov_24_1109,ec_RRR,3.0.4,59.98933569568806,
Balas and Sarzynnska,"Dla tego zadania, docelową postacią jest Zorua:","Więc gdy tylko Zorua (jego imię lub jego podobizna) pojawi się na ekranie, naciśnij spację tak szybko jak to możliwe. Uderz w spację gdy tylko zobaczysz podobiznę Zoruay lub słowo ZORUA

Naciśnij spację by rozpocząć zadanie",target4,stimuli/t4.jpg,7,70,stimuli/blank.jpg,blank,False,None,,,,,,,,,,,,,,0,0,0,0,,,,,0,0,0,3,0,69,69,69,,,,,,,,,,,,,,,,,,,,,,,,,,,,,,,,,,,,,,,,,,,,,,,,,,,,,CS1_USneg,None,1,,,,,,,,,,,,,,,,,,23,m,7,n,2019_Nov_24_1109,ec_RRR,3.0.4,59.98933569568806,
Balas and Sarzynnska,"Dla tego zadania, docelową postacią jest Zorua:","Więc gdy tylko Zorua (jego imię lub jego podobizna) pojawi się na ekranie, naciśnij spację tak szybko jak to możliwe. Uderz w spację gdy tylko zobaczysz podobiznę Zoruay lub słowo ZORUA

Naciśnij spację by rozpocząć zadanie",target4,stimuli/t4.jpg,7,71,stimuli/cs1_neg1.jpg,CSUS,False,None,,,,,,,,,,,,,,0,0,0,0,,,,,0,0,0,3,0,70,70,70,,,,,,,,,,,,,,,,,,,,,,,,,,,,,,,,,,,,,,,,,,,,,,,,,,,,,CS1_USneg,None,1,,,,,,,,,,,,,,,,,,23,m,7,n,2019_Nov_24_1109,ec_RRR,3.0.4,59.98933569568806,
Balas and Sarzynnska,"Dla tego zadania, docelową postacią jest Zorua:","Więc gdy tylko Zorua (jego imię lub jego podobizna) pojawi się na ekranie, naciśnij spację tak szybko jak to możliwe. Uderz w spację gdy tylko zobaczysz podobiznę Zoruay lub słowo ZORUA

Naciśnij spację by rozpocząć zadanie",target4,stimuli/t4.jpg,7,72,stimuli/blank.jpg,blank,False,None,,,,,,,,,,,,,,0,0,0,0,,,,,0,0,0,3,0,71,71,71,,,,,,,,,,,,,,,,,,,,,,,,,,,,,,,,,,,,,,,,,,,,,,,,,,,,,CS1_USneg,None,1,,,,,,,,,,,,,,,,,,23,m,7,n,2019_Nov_24_1109,ec_RRR,3.0.4,59.98933569568806,
Balas and Sarzynnska,"Dla tego zadania, docelową postacią jest Zorua:","Więc gdy tylko Zorua (jego imię lub jego podobizna) pojawi się na ekranie, naciśnij spację tak szybko jak to możliwe. Uderz w spację gdy tylko zobaczysz podobiznę Zoruay lub słowo ZORUA

Naciśnij spację by rozpocząć zadanie",target4,stimuli/t4.jpg,7,73,stimuli/filler52.jpg,filler,False,None,,,,,,,,,,,,,,0,0,0,0,,,,,0,0,0,3,0,72,72,72,,,,,,,,,,,,,,,,,,,,,,,,,,,,,,,,,,,,,,,,,,,,,,,,,,,,,CS1_USneg,None,1,,,,,,,,,,,,,,,,,,23,m,7,n,2019_Nov_24_1109,ec_RRR,3.0.4,59.98933569568806,
Balas and Sarzynnska,"Dla tego zadania, docelową postacią jest Zorua:","Więc gdy tylko Zorua (jego imię lub jego podobizna) pojawi się na ekranie, naciśnij spację tak szybko jak to możliwe. Uderz w spację gdy tylko zobaczysz podobiznę Zoruay lub słowo ZORUA

Naciśnij spację by rozpocząć zadanie",target4,stimuli/t4.jpg,7,74,stimuli/filler4.jpg,filler,False,None,,,,,,,,,,,,,,0,0,0,0,,,,,0,0,0,3,0,73,73,73,,,,,,,,,,,,,,,,,,,,,,,,,,,,,,,,,,,,,,,,,,,,,,,,,,,,,CS1_USneg,None,1,,,,,,,,,,,,,,,,,,23,m,7,n,2019_Nov_24_1109,ec_RRR,3.0.4,59.98933569568806,
Balas and Sarzynnska,"Dla tego zadania, docelową postacią jest Zorua:","Więc gdy tylko Zorua (jego imię lub jego podobizna) pojawi się na ekranie, naciśnij spację tak szybko jak to możliwe. Uderz w spację gdy tylko zobaczysz podobiznę Zoruay lub słowo ZORUA

Naciśnij spację by rozpocząć zadanie",target4,stimuli/t4.jpg,7,75,stimuli/filler2.jpg,filler,False,None,,,,,,,,,,,,,,0,0,0,0,,,,,0,0,0,3,0,74,74,74,,,,,,,,,,,,,,,,,,,,,,,,,,,,,,,,,,,,,,,,,,,,,,,,,,,,,CS1_USneg,None,1,,,,,,,,,,,,,,,,,,23,m,7,n,2019_Nov_24_1109,ec_RRR,3.0.4,59.98933569568806,
Balas and Sarzynnska,"Dla tego zadania, docelową postacią jest Zorua:","Więc gdy tylko Zorua (jego imię lub jego podobizna) pojawi się na ekranie, naciśnij spację tak szybko jak to możliwe. Uderz w spację gdy tylko zobaczysz podobiznę Zoruay lub słowo ZORUA

Naciśnij spację by rozpocząć zadanie",target4,stimuli/t4.jpg,7,76,stimuli/filler9.jpg,filler,False,None,,,,,,,,,,,,,,0,0,0,0,,,,,0,0,0,3,0,75,75,75,,,,,,,,,,,,,,,,,,,,,,,,,,,,,,,,,,,,,,,,,,,,,,,,,,,,,CS1_USneg,None,1,,,,,,,,,,,,,,,,,,23,m,7,n,2019_Nov_24_1109,ec_RRR,3.0.4,59.98933569568806,
Balas and Sarzynnska,"Dla tego zadania, docelową postacią jest Zorua:","Więc gdy tylko Zorua (jego imię lub jego podobizna) pojawi się na ekranie, naciśnij spację tak szybko jak to możliwe. Uderz w spację gdy tylko zobaczysz podobiznę Zoruay lub słowo ZORUA

Naciśnij spację by rozpocząć zadanie",target4,stimuli/t4.jpg,7,77,stimuli/filler36.jpg,filler,False,None,,,,,,,,,,,,,,0,0,0,0,,,,,0,0,0,3,0,76,76,76,,,,,,,,,,,,,,,,,,,,,,,,,,,,,,,,,,,,,,,,,,,,,,,,,,,,,CS1_USneg,None,1,,,,,,,,,,,,,,,,,,23,m,7,n,2019_Nov_24_1109,ec_RRR,3.0.4,59.98933569568806,
Balas and Sarzynnska,"Dla tego zadania, docelową postacią jest Zorua:","Więc gdy tylko Zorua (jego imię lub jego podobizna) pojawi się na ekranie, naciśnij spację tak szybko jak to możliwe. Uderz w spację gdy tylko zobaczysz podobiznę Zoruay lub słowo ZORUA

Naciśnij spację by rozpocząć zadanie",target4,stimuli/t4.jpg,7,78,stimuli/filler19.jpg,filler,False,None,,,,,,,,,,,,,,0,0,0,0,,,,,0,0,0,3,0,77,77,77,,,,,,,,,,,,,,,,,,,,,,,,,,,,,,,,,,,,,,,,,,,,,,,,,,,,,CS1_USneg,None,1,,,,,,,,,,,,,,,,,,23,m,7,n,2019_Nov_24_1109,ec_RRR,3.0.4,59.98933569568806,
Balas and Sarzynnska,"Dla tego zadania, docelową postacią jest Zorua:","Więc gdy tylko Zorua (jego imię lub jego podobizna) pojawi się na ekranie, naciśnij spację tak szybko jak to możliwe. Uderz w spację gdy tylko zobaczysz podobiznę Zoruay lub słowo ZORUA

Naciśnij spację by rozpocząć zadanie",target4,stimuli/t4.jpg,7,79,stimuli/filler26.jpg,filler,False,None,,,,,,,,,,,,,,0,0,0,0,,,,,0,0,0,3,0,78,78,78,,,,,,,,,,,,,,,,,,,,,,,,,,,,,,,,,,,,,,,,,,,,,,,,,,,,,CS1_USneg,None,1,,,,,,,,,,,,,,,,,,23,m,7,n,2019_Nov_24_1109,ec_RRR,3.0.4,59.98933569568806,
Balas and Sarzynnska,"Dla tego zadania, docelową postacią jest Zorua:","Więc gdy tylko Zorua (jego imię lub jego podobizna) pojawi się na ekranie, naciśnij spację tak szybko jak to możliwe. Uderz w spację gdy tylko zobaczysz podobiznę Zoruay lub słowo ZORUA

Naciśnij spację by rozpocząć zadanie",target4,stimuli/t4.jpg,7,80,stimuli/blank.jpg,blank,False,None,,,,,,,,,,,,,,0,0,0,0,,,,,0,0,0,3,0,79,79,79,,,,,,,,,,,,,,,,,,,,,,,,,,,,,,,,,,,,,,,,,,,,,,,,,,,,,CS1_USneg,None,1,,,,,,,,,,,,,,,,,,23,m,7,n,2019_Nov_24_1109,ec_RRR,3.0.4,59.98933569568806,
Balas and Sarzynnska,"Dla tego zadania, docelową postacią jest Zorua:","Więc gdy tylko Zorua (jego imię lub jego podobizna) pojawi się na ekranie, naciśnij spację tak szybko jak to możliwe. Uderz w spację gdy tylko zobaczysz podobiznę Zoruay lub słowo ZORUA

Naciśnij spację by rozpocząć zadanie",target4,stimuli/t4.jpg,7,81,stimuli/cs2_pos4.jpg,CSUS,False,None,,,,,,,,,,,,,,0,0,0,0,,,,,0,0,0,3,0,80,80,80,,,,,,,,,,,,,,,,,,,,,,,,,,,,,,,,,,,,,,,,,,,,,,,,,,,,,CS1_USneg,None,1,,,,,,,,,,,,,,,,,,23,m,7,n,2019_Nov_24_1109,ec_RRR,3.0.4,59.98933569568806,
Balas and Sarzynnska,"Dla tego zadania, docelową postacią jest Zorua:","Więc gdy tylko Zorua (jego imię lub jego podobizna) pojawi się na ekranie, naciśnij spację tak szybko jak to możliwe. Uderz w spację gdy tylko zobaczysz podobiznę Zoruay lub słowo ZORUA

Naciśnij spację by rozpocząć zadanie",target4,stimuli/t4.jpg,7,82,stimuli/blank.jpg,blank,False,None,,,,,,,,,,,,,,0,0,0,0,,,,,0,0,0,3,0,81,81,81,,,,,,,,,,,,,,,,,,,,,,,,,,,,,,,,,,,,,,,,,,,,,,,,,,,,,CS1_USneg,None,1,,,,,,,,,,,,,,,,,,23,m,7,n,2019_Nov_24_1109,ec_RRR,3.0.4,59.98933569568806,
Balas and Sarzynnska,"Dla tego zadania, docelową postacią jest Zorua:","Więc gdy tylko Zorua (jego imię lub jego podobizna) pojawi się na ekranie, naciśnij spację tak szybko jak to możliwe. Uderz w spację gdy tylko zobaczysz podobiznę Zoruay lub słowo ZORUA

Naciśnij spację by rozpocząć zadanie",target4,stimuli/t4.jpg,7,83,stimuli/filler42.jpg,filler,False,None,,,,,,,,,,,,,,0,0,0,0,,,,,0,0,0,3,0,82,82,82,,,,,,,,,,,,,,,,,,,,,,,,,,,,,,,,,,,,,,,,,,,,,,,,,,,,,CS1_USneg,None,1,,,,,,,,,,,,,,,,,,23,m,7,n,2019_Nov_24_1109,ec_RRR,3.0.4,59.98933569568806,
Balas and Sarzynnska,"Dla tego zadania, docelową postacią jest Zorua:","Więc gdy tylko Zorua (jego imię lub jego podobizna) pojawi się na ekranie, naciśnij spację tak szybko jak to możliwe. Uderz w spację gdy tylko zobaczysz podobiznę Zoruay lub słowo ZORUA

Naciśnij spację by rozpocząć zadanie",target4,stimuli/t4.jpg,7,84,stimuli/filler3.jpg,filler,False,None,,,,,,,,,,,,,,0,0,0,0,,,,,0,0,0,3,0,83,83,83,,,,,,,,,,,,,,,,,,,,,,,,,,,,,,,,,,,,,,,,,,,,,,,,,,,,,CS1_USneg,None,1,,,,,,,,,,,,,,,,,,23,m,7,n,2019_Nov_24_1109,ec_RRR,3.0.4,59.98933569568806,
Balas and Sarzynnska,"Dla tego zadania, docelową postacią jest Zorua:","Więc gdy tylko Zorua (jego imię lub jego podobizna) pojawi się na ekranie, naciśnij spację tak szybko jak to możliwe. Uderz w spację gdy tylko zobaczysz podobiznę Zoruay lub słowo ZORUA

Naciśnij spację by rozpocząć zadanie",target4,stimuli/t4.jpg,7,85,stimuli/target4_8.jpg,target,True,space,,,,,,,,,,,,,,0,0,0,0,,,,,0,0,0,3,0,84,84,84,,,,,,,,,,,,,,,,,,,,,,,,,,,,,,,,,,,,,,,,,,,,,,,,,,,,,CS1_USneg,space,1,0.6187376160014537,,,,,,,,,,,,,,,,,23,m,7,n,2019_Nov_24_1109,ec_RRR,3.0.4,59.98933569568806,
Balas and Sarzynnska,"Dla tego zadania, docelową postacią jest Zorua:","Więc gdy tylko Zorua (jego imię lub jego podobizna) pojawi się na ekranie, naciśnij spację tak szybko jak to możliwe. Uderz w spację gdy tylko zobaczysz podobiznę Zoruay lub słowo ZORUA

Naciśnij spację by rozpocząć zadanie",target4,stimuli/t4.jpg,7,86,stimuli/filler12.jpg,filler,False,None,,,,,,,,,,,,,,0,0,0,0,,,,,0,0,0,3,0,85,85,85,,,,,,,,,,,,,,,,,,,,,,,,,,,,,,,,,,,,,,,,,,,,,,,,,,,,,CS1_USneg,None,1,,,,,,,,,,,,,,,,,,23,m,7,n,2019_Nov_24_1109,ec_RRR,3.0.4,59.98933569568806,
Balas and Sarzynnska,"Dla tego zadania, docelową postacią jest Bergmite:","Więc gdy tylko Bergmite (jego imię lub jego podobizna) pojawi się na ekranie, naciśnij spację tak szybko jak to możliwe. Uderz w spację gdy tylko zobaczysz podobiznę Bergmitea lub słowo BERGMITE.

Naciśnij spację by rozpocząć zadanie",target3,stimuli/t3.jpg,7,1,stimuli/filler6.jpg,filler,False,None,,,,,,,,,,,,,,0,0,0,0,,,,,0,1,1,2,0,0,0,0,,,,,,,,,,,,,,,,,,,,,,,,,,,,,,,,,,,,,,,,,,,,,,,,,,,,,CS1_USneg,None,1,,,,,,,,,,,,,,,,,,23,m,7,n,2019_Nov_24_1109,ec_RRR,3.0.4,59.98933569568806,
Balas and Sarzynnska,"Dla tego zadania, docelową postacią jest Bergmite:","Więc gdy tylko Bergmite (jego imię lub jego podobizna) pojawi się na ekranie, naciśnij spację tak szybko jak to możliwe. Uderz w spację gdy tylko zobaczysz podobiznę Bergmitea lub słowo BERGMITE.

Naciśnij spację by rozpocząć zadanie",target3,stimuli/t3.jpg,7,2,stimuli/target3_3.jpg,target,True,space,,,,,,,,,,,,,,0,0,0,0,,,,,0,1,1,2,0,1,1,1,,,,,,,,,,,,,,,,,,,,,,,,,,,,,,,,,,,,,,,,,,,,,,,,,,,,,CS1_USneg,space,1,0.5686142110025685,,,,,,,,,,,,,,,,,23,m,7,n,2019_Nov_24_1109,ec_RRR,3.0.4,59.98933569568806,
Balas and Sarzynnska,"Dla tego zadania, docelową postacią jest Bergmite:","Więc gdy tylko Bergmite (jego imię lub jego podobizna) pojawi się na ekranie, naciśnij spację tak szybko jak to możliwe. Uderz w spację gdy tylko zobaczysz podobiznę Bergmitea lub słowo BERGMITE.

Naciśnij spację by rozpocząć zadanie",target3,stimuli/t3.jpg,7,3,stimuli/filler52.jpg,filler,False,None,,,,,,,,,,,,,,0,0,0,0,,,,,0,1,1,2,0,2,2,2,,,,,,,,,,,,,,,,,,,,,,,,,,,,,,,,,,,,,,,,,,,,,,,,,,,,,CS1_USneg,None,1,,,,,,,,,,,,,,,,,,23,m,7,n,2019_Nov_24_1109,ec_RRR,3.0.4,59.98933569568806,
Balas and Sarzynnska,"Dla tego zadania, docelową postacią jest Bergmite:","Więc gdy tylko Bergmite (jego imię lub jego podobizna) pojawi się na ekranie, naciśnij spację tak szybko jak to możliwe. Uderz w spację gdy tylko zobaczysz podobiznę Bergmitea lub słowo BERGMITE.

Naciśnij spację by rozpocząć zadanie",target3,stimuli/t3.jpg,7,4,stimuli/filler7.jpg,filler,False,None,,,,,,,,,,,,,,0,0,0,0,,,,,0,1,1,2,0,3,3,3,,,,,,,,,,,,,,,,,,,,,,,,,,,,,,,,,,,,,,,,,,,,,,,,,,,,,CS1_USneg,None,1,,,,,,,,,,,,,,,,,,23,m,7,n,2019_Nov_24_1109,ec_RRR,3.0.4,59.98933569568806,
Balas and Sarzynnska,"Dla tego zadania, docelową postacią jest Bergmite:","Więc gdy tylko Bergmite (jego imię lub jego podobizna) pojawi się na ekranie, naciśnij spację tak szybko jak to możliwe. Uderz w spację gdy tylko zobaczysz podobiznę Bergmitea lub słowo BERGMITE.

Naciśnij spację by rozpocząć zadanie",target3,stimuli/t3.jpg,7,5,stimuli/target3_7.jpg,target,True,space,,,,,,,,,,,,,,0,0,0,0,,,,,0,1,1,2,0,4,4,4,,,,,,,,,,,,,,,,,,,,,,,,,,,,,,,,,,,,,,,,,,,,,,,,,,,,,CS1_USneg,space,1,0.735852686000726,,,,,,,,,,,,,,,,,23,m,7,n,2019_Nov_24_1109,ec_RRR,3.0.4,59.98933569568806,
Balas and Sarzynnska,"Dla tego zadania, docelową postacią jest Bergmite:","Więc gdy tylko Bergmite (jego imię lub jego podobizna) pojawi się na ekranie, naciśnij spację tak szybko jak to możliwe. Uderz w spację gdy tylko zobaczysz podobiznę Bergmitea lub słowo BERGMITE.

Naciśnij spację by rozpocząć zadanie",target3,stimuli/t3.jpg,7,6,stimuli/filler17.jpg,filler,False,None,,,,,,,,,,,,,,0,0,0,0,,,,,0,1,1,2,0,5,5,5,,,,,,,,,,,,,,,,,,,,,,,,,,,,,,,,,,,,,,,,,,,,,,,,,,,,,CS1_USneg,None,1,,,,,,,,,,,,,,,,,,23,m,7,n,2019_Nov_24_1109,ec_RRR,3.0.4,59.98933569568806,
Balas and Sarzynnska,"Dla tego zadania, docelową postacią jest Bergmite:","Więc gdy tylko Bergmite (jego imię lub jego podobizna) pojawi się na ekranie, naciśnij spację tak szybko jak to możliwe. Uderz w spację gdy tylko zobaczysz podobiznę Bergmitea lub słowo BERGMITE.

Naciśnij spację by rozpocząć zadanie",target3,stimuli/t3.jpg,7,7,stimuli/target3_10.jpg,target,True,space,,,,,,,,,,,,,,0,0,0,0,,,,,0,1,1,2,0,6,6,6,,,,,,,,,,,,,,,,,,,,,,,,,,,,,,,,,,,,,,,,,,,,,,,,,,,,,CS1_USneg,space,1,0.5360195249995741,,,,,,,,,,,,,,,,,23,m,7,n,2019_Nov_24_1109,ec_RRR,3.0.4,59.98933569568806,
Balas and Sarzynnska,"Dla tego zadania, docelową postacią jest Bergmite:","Więc gdy tylko Bergmite (jego imię lub jego podobizna) pojawi się na ekranie, naciśnij spację tak szybko jak to możliwe. Uderz w spację gdy tylko zobaczysz podobiznę Bergmitea lub słowo BERGMITE.

Naciśnij spację by rozpocząć zadanie",target3,stimuli/t3.jpg,7,8,stimuli/filler38.jpg,filler,False,None,,,,,,,,,,,,,,0,0,0,0,,,,,0,1,1,2,0,7,7,7,,,,,,,,,,,,,,,,,,,,,,,,,,,,,,,,,,,,,,,,,,,,,,,,,,,,,CS1_USneg,None,1,,,,,,,,,,,,,,,,,,23,m,7,n,2019_Nov_24_1109,ec_RRR,3.0.4,59.98933569568806,
Balas and Sarzynnska,"Dla tego zadania, docelową postacią jest Bergmite:","Więc gdy tylko Bergmite (jego imię lub jego podobizna) pojawi się na ekranie, naciśnij spację tak szybko jak to możliwe. Uderz w spację gdy tylko zobaczysz podobiznę Bergmitea lub słowo BERGMITE.

Naciśnij spację by rozpocząć zadanie",target3,stimuli/t3.jpg,7,9,stimuli/target3_5.jpg,target,True,space,,,,,,,,,,,,,,0,0,0,0,,,,,0,1,1,2,0,8,8,8,,,,,,,,,,,,,,,,,,,,,,,,,,,,,,,,,,,,,,,,,,,,,,,,,,,,,CS1_USneg,space,1,0.5023505409990321,,,,,,,,,,,,,,,,,23,m,7,n,2019_Nov_24_1109,ec_RRR,3.0.4,59.98933569568806,
Balas and Sarzynnska,"Dla tego zadania, docelową postacią jest Bergmite:","Więc gdy tylko Bergmite (jego imię lub jego podobizna) pojawi się na ekranie, naciśnij spację tak szybko jak to możliwe. Uderz w spację gdy tylko zobaczysz podobiznę Bergmitea lub słowo BERGMITE.

Naciśnij spację by rozpocząć zadanie",target3,stimuli/t3.jpg,7,10,stimuli/blank.jpg,blank,False,None,,,,,,,,,,,,,,0,0,0,0,,,,,0,1,1,2,0,9,9,9,,,,,,,,,,,,,,,,,,,,,,,,,,,,,,,,,,,,,,,,,,,,,,,,,,,,,CS1_USneg,None,1,,,,,,,,,,,,,,,,,,23,m,7,n,2019_Nov_24_1109,ec_RRR,3.0.4,59.98933569568806,
Balas and Sarzynnska,"Dla tego zadania, docelową postacią jest Bergmite:","Więc gdy tylko Bergmite (jego imię lub jego podobizna) pojawi się na ekranie, naciśnij spację tak szybko jak to możliwe. Uderz w spację gdy tylko zobaczysz podobiznę Bergmitea lub słowo BERGMITE.

Naciśnij spację by rozpocząć zadanie",target3,stimuli/t3.jpg,7,11,stimuli/cs1_neg17.jpg,CSUS,False,None,,,,,,,,,,,,,,0,0,0,0,,,,,0,1,1,2,0,10,10,10,,,,,,,,,,,,,,,,,,,,,,,,,,,,,,,,,,,,,,,,,,,,,,,,,,,,,CS1_USneg,None,1,,,,,,,,,,,,,,,,,,23,m,7,n,2019_Nov_24_1109,ec_RRR,3.0.4,59.98933569568806,
Balas and Sarzynnska,"Dla tego zadania, docelową postacią jest Bergmite:","Więc gdy tylko Bergmite (jego imię lub jego podobizna) pojawi się na ekranie, naciśnij spację tak szybko jak to możliwe. Uderz w spację gdy tylko zobaczysz podobiznę Bergmitea lub słowo BERGMITE.

Naciśnij spację by rozpocząć zadanie",target3,stimuli/t3.jpg,7,12,stimuli/blank.jpg,blank,False,None,,,,,,,,,,,,,,0,0,0,0,,,,,0,1,1,2,0,11,11,11,,,,,,,,,,,,,,,,,,,,,,,,,,,,,,,,,,,,,,,,,,,,,,,,,,,,,CS1_USneg,None,1,,,,,,,,,,,,,,,,,,23,m,7,n,2019_Nov_24_1109,ec_RRR,3.0.4,59.98933569568806,
Balas and Sarzynnska,"Dla tego zadania, docelową postacią jest Bergmite:","Więc gdy tylko Bergmite (jego imię lub jego podobizna) pojawi się na ekranie, naciśnij spację tak szybko jak to możliwe. Uderz w spację gdy tylko zobaczysz podobiznę Bergmitea lub słowo BERGMITE.

Naciśnij spację by rozpocząć zadanie",target3,stimuli/t3.jpg,7,13,stimuli/filler29.jpg,filler,False,None,,,,,,,,,,,,,,0,0,0,0,,,,,0,1,1,2,0,12,12,12,,,,,,,,,,,,,,,,,,,,,,,,,,,,,,,,,,,,,,,,,,,,,,,,,,,,,CS1_USneg,None,1,,,,,,,,,,,,,,,,,,23,m,7,n,2019_Nov_24_1109,ec_RRR,3.0.4,59.98933569568806,
Balas and Sarzynnska,"Dla tego zadania, docelową postacią jest Bergmite:","Więc gdy tylko Bergmite (jego imię lub jego podobizna) pojawi się na ekranie, naciśnij spację tak szybko jak to możliwe. Uderz w spację gdy tylko zobaczysz podobiznę Bergmitea lub słowo BERGMITE.

Naciśnij spację by rozpocząć zadanie",target3,stimuli/t3.jpg,7,14,stimuli/filler50.jpg,filler,False,None,,,,,,,,,,,,,,0,0,0,0,,,,,0,1,1,2,0,13,13,13,,,,,,,,,,,,,,,,,,,,,,,,,,,,,,,,,,,,,,,,,,,,,,,,,,,,,CS1_USneg,None,1,,,,,,,,,,,,,,,,,,23,m,7,n,2019_Nov_24_1109,ec_RRR,3.0.4,59.98933569568806,
Balas and Sarzynnska,"Dla tego zadania, docelową postacią jest Bergmite:","Więc gdy tylko Bergmite (jego imię lub jego podobizna) pojawi się na ekranie, naciśnij spację tak szybko jak to możliwe. Uderz w spację gdy tylko zobaczysz podobiznę Bergmitea lub słowo BERGMITE.

Naciśnij spację by rozpocząć zadanie",target3,stimuli/t3.jpg,7,15,stimuli/filler16.jpg,filler,False,None,,,,,,,,,,,,,,0,0,0,0,,,,,0,1,1,2,0,14,14,14,,,,,,,,,,,,,,,,,,,,,,,,,,,,,,,,,,,,,,,,,,,,,,,,,,,,,CS1_USneg,None,1,,,,,,,,,,,,,,,,,,23,m,7,n,2019_Nov_24_1109,ec_RRR,3.0.4,59.98933569568806,
Balas and Sarzynnska,"Dla tego zadania, docelową postacią jest Bergmite:","Więc gdy tylko Bergmite (jego imię lub jego podobizna) pojawi się na ekranie, naciśnij spację tak szybko jak to możliwe. Uderz w spację gdy tylko zobaczysz podobiznę Bergmitea lub słowo BERGMITE.

Naciśnij spację by rozpocząć zadanie",target3,stimuli/t3.jpg,7,16,stimuli/filler9.jpg,filler,False,None,,,,,,,,,,,,,,0,0,0,0,,,,,0,1,1,2,0,15,15,15,,,,,,,,,,,,,,,,,,,,,,,,,,,,,,,,,,,,,,,,,,,,,,,,,,,,,CS1_USneg,None,1,,,,,,,,,,,,,,,,,,23,m,7,n,2019_Nov_24_1109,ec_RRR,3.0.4,59.98933569568806,
Balas and Sarzynnska,"Dla tego zadania, docelową postacią jest Bergmite:","Więc gdy tylko Bergmite (jego imię lub jego podobizna) pojawi się na ekranie, naciśnij spację tak szybko jak to możliwe. Uderz w spację gdy tylko zobaczysz podobiznę Bergmitea lub słowo BERGMITE.

Naciśnij spację by rozpocząć zadanie",target3,stimuli/t3.jpg,7,17,stimuli/filler36.jpg,filler,False,None,,,,,,,,,,,,,,0,0,0,0,,,,,0,1,1,2,0,16,16,16,,,,,,,,,,,,,,,,,,,,,,,,,,,,,,,,,,,,,,,,,,,,,,,,,,,,,CS1_USneg,None,1,,,,,,,,,,,,,,,,,,23,m,7,n,2019_Nov_24_1109,ec_RRR,3.0.4,59.98933569568806,
Balas and Sarzynnska,"Dla tego zadania, docelową postacią jest Bergmite:","Więc gdy tylko Bergmite (jego imię lub jego podobizna) pojawi się na ekranie, naciśnij spację tak szybko jak to możliwe. Uderz w spację gdy tylko zobaczysz podobiznę Bergmitea lub słowo BERGMITE.

Naciśnij spację by rozpocząć zadanie",target3,stimuli/t3.jpg,7,18,stimuli/filler14.jpg,filler,False,None,,,,,,,,,,,,,,0,0,0,0,,,,,0,1,1,2,0,17,17,17,,,,,,,,,,,,,,,,,,,,,,,,,,,,,,,,,,,,,,,,,,,,,,,,,,,,,CS1_USneg,None,1,,,,,,,,,,,,,,,,,,23,m,7,n,2019_Nov_24_1109,ec_RRR,3.0.4,59.98933569568806,
Balas and Sarzynnska,"Dla tego zadania, docelową postacią jest Bergmite:","Więc gdy tylko Bergmite (jego imię lub jego podobizna) pojawi się na ekranie, naciśnij spację tak szybko jak to możliwe. Uderz w spację gdy tylko zobaczysz podobiznę Bergmitea lub słowo BERGMITE.

Naciśnij spację by rozpocząć zadanie",target3,stimuli/t3.jpg,7,19,stimuli/filler32.jpg,filler,False,None,,,,,,,,,,,,,,0,0,0,0,,,,,0,1,1,2,0,18,18,18,,,,,,,,,,,,,,,,,,,,,,,,,,,,,,,,,,,,,,,,,,,,,,,,,,,,,CS1_USneg,None,1,,,,,,,,,,,,,,,,,,23,m,7,n,2019_Nov_24_1109,ec_RRR,3.0.4,59.98933569568806,
Balas and Sarzynnska,"Dla tego zadania, docelową postacią jest Bergmite:","Więc gdy tylko Bergmite (jego imię lub jego podobizna) pojawi się na ekranie, naciśnij spację tak szybko jak to możliwe. Uderz w spację gdy tylko zobaczysz podobiznę Bergmitea lub słowo BERGMITE.

Naciśnij spację by rozpocząć zadanie",target3,stimuli/t3.jpg,7,20,stimuli/blank.jpg,blank,False,None,,,,,,,,,,,,,,0,0,0,0,,,,,0,1,1,2,0,19,19,19,,,,,,,,,,,,,,,,,,,,,,,,,,,,,,,,,,,,,,,,,,,,,,,,,,,,,CS1_USneg,None,1,,,,,,,,,,,,,,,,,,23,m,7,n,2019_Nov_24_1109,ec_RRR,3.0.4,59.98933569568806,
Balas and Sarzynnska,"Dla tego zadania, docelową postacią jest Bergmite:","Więc gdy tylko Bergmite (jego imię lub jego podobizna) pojawi się na ekranie, naciśnij spację tak szybko jak to możliwe. Uderz w spację gdy tylko zobaczysz podobiznę Bergmitea lub słowo BERGMITE.

Naciśnij spację by rozpocząć zadanie",target3,stimuli/t3.jpg,7,21,stimuli/cs2_pos14.jpg,CSUS,False,None,,,,,,,,,,,,,,0,0,0,0,,,,,0,1,1,2,0,20,20,20,,,,,,,,,,,,,,,,,,,,,,,,,,,,,,,,,,,,,,,,,,,,,,,,,,,,,CS1_USneg,None,1,,,,,,,,,,,,,,,,,,23,m,7,n,2019_Nov_24_1109,ec_RRR,3.0.4,59.98933569568806,
Balas and Sarzynnska,"Dla tego zadania, docelową postacią jest Bergmite:","Więc gdy tylko Bergmite (jego imię lub jego podobizna) pojawi się na ekranie, naciśnij spację tak szybko jak to możliwe. Uderz w spację gdy tylko zobaczysz podobiznę Bergmitea lub słowo BERGMITE.

Naciśnij spację by rozpocząć zadanie",target3,stimuli/t3.jpg,7,22,stimuli/blank.jpg,blank,False,None,,,,,,,,,,,,,,0,0,0,0,,,,,0,1,1,2,0,21,21,21,,,,,,,,,,,,,,,,,,,,,,,,,,,,,,,,,,,,,,,,,,,,,,,,,,,,,CS1_USneg,None,1,,,,,,,,,,,,,,,,,,23,m,7,n,2019_Nov_24_1109,ec_RRR,3.0.4,59.98933569568806,
Balas and Sarzynnska,"Dla tego zadania, docelową postacią jest Bergmite:","Więc gdy tylko Bergmite (jego imię lub jego podobizna) pojawi się na ekranie, naciśnij spację tak szybko jak to możliwe. Uderz w spację gdy tylko zobaczysz podobiznę Bergmitea lub słowo BERGMITE.

Naciśnij spację by rozpocząć zadanie",target3,stimuli/t3.jpg,7,23,stimuli/target3_8.jpg,target,True,space,,,,,,,,,,,,,,0,0,0,0,,,,,0,1,1,2,0,22,22,22,,,,,,,,,,,,,,,,,,,,,,,,,,,,,,,,,,,,,,,,,,,,,,,,,,,,,CS1_USneg,space,1,0.5354632789967582,,,,,,,,,,,,,,,,,23,m,7,n,2019_Nov_24_1109,ec_RRR,3.0.4,59.98933569568806,
Balas and Sarzynnska,"Dla tego zadania, docelową postacią jest Bergmite:","Więc gdy tylko Bergmite (jego imię lub jego podobizna) pojawi się na ekranie, naciśnij spację tak szybko jak to możliwe. Uderz w spację gdy tylko zobaczysz podobiznę Bergmitea lub słowo BERGMITE.

Naciśnij spację by rozpocząć zadanie",target3,stimuli/t3.jpg,7,24,stimuli/target3_9.jpg,target,True,space,,,,,,,,,,,,,,0,0,0,0,,,,,0,1,1,2,0,23,23,23,,,,,,,,,,,,,,,,,,,,,,,,,,,,,,,,,,,,,,,,,,,,,,,,,,,,,CS1_USneg,space,1,0.5020985709998058,,,,,,,,,,,,,,,,,23,m,7,n,2019_Nov_24_1109,ec_RRR,3.0.4,59.98933569568806,
Balas and Sarzynnska,"Dla tego zadania, docelową postacią jest Bergmite:","Więc gdy tylko Bergmite (jego imię lub jego podobizna) pojawi się na ekranie, naciśnij spację tak szybko jak to możliwe. Uderz w spację gdy tylko zobaczysz podobiznę Bergmitea lub słowo BERGMITE.

Naciśnij spację by rozpocząć zadanie",target3,stimuli/t3.jpg,7,25,stimuli/filler30.jpg,filler,False,None,,,,,,,,,,,,,,0,0,0,0,,,,,0,1,1,2,0,24,24,24,,,,,,,,,,,,,,,,,,,,,,,,,,,,,,,,,,,,,,,,,,,,,,,,,,,,,CS1_USneg,None,1,,,,,,,,,,,,,,,,,,23,m,7,n,2019_Nov_24_1109,ec_RRR,3.0.4,59.98933569568806,
Balas and Sarzynnska,"Dla tego zadania, docelową postacią jest Bergmite:","Więc gdy tylko Bergmite (jego imię lub jego podobizna) pojawi się na ekranie, naciśnij spację tak szybko jak to możliwe. Uderz w spację gdy tylko zobaczysz podobiznę Bergmitea lub słowo BERGMITE.

Naciśnij spację by rozpocząć zadanie",target3,stimuli/t3.jpg,7,26,stimuli/filler21.jpg,filler,False,None,,,,,,,,,,,,,,0,0,0,0,,,,,0,1,1,2,0,25,25,25,,,,,,,,,,,,,,,,,,,,,,,,,,,,,,,,,,,,,,,,,,,,,,,,,,,,,CS1_USneg,None,1,,,,,,,,,,,,,,,,,,23,m,7,n,2019_Nov_24_1109,ec_RRR,3.0.4,59.98933569568806,
Balas and Sarzynnska,"Dla tego zadania, docelową postacią jest Bergmite:","Więc gdy tylko Bergmite (jego imię lub jego podobizna) pojawi się na ekranie, naciśnij spację tak szybko jak to możliwe. Uderz w spację gdy tylko zobaczysz podobiznę Bergmitea lub słowo BERGMITE.

Naciśnij spację by rozpocząć zadanie",target3,stimuli/t3.jpg,7,27,stimuli/filler13.jpg,filler,False,None,,,,,,,,,,,,,,0,0,0,0,,,,,0,1,1,2,0,26,26,26,,,,,,,,,,,,,,,,,,,,,,,,,,,,,,,,,,,,,,,,,,,,,,,,,,,,,CS1_USneg,None,1,,,,,,,,,,,,,,,,,,23,m,7,n,2019_Nov_24_1109,ec_RRR,3.0.4,59.98933569568806,
Balas and Sarzynnska,"Dla tego zadania, docelową postacią jest Bergmite:","Więc gdy tylko Bergmite (jego imię lub jego podobizna) pojawi się na ekranie, naciśnij spację tak szybko jak to możliwe. Uderz w spację gdy tylko zobaczysz podobiznę Bergmitea lub słowo BERGMITE.

Naciśnij spację by rozpocząć zadanie",target3,stimuli/t3.jpg,7,28,stimuli/filler31.jpg,filler,False,None,,,,,,,,,,,,,,0,0,0,0,,,,,0,1,1,2,0,27,27,27,,,,,,,,,,,,,,,,,,,,,,,,,,,,,,,,,,,,,,,,,,,,,,,,,,,,,CS1_USneg,None,1,,,,,,,,,,,,,,,,,,23,m,7,n,2019_Nov_24_1109,ec_RRR,3.0.4,59.98933569568806,
Balas and Sarzynnska,"Dla tego zadania, docelową postacią jest Bergmite:","Więc gdy tylko Bergmite (jego imię lub jego podobizna) pojawi się na ekranie, naciśnij spację tak szybko jak to możliwe. Uderz w spację gdy tylko zobaczysz podobiznę Bergmitea lub słowo BERGMITE.

Naciśnij spację by rozpocząć zadanie",target3,stimuli/t3.jpg,7,29,stimuli/filler1.jpg,filler,False,None,,,,,,,,,,,,,,0,0,0,0,,,,,0,1,1,2,0,28,28,28,,,,,,,,,,,,,,,,,,,,,,,,,,,,,,,,,,,,,,,,,,,,,,,,,,,,,CS1_USneg,None,1,,,,,,,,,,,,,,,,,,23,m,7,n,2019_Nov_24_1109,ec_RRR,3.0.4,59.98933569568806,
Balas and Sarzynnska,"Dla tego zadania, docelową postacią jest Bergmite:","Więc gdy tylko Bergmite (jego imię lub jego podobizna) pojawi się na ekranie, naciśnij spację tak szybko jak to możliwe. Uderz w spację gdy tylko zobaczysz podobiznę Bergmitea lub słowo BERGMITE.

Naciśnij spację by rozpocząć zadanie",target3,stimuli/t3.jpg,7,30,stimuli/blank.jpg,blank,False,None,,,,,,,,,,,,,,0,0,0,0,,,,,0,1,1,2,0,29,29,29,,,,,,,,,,,,,,,,,,,,,,,,,,,,,,,,,,,,,,,,,,,,,,,,,,,,,CS1_USneg,None,1,,,,,,,,,,,,,,,,,,23,m,7,n,2019_Nov_24_1109,ec_RRR,3.0.4,59.98933569568806,
Balas and Sarzynnska,"Dla tego zadania, docelową postacią jest Bergmite:","Więc gdy tylko Bergmite (jego imię lub jego podobizna) pojawi się na ekranie, naciśnij spację tak szybko jak to możliwe. Uderz w spację gdy tylko zobaczysz podobiznę Bergmitea lub słowo BERGMITE.

Naciśnij spację by rozpocząć zadanie",target3,stimuli/t3.jpg,7,31,stimuli/cs1_neg10.jpg,CSUS,False,None,,,,,,,,,,,,,,0,0,0,0,,,,,0,1,1,2,0,30,30,30,,,,,,,,,,,,,,,,,,,,,,,,,,,,,,,,,,,,,,,,,,,,,,,,,,,,,CS1_USneg,None,1,,,,,,,,,,,,,,,,,,23,m,7,n,2019_Nov_24_1109,ec_RRR,3.0.4,59.98933569568806,
Balas and Sarzynnska,"Dla tego zadania, docelową postacią jest Bergmite:","Więc gdy tylko Bergmite (jego imię lub jego podobizna) pojawi się na ekranie, naciśnij spację tak szybko jak to możliwe. Uderz w spację gdy tylko zobaczysz podobiznę Bergmitea lub słowo BERGMITE.

Naciśnij spację by rozpocząć zadanie",target3,stimuli/t3.jpg,7,32,stimuli/blank.jpg,blank,False,None,,,,,,,,,,,,,,0,0,0,0,,,,,0,1,1,2,0,31,31,31,,,,,,,,,,,,,,,,,,,,,,,,,,,,,,,,,,,,,,,,,,,,,,,,,,,,,CS1_USneg,None,1,,,,,,,,,,,,,,,,,,23,m,7,n,2019_Nov_24_1109,ec_RRR,3.0.4,59.98933569568806,
Balas and Sarzynnska,"Dla tego zadania, docelową postacią jest Bergmite:","Więc gdy tylko Bergmite (jego imię lub jego podobizna) pojawi się na ekranie, naciśnij spację tak szybko jak to możliwe. Uderz w spację gdy tylko zobaczysz podobiznę Bergmitea lub słowo BERGMITE.

Naciśnij spację by rozpocząć zadanie",target3,stimuli/t3.jpg,7,33,stimuli/filler20.jpg,filler,False,None,,,,,,,,,,,,,,0,0,0,0,,,,,0,1,1,2,0,32,32,32,,,,,,,,,,,,,,,,,,,,,,,,,,,,,,,,,,,,,,,,,,,,,,,,,,,,,CS1_USneg,None,1,,,,,,,,,,,,,,,,,,23,m,7,n,2019_Nov_24_1109,ec_RRR,3.0.4,59.98933569568806,
Balas and Sarzynnska,"Dla tego zadania, docelową postacią jest Bergmite:","Więc gdy tylko Bergmite (jego imię lub jego podobizna) pojawi się na ekranie, naciśnij spację tak szybko jak to możliwe. Uderz w spację gdy tylko zobaczysz podobiznę Bergmitea lub słowo BERGMITE.

Naciśnij spację by rozpocząć zadanie",target3,stimuli/t3.jpg,7,34,stimuli/target3_4.jpg,target,True,space,,,,,,,,,,,,,,0,0,0,0,,,,,0,1,1,2,0,33,33,33,,,,,,,,,,,,,,,,,,,,,,,,,,,,,,,,,,,,,,,,,,,,,,,,,,,,,CS1_USneg,space,1,0.5174866800007294,,,,,,,,,,,,,,,,,23,m,7,n,2019_Nov_24_1109,ec_RRR,3.0.4,59.98933569568806,
Balas and Sarzynnska,"Dla tego zadania, docelową postacią jest Bergmite:","Więc gdy tylko Bergmite (jego imię lub jego podobizna) pojawi się na ekranie, naciśnij spację tak szybko jak to możliwe. Uderz w spację gdy tylko zobaczysz podobiznę Bergmitea lub słowo BERGMITE.

Naciśnij spację by rozpocząć zadanie",target3,stimuli/t3.jpg,7,35,stimuli/target3_2.jpg,target,True,space,,,,,,,,,,,,,,0,0,0,0,,,,,0,1,1,2,0,34,34,34,,,,,,,,,,,,,,,,,,,,,,,,,,,,,,,,,,,,,,,,,,,,,,,,,,,,,CS1_USneg,space,1,0.5684977560013067,,,,,,,,,,,,,,,,,23,m,7,n,2019_Nov_24_1109,ec_RRR,3.0.4,59.98933569568806,
Balas and Sarzynnska,"Dla tego zadania, docelową postacią jest Bergmite:","Więc gdy tylko Bergmite (jego imię lub jego podobizna) pojawi się na ekranie, naciśnij spację tak szybko jak to możliwe. Uderz w spację gdy tylko zobaczysz podobiznę Bergmitea lub słowo BERGMITE.

Naciśnij spację by rozpocząć zadanie",target3,stimuli/t3.jpg,7,36,stimuli/filler42.jpg,filler,False,None,,,,,,,,,,,,,,0,0,0,0,,,,,0,1,1,2,0,35,35,35,,,,,,,,,,,,,,,,,,,,,,,,,,,,,,,,,,,,,,,,,,,,,,,,,,,,,CS1_USneg,None,1,,,,,,,,,,,,,,,,,,23,m,7,n,2019_Nov_24_1109,ec_RRR,3.0.4,59.98933569568806,
Balas and Sarzynnska,"Dla tego zadania, docelową postacią jest Bergmite:","Więc gdy tylko Bergmite (jego imię lub jego podobizna) pojawi się na ekranie, naciśnij spację tak szybko jak to możliwe. Uderz w spację gdy tylko zobaczysz podobiznę Bergmitea lub słowo BERGMITE.

Naciśnij spację by rozpocząć zadanie",target3,stimuli/t3.jpg,7,37,stimuli/filler43.jpg,filler,False,None,,,,,,,,,,,,,,0,0,0,0,,,,,0,1,1,2,0,36,36,36,,,,,,,,,,,,,,,,,,,,,,,,,,,,,,,,,,,,,,,,,,,,,,,,,,,,,CS1_USneg,None,1,,,,,,,,,,,,,,,,,,23,m,7,n,2019_Nov_24_1109,ec_RRR,3.0.4,59.98933569568806,
Balas and Sarzynnska,"Dla tego zadania, docelową postacią jest Bergmite:","Więc gdy tylko Bergmite (jego imię lub jego podobizna) pojawi się na ekranie, naciśnij spację tak szybko jak to możliwe. Uderz w spację gdy tylko zobaczysz podobiznę Bergmitea lub słowo BERGMITE.

Naciśnij spację by rozpocząć zadanie",target3,stimuli/t3.jpg,7,38,stimuli/target3_6.jpg,target,True,space,,,,,,,,,,,,,,0,0,0,0,,,,,0,1,1,2,0,37,37,37,,,,,,,,,,,,,,,,,,,,,,,,,,,,,,,,,,,,,,,,,,,,,,,,,,,,,CS1_USneg,space,1,0.8173378819992649,,,,,,,,,,,,,,,,,23,m,7,n,2019_Nov_24_1109,ec_RRR,3.0.4,59.98933569568806,
Balas and Sarzynnska,"Dla tego zadania, docelową postacią jest Bergmite:","Więc gdy tylko Bergmite (jego imię lub jego podobizna) pojawi się na ekranie, naciśnij spację tak szybko jak to możliwe. Uderz w spację gdy tylko zobaczysz podobiznę Bergmitea lub słowo BERGMITE.

Naciśnij spację by rozpocząć zadanie",target3,stimuli/t3.jpg,7,39,stimuli/filler19.jpg,filler,False,None,,,,,,,,,,,,,,0,0,0,0,,,,,0,1,1,2,0,38,38,38,,,,,,,,,,,,,,,,,,,,,,,,,,,,,,,,,,,,,,,,,,,,,,,,,,,,,CS1_USneg,None,1,,,,,,,,,,,,,,,,,,23,m,7,n,2019_Nov_24_1109,ec_RRR,3.0.4,59.98933569568806,
Balas and Sarzynnska,"Dla tego zadania, docelową postacią jest Bergmite:","Więc gdy tylko Bergmite (jego imię lub jego podobizna) pojawi się na ekranie, naciśnij spację tak szybko jak to możliwe. Uderz w spację gdy tylko zobaczysz podobiznę Bergmitea lub słowo BERGMITE.

Naciśnij spację by rozpocząć zadanie",target3,stimuli/t3.jpg,7,40,stimuli/blank.jpg,blank,False,None,,,,,,,,,,,,,,0,0,0,0,,,,,0,1,1,2,0,39,39,39,,,,,,,,,,,,,,,,,,,,,,,,,,,,,,,,,,,,,,,,,,,,,,,,,,,,,CS1_USneg,None,1,,,,,,,,,,,,,,,,,,23,m,7,n,2019_Nov_24_1109,ec_RRR,3.0.4,59.98933569568806,
Balas and Sarzynnska,"Dla tego zadania, docelową postacią jest Bergmite:","Więc gdy tylko Bergmite (jego imię lub jego podobizna) pojawi się na ekranie, naciśnij spację tak szybko jak to możliwe. Uderz w spację gdy tylko zobaczysz podobiznę Bergmitea lub słowo BERGMITE.

Naciśnij spację by rozpocząć zadanie",target3,stimuli/t3.jpg,7,41,stimuli/cs2_pos18.jpg,CSUS,False,None,,,,,,,,,,,,,,0,0,0,0,,,,,0,1,1,2,0,40,40,40,,,,,,,,,,,,,,,,,,,,,,,,,,,,,,,,,,,,,,,,,,,,,,,,,,,,,CS1_USneg,None,1,,,,,,,,,,,,,,,,,,23,m,7,n,2019_Nov_24_1109,ec_RRR,3.0.4,59.98933569568806,
Balas and Sarzynnska,"Dla tego zadania, docelową postacią jest Bergmite:","Więc gdy tylko Bergmite (jego imię lub jego podobizna) pojawi się na ekranie, naciśnij spację tak szybko jak to możliwe. Uderz w spację gdy tylko zobaczysz podobiznę Bergmitea lub słowo BERGMITE.

Naciśnij spację by rozpocząć zadanie",target3,stimuli/t3.jpg,7,42,stimuli/blank.jpg,blank,False,None,,,,,,,,,,,,,,0,0,0,0,,,,,0,1,1,2,0,41,41,41,,,,,,,,,,,,,,,,,,,,,,,,,,,,,,,,,,,,,,,,,,,,,,,,,,,,,CS1_USneg,None,1,,,,,,,,,,,,,,,,,,23,m,7,n,2019_Nov_24_1109,ec_RRR,3.0.4,59.98933569568806,
Balas and Sarzynnska,"Dla tego zadania, docelową postacią jest Bergmite:","Więc gdy tylko Bergmite (jego imię lub jego podobizna) pojawi się na ekranie, naciśnij spację tak szybko jak to możliwe. Uderz w spację gdy tylko zobaczysz podobiznę Bergmitea lub słowo BERGMITE.

Naciśnij spację by rozpocząć zadanie",target3,stimuli/t3.jpg,7,43,stimuli/filler3.jpg,filler,False,None,,,,,,,,,,,,,,0,0,0,0,,,,,0,1,1,2,0,42,42,42,,,,,,,,,,,,,,,,,,,,,,,,,,,,,,,,,,,,,,,,,,,,,,,,,,,,,CS1_USneg,None,1,,,,,,,,,,,,,,,,,,23,m,7,n,2019_Nov_24_1109,ec_RRR,3.0.4,59.98933569568806,
Balas and Sarzynnska,"Dla tego zadania, docelową postacią jest Bergmite:","Więc gdy tylko Bergmite (jego imię lub jego podobizna) pojawi się na ekranie, naciśnij spację tak szybko jak to możliwe. Uderz w spację gdy tylko zobaczysz podobiznę Bergmitea lub słowo BERGMITE.

Naciśnij spację by rozpocząć zadanie",target3,stimuli/t3.jpg,7,44,stimuli/filler15.jpg,filler,False,None,,,,,,,,,,,,,,0,0,0,0,,,,,0,1,1,2,0,43,43,43,,,,,,,,,,,,,,,,,,,,,,,,,,,,,,,,,,,,,,,,,,,,,,,,,,,,,CS1_USneg,None,1,,,,,,,,,,,,,,,,,,23,m,7,n,2019_Nov_24_1109,ec_RRR,3.0.4,59.98933569568806,
Balas and Sarzynnska,"Dla tego zadania, docelową postacią jest Bergmite:","Więc gdy tylko Bergmite (jego imię lub jego podobizna) pojawi się na ekranie, naciśnij spację tak szybko jak to możliwe. Uderz w spację gdy tylko zobaczysz podobiznę Bergmitea lub słowo BERGMITE.

Naciśnij spację by rozpocząć zadanie",target3,stimuli/t3.jpg,7,45,stimuli/filler44.jpg,filler,False,None,,,,,,,,,,,,,,0,0,0,0,,,,,0,1,1,2,0,44,44,44,,,,,,,,,,,,,,,,,,,,,,,,,,,,,,,,,,,,,,,,,,,,,,,,,,,,,CS1_USneg,None,1,,,,,,,,,,,,,,,,,,23,m,7,n,2019_Nov_24_1109,ec_RRR,3.0.4,59.98933569568806,
Balas and Sarzynnska,"Dla tego zadania, docelową postacią jest Bergmite:","Więc gdy tylko Bergmite (jego imię lub jego podobizna) pojawi się na ekranie, naciśnij spację tak szybko jak to możliwe. Uderz w spację gdy tylko zobaczysz podobiznę Bergmitea lub słowo BERGMITE.

Naciśnij spację by rozpocząć zadanie",target3,stimuli/t3.jpg,7,46,stimuli/filler39.jpg,filler,False,None,,,,,,,,,,,,,,0,0,0,0,,,,,0,1,1,2,0,45,45,45,,,,,,,,,,,,,,,,,,,,,,,,,,,,,,,,,,,,,,,,,,,,,,,,,,,,,CS1_USneg,None,1,,,,,,,,,,,,,,,,,,23,m,7,n,2019_Nov_24_1109,ec_RRR,3.0.4,59.98933569568806,
Balas and Sarzynnska,"Dla tego zadania, docelową postacią jest Bergmite:","Więc gdy tylko Bergmite (jego imię lub jego podobizna) pojawi się na ekranie, naciśnij spację tak szybko jak to możliwe. Uderz w spację gdy tylko zobaczysz podobiznę Bergmitea lub słowo BERGMITE.

Naciśnij spację by rozpocząć zadanie",target3,stimuli/t3.jpg,7,47,stimuli/filler34.jpg,filler,False,None,,,,,,,,,,,,,,0,0,0,0,,,,,0,1,1,2,0,46,46,46,,,,,,,,,,,,,,,,,,,,,,,,,,,,,,,,,,,,,,,,,,,,,,,,,,,,,CS1_USneg,None,1,,,,,,,,,,,,,,,,,,23,m,7,n,2019_Nov_24_1109,ec_RRR,3.0.4,59.98933569568806,
Balas and Sarzynnska,"Dla tego zadania, docelową postacią jest Bergmite:","Więc gdy tylko Bergmite (jego imię lub jego podobizna) pojawi się na ekranie, naciśnij spację tak szybko jak to możliwe. Uderz w spację gdy tylko zobaczysz podobiznę Bergmitea lub słowo BERGMITE.

Naciśnij spację by rozpocząć zadanie",target3,stimuli/t3.jpg,7,48,stimuli/filler4.jpg,filler,False,None,,,,,,,,,,,,,,0,0,0,0,,,,,0,1,1,2,0,47,47,47,,,,,,,,,,,,,,,,,,,,,,,,,,,,,,,,,,,,,,,,,,,,,,,,,,,,,CS1_USneg,None,1,,,,,,,,,,,,,,,,,,23,m,7,n,2019_Nov_24_1109,ec_RRR,3.0.4,59.98933569568806,
Balas and Sarzynnska,"Dla tego zadania, docelową postacią jest Bergmite:","Więc gdy tylko Bergmite (jego imię lub jego podobizna) pojawi się na ekranie, naciśnij spację tak szybko jak to możliwe. Uderz w spację gdy tylko zobaczysz podobiznę Bergmitea lub słowo BERGMITE.

Naciśnij spację by rozpocząć zadanie",target3,stimuli/t3.jpg,7,49,stimuli/filler26.jpg,filler,False,None,,,,,,,,,,,,,,0,0,0,0,,,,,0,1,1,2,0,48,48,48,,,,,,,,,,,,,,,,,,,,,,,,,,,,,,,,,,,,,,,,,,,,,,,,,,,,,CS1_USneg,None,1,,,,,,,,,,,,,,,,,,23,m,7,n,2019_Nov_24_1109,ec_RRR,3.0.4,59.98933569568806,
Balas and Sarzynnska,"Dla tego zadania, docelową postacią jest Bergmite:","Więc gdy tylko Bergmite (jego imię lub jego podobizna) pojawi się na ekranie, naciśnij spację tak szybko jak to możliwe. Uderz w spację gdy tylko zobaczysz podobiznę Bergmitea lub słowo BERGMITE.

Naciśnij spację by rozpocząć zadanie",target3,stimuli/t3.jpg,7,50,stimuli/blank.jpg,blank,False,None,,,,,,,,,,,,,,0,0,0,0,,,,,0,1,1,2,0,49,49,49,,,,,,,,,,,,,,,,,,,,,,,,,,,,,,,,,,,,,,,,,,,,,,,,,,,,,CS1_USneg,None,1,,,,,,,,,,,,,,,,,,23,m,7,n,2019_Nov_24_1109,ec_RRR,3.0.4,59.98933569568806,
Balas and Sarzynnska,"Dla tego zadania, docelową postacią jest Bergmite:","Więc gdy tylko Bergmite (jego imię lub jego podobizna) pojawi się na ekranie, naciśnij spację tak szybko jak to możliwe. Uderz w spację gdy tylko zobaczysz podobiznę Bergmitea lub słowo BERGMITE.

Naciśnij spację by rozpocząć zadanie",target3,stimuli/t3.jpg,7,51,stimuli/cs1_neg12.jpg,CSUS,False,None,,,,,,,,,,,,,,0,0,0,0,,,,,0,1,1,2,0,50,50,50,,,,,,,,,,,,,,,,,,,,,,,,,,,,,,,,,,,,,,,,,,,,,,,,,,,,,CS1_USneg,None,1,,,,,,,,,,,,,,,,,,23,m,7,n,2019_Nov_24_1109,ec_RRR,3.0.4,59.98933569568806,
Balas and Sarzynnska,"Dla tego zadania, docelową postacią jest Bergmite:","Więc gdy tylko Bergmite (jego imię lub jego podobizna) pojawi się na ekranie, naciśnij spację tak szybko jak to możliwe. Uderz w spację gdy tylko zobaczysz podobiznę Bergmitea lub słowo BERGMITE.

Naciśnij spację by rozpocząć zadanie",target3,stimuli/t3.jpg,7,52,stimuli/blank.jpg,blank,False,None,,,,,,,,,,,,,,0,0,0,0,,,,,0,1,1,2,0,51,51,51,,,,,,,,,,,,,,,,,,,,,,,,,,,,,,,,,,,,,,,,,,,,,,,,,,,,,CS1_USneg,None,1,,,,,,,,,,,,,,,,,,23,m,7,n,2019_Nov_24_1109,ec_RRR,3.0.4,59.98933569568806,
Balas and Sarzynnska,"Dla tego zadania, docelową postacią jest Bergmite:","Więc gdy tylko Bergmite (jego imię lub jego podobizna) pojawi się na ekranie, naciśnij spację tak szybko jak to możliwe. Uderz w spację gdy tylko zobaczysz podobiznę Bergmitea lub słowo BERGMITE.

Naciśnij spację by rozpocząć zadanie",target3,stimuli/t3.jpg,7,53,stimuli/filler46.jpg,filler,False,None,,,,,,,,,,,,,,0,0,0,0,,,,,0,1,1,2,0,52,52,52,,,,,,,,,,,,,,,,,,,,,,,,,,,,,,,,,,,,,,,,,,,,,,,,,,,,,CS1_USneg,None,1,,,,,,,,,,,,,,,,,,23,m,7,n,2019_Nov_24_1109,ec_RRR,3.0.4,59.98933569568806,
Balas and Sarzynnska,"Dla tego zadania, docelową postacią jest Bergmite:","Więc gdy tylko Bergmite (jego imię lub jego podobizna) pojawi się na ekranie, naciśnij spację tak szybko jak to możliwe. Uderz w spację gdy tylko zobaczysz podobiznę Bergmitea lub słowo BERGMITE.

Naciśnij spację by rozpocząć zadanie",target3,stimuli/t3.jpg,7,54,stimuli/filler45.jpg,filler,False,None,,,,,,,,,,,,,,0,0,0,0,,,,,0,1,1,2,0,53,53,53,,,,,,,,,,,,,,,,,,,,,,,,,,,,,,,,,,,,,,,,,,,,,,,,,,,,,CS1_USneg,None,1,,,,,,,,,,,,,,,,,,23,m,7,n,2019_Nov_24_1109,ec_RRR,3.0.4,59.98933569568806,
Balas and Sarzynnska,"Dla tego zadania, docelową postacią jest Bergmite:","Więc gdy tylko Bergmite (jego imię lub jego podobizna) pojawi się na ekranie, naciśnij spację tak szybko jak to możliwe. Uderz w spację gdy tylko zobaczysz podobiznę Bergmitea lub słowo BERGMITE.

Naciśnij spację by rozpocząć zadanie",target3,stimuli/t3.jpg,7,55,stimuli/filler18.jpg,filler,False,None,,,,,,,,,,,,,,0,0,0,0,,,,,0,1,1,2,0,54,54,54,,,,,,,,,,,,,,,,,,,,,,,,,,,,,,,,,,,,,,,,,,,,,,,,,,,,,CS1_USneg,None,1,,,,,,,,,,,,,,,,,,23,m,7,n,2019_Nov_24_1109,ec_RRR,3.0.4,59.98933569568806,
Balas and Sarzynnska,"Dla tego zadania, docelową postacią jest Bergmite:","Więc gdy tylko Bergmite (jego imię lub jego podobizna) pojawi się na ekranie, naciśnij spację tak szybko jak to możliwe. Uderz w spację gdy tylko zobaczysz podobiznę Bergmitea lub słowo BERGMITE.

Naciśnij spację by rozpocząć zadanie",target3,stimuli/t3.jpg,7,56,stimuli/target3_1.jpg,target,True,space,,,,,,,,,,,,,,0,0,0,0,,,,,0,1,1,2,0,55,55,55,,,,,,,,,,,,,,,,,,,,,,,,,,,,,,,,,,,,,,,,,,,,,,,,,,,,,CS1_USneg,space,1,0.5853180440026335,,,,,,,,,,,,,,,,,23,m,7,n,2019_Nov_24_1109,ec_RRR,3.0.4,59.98933569568806,
Balas and Sarzynnska,"Dla tego zadania, docelową postacią jest Bergmite:","Więc gdy tylko Bergmite (jego imię lub jego podobizna) pojawi się na ekranie, naciśnij spację tak szybko jak to możliwe. Uderz w spację gdy tylko zobaczysz podobiznę Bergmitea lub słowo BERGMITE.

Naciśnij spację by rozpocząć zadanie",target3,stimuli/t3.jpg,7,57,stimuli/filler48.jpg,filler,False,None,,,,,,,,,,,,,,0,0,0,0,,,,,0,1,1,2,0,56,56,56,,,,,,,,,,,,,,,,,,,,,,,,,,,,,,,,,,,,,,,,,,,,,,,,,,,,,CS1_USneg,None,1,,,,,,,,,,,,,,,,,,23,m,7,n,2019_Nov_24_1109,ec_RRR,3.0.4,59.98933569568806,
Balas and Sarzynnska,"Dla tego zadania, docelową postacią jest Bergmite:","Więc gdy tylko Bergmite (jego imię lub jego podobizna) pojawi się na ekranie, naciśnij spację tak szybko jak to możliwe. Uderz w spację gdy tylko zobaczysz podobiznę Bergmitea lub słowo BERGMITE.

Naciśnij spację by rozpocząć zadanie",target3,stimuli/t3.jpg,7,58,stimuli/filler23.jpg,filler,False,None,,,,,,,,,,,,,,0,0,0,0,,,,,0,1,1,2,0,57,57,57,,,,,,,,,,,,,,,,,,,,,,,,,,,,,,,,,,,,,,,,,,,,,,,,,,,,,CS1_USneg,None,1,,,,,,,,,,,,,,,,,,23,m,7,n,2019_Nov_24_1109,ec_RRR,3.0.4,59.98933569568806,
Balas and Sarzynnska,"Dla tego zadania, docelową postacią jest Bergmite:","Więc gdy tylko Bergmite (jego imię lub jego podobizna) pojawi się na ekranie, naciśnij spację tak szybko jak to możliwe. Uderz w spację gdy tylko zobaczysz podobiznę Bergmitea lub słowo BERGMITE.

Naciśnij spację by rozpocząć zadanie",target3,stimuli/t3.jpg,7,59,stimuli/filler40.jpg,filler,False,None,,,,,,,,,,,,,,0,0,0,0,,,,,0,1,1,2,0,58,58,58,,,,,,,,,,,,,,,,,,,,,,,,,,,,,,,,,,,,,,,,,,,,,,,,,,,,,CS1_USneg,None,1,,,,,,,,,,,,,,,,,,23,m,7,n,2019_Nov_24_1109,ec_RRR,3.0.4,59.98933569568806,
Balas and Sarzynnska,"Dla tego zadania, docelową postacią jest Bergmite:","Więc gdy tylko Bergmite (jego imię lub jego podobizna) pojawi się na ekranie, naciśnij spację tak szybko jak to możliwe. Uderz w spację gdy tylko zobaczysz podobiznę Bergmitea lub słowo BERGMITE.

Naciśnij spację by rozpocząć zadanie",target3,stimuli/t3.jpg,7,60,stimuli/blank.jpg,blank,False,None,,,,,,,,,,,,,,0,0,0,0,,,,,0,1,1,2,0,59,59,59,,,,,,,,,,,,,,,,,,,,,,,,,,,,,,,,,,,,,,,,,,,,,,,,,,,,,CS1_USneg,None,1,,,,,,,,,,,,,,,,,,23,m,7,n,2019_Nov_24_1109,ec_RRR,3.0.4,59.98933569568806,
Balas and Sarzynnska,"Dla tego zadania, docelową postacią jest Bergmite:","Więc gdy tylko Bergmite (jego imię lub jego podobizna) pojawi się na ekranie, naciśnij spację tak szybko jak to możliwe. Uderz w spację gdy tylko zobaczysz podobiznę Bergmitea lub słowo BERGMITE.

Naciśnij spację by rozpocząć zadanie",target3,stimuli/t3.jpg,7,61,stimuli/cs2_pos15.jpg,CSUS,False,None,,,,,,,,,,,,,,0,0,0,0,,,,,0,1,1,2,0,60,60,60,,,,,,,,,,,,,,,,,,,,,,,,,,,,,,,,,,,,,,,,,,,,,,,,,,,,,CS1_USneg,None,1,,,,,,,,,,,,,,,,,,23,m,7,n,2019_Nov_24_1109,ec_RRR,3.0.4,59.98933569568806,
Balas and Sarzynnska,"Dla tego zadania, docelową postacią jest Bergmite:","Więc gdy tylko Bergmite (jego imię lub jego podobizna) pojawi się na ekranie, naciśnij spację tak szybko jak to możliwe. Uderz w spację gdy tylko zobaczysz podobiznę Bergmitea lub słowo BERGMITE.

Naciśnij spację by rozpocząć zadanie",target3,stimuli/t3.jpg,7,62,stimuli/blank.jpg,blank,False,None,,,,,,,,,,,,,,0,0,0,0,,,,,0,1,1,2,0,61,61,61,,,,,,,,,,,,,,,,,,,,,,,,,,,,,,,,,,,,,,,,,,,,,,,,,,,,,CS1_USneg,None,1,,,,,,,,,,,,,,,,,,23,m,7,n,2019_Nov_24_1109,ec_RRR,3.0.4,59.98933569568806,
Balas and Sarzynnska,"Dla tego zadania, docelową postacią jest Bergmite:","Więc gdy tylko Bergmite (jego imię lub jego podobizna) pojawi się na ekranie, naciśnij spację tak szybko jak to możliwe. Uderz w spację gdy tylko zobaczysz podobiznę Bergmitea lub słowo BERGMITE.

Naciśnij spację by rozpocząć zadanie",target3,stimuli/t3.jpg,7,63,stimuli/filler35.jpg,filler,False,None,,,,,,,,,,,,,,0,0,0,0,,,,,0,1,1,2,0,62,62,62,,,,,,,,,,,,,,,,,,,,,,,,,,,,,,,,,,,,,,,,,,,,,,,,,,,,,CS1_USneg,None,1,,,,,,,,,,,,,,,,,,23,m,7,n,2019_Nov_24_1109,ec_RRR,3.0.4,59.98933569568806,
Balas and Sarzynnska,"Dla tego zadania, docelową postacią jest Bergmite:","Więc gdy tylko Bergmite (jego imię lub jego podobizna) pojawi się na ekranie, naciśnij spację tak szybko jak to możliwe. Uderz w spację gdy tylko zobaczysz podobiznę Bergmitea lub słowo BERGMITE.

Naciśnij spację by rozpocząć zadanie",target3,stimuli/t3.jpg,7,64,stimuli/filler27.jpg,filler,False,None,,,,,,,,,,,,,,0,0,0,0,,,,,0,1,1,2,0,63,63,63,,,,,,,,,,,,,,,,,,,,,,,,,,,,,,,,,,,,,,,,,,,,,,,,,,,,,CS1_USneg,None,1,,,,,,,,,,,,,,,,,,23,m,7,n,2019_Nov_24_1109,ec_RRR,3.0.4,59.98933569568806,
Balas and Sarzynnska,"Dla tego zadania, docelową postacią jest Bergmite:","Więc gdy tylko Bergmite (jego imię lub jego podobizna) pojawi się na ekranie, naciśnij spację tak szybko jak to możliwe. Uderz w spację gdy tylko zobaczysz podobiznę Bergmitea lub słowo BERGMITE.

Naciśnij spację by rozpocząć zadanie",target3,stimuli/t3.jpg,7,65,stimuli/filler28.jpg,filler,False,None,,,,,,,,,,,,,,0,0,0,0,,,,,0,1,1,2,0,64,64,64,,,,,,,,,,,,,,,,,,,,,,,,,,,,,,,,,,,,,,,,,,,,,,,,,,,,,CS1_USneg,None,1,,,,,,,,,,,,,,,,,,23,m,7,n,2019_Nov_24_1109,ec_RRR,3.0.4,59.98933569568806,
Balas and Sarzynnska,"Dla tego zadania, docelową postacią jest Bergmite:","Więc gdy tylko Bergmite (jego imię lub jego podobizna) pojawi się na ekranie, naciśnij spację tak szybko jak to możliwe. Uderz w spację gdy tylko zobaczysz podobiznę Bergmitea lub słowo BERGMITE.

Naciśnij spację by rozpocząć zadanie",target3,stimuli/t3.jpg,7,66,stimuli/filler22.jpg,filler,False,None,,,,,,,,,,,,,,0,0,0,0,,,,,0,1,1,2,0,65,65,65,,,,,,,,,,,,,,,,,,,,,,,,,,,,,,,,,,,,,,,,,,,,,,,,,,,,,CS1_USneg,None,1,,,,,,,,,,,,,,,,,,23,m,7,n,2019_Nov_24_1109,ec_RRR,3.0.4,59.98933569568806,
Balas and Sarzynnska,"Dla tego zadania, docelową postacią jest Bergmite:","Więc gdy tylko Bergmite (jego imię lub jego podobizna) pojawi się na ekranie, naciśnij spację tak szybko jak to możliwe. Uderz w spację gdy tylko zobaczysz podobiznę Bergmitea lub słowo BERGMITE.

Naciśnij spację by rozpocząć zadanie",target3,stimuli/t3.jpg,7,67,stimuli/filler24.jpg,filler,False,None,,,,,,,,,,,,,,0,0,0,0,,,,,0,1,1,2,0,66,66,66,,,,,,,,,,,,,,,,,,,,,,,,,,,,,,,,,,,,,,,,,,,,,,,,,,,,,CS1_USneg,None,1,,,,,,,,,,,,,,,,,,23,m,7,n,2019_Nov_24_1109,ec_RRR,3.0.4,59.98933569568806,
Balas and Sarzynnska,"Dla tego zadania, docelową postacią jest Bergmite:","Więc gdy tylko Bergmite (jego imię lub jego podobizna) pojawi się na ekranie, naciśnij spację tak szybko jak to możliwe. Uderz w spację gdy tylko zobaczysz podobiznę Bergmitea lub słowo BERGMITE.

Naciśnij spację by rozpocząć zadanie",target3,stimuli/t3.jpg,7,68,stimuli/filler25.jpg,filler,False,None,,,,,,,,,,,,,,0,0,0,0,,,,,0,1,1,2,0,67,67,67,,,,,,,,,,,,,,,,,,,,,,,,,,,,,,,,,,,,,,,,,,,,,,,,,,,,,CS1_USneg,None,1,,,,,,,,,,,,,,,,,,23,m,7,n,2019_Nov_24_1109,ec_RRR,3.0.4,59.98933569568806,
Balas and Sarzynnska,"Dla tego zadania, docelową postacią jest Bergmite:","Więc gdy tylko Bergmite (jego imię lub jego podobizna) pojawi się na ekranie, naciśnij spację tak szybko jak to możliwe. Uderz w spację gdy tylko zobaczysz podobiznę Bergmitea lub słowo BERGMITE.

Naciśnij spację by rozpocząć zadanie",target3,stimuli/t3.jpg,7,69,stimuli/filler8.jpg,filler,False,None,,,,,,,,,,,,,,0,0,0,0,,,,,0,1,1,2,0,68,68,68,,,,,,,,,,,,,,,,,,,,,,,,,,,,,,,,,,,,,,,,,,,,,,,,,,,,,CS1_USneg,None,1,,,,,,,,,,,,,,,,,,23,m,7,n,2019_Nov_24_1109,ec_RRR,3.0.4,59.98933569568806,
Balas and Sarzynnska,"Dla tego zadania, docelową postacią jest Bergmite:","Więc gdy tylko Bergmite (jego imię lub jego podobizna) pojawi się na ekranie, naciśnij spację tak szybko jak to możliwe. Uderz w spację gdy tylko zobaczysz podobiznę Bergmitea lub słowo BERGMITE.

Naciśnij spację by rozpocząć zadanie",target3,stimuli/t3.jpg,7,70,stimuli/blank.jpg,blank,False,None,,,,,,,,,,,,,,0,0,0,0,,,,,0,1,1,2,0,69,69,69,,,,,,,,,,,,,,,,,,,,,,,,,,,,,,,,,,,,,,,,,,,,,,,,,,,,,CS1_USneg,None,1,,,,,,,,,,,,,,,,,,23,m,7,n,2019_Nov_24_1109,ec_RRR,3.0.4,59.98933569568806,
Balas and Sarzynnska,"Dla tego zadania, docelową postacią jest Bergmite:","Więc gdy tylko Bergmite (jego imię lub jego podobizna) pojawi się na ekranie, naciśnij spację tak szybko jak to możliwe. Uderz w spację gdy tylko zobaczysz podobiznę Bergmitea lub słowo BERGMITE.

Naciśnij spację by rozpocząć zadanie",target3,stimuli/t3.jpg,7,71,stimuli/cs1_neg4.jpg,CSUS,False,None,,,,,,,,,,,,,,0,0,0,0,,,,,0,1,1,2,0,70,70,70,,,,,,,,,,,,,,,,,,,,,,,,,,,,,,,,,,,,,,,,,,,,,,,,,,,,,CS1_USneg,None,1,,,,,,,,,,,,,,,,,,23,m,7,n,2019_Nov_24_1109,ec_RRR,3.0.4,59.98933569568806,
Balas and Sarzynnska,"Dla tego zadania, docelową postacią jest Bergmite:","Więc gdy tylko Bergmite (jego imię lub jego podobizna) pojawi się na ekranie, naciśnij spację tak szybko jak to możliwe. Uderz w spację gdy tylko zobaczysz podobiznę Bergmitea lub słowo BERGMITE.

Naciśnij spację by rozpocząć zadanie",target3,stimuli/t3.jpg,7,72,stimuli/blank.jpg,blank,False,None,,,,,,,,,,,,,,0,0,0,0,,,,,0,1,1,2,0,71,71,71,,,,,,,,,,,,,,,,,,,,,,,,,,,,,,,,,,,,,,,,,,,,,,,,,,,,,CS1_USneg,None,1,,,,,,,,,,,,,,,,,,23,m,7,n,2019_Nov_24_1109,ec_RRR,3.0.4,59.98933569568806,
Balas and Sarzynnska,"Dla tego zadania, docelową postacią jest Bergmite:","Więc gdy tylko Bergmite (jego imię lub jego podobizna) pojawi się na ekranie, naciśnij spację tak szybko jak to możliwe. Uderz w spację gdy tylko zobaczysz podobiznę Bergmitea lub słowo BERGMITE.

Naciśnij spację by rozpocząć zadanie",target3,stimuli/t3.jpg,7,73,stimuli/filler2.jpg,filler,False,None,,,,,,,,,,,,,,0,0,0,0,,,,,0,1,1,2,0,72,72,72,,,,,,,,,,,,,,,,,,,,,,,,,,,,,,,,,,,,,,,,,,,,,,,,,,,,,CS1_USneg,None,1,,,,,,,,,,,,,,,,,,23,m,7,n,2019_Nov_24_1109,ec_RRR,3.0.4,59.98933569568806,
Balas and Sarzynnska,"Dla tego zadania, docelową postacią jest Bergmite:","Więc gdy tylko Bergmite (jego imię lub jego podobizna) pojawi się na ekranie, naciśnij spację tak szybko jak to możliwe. Uderz w spację gdy tylko zobaczysz podobiznę Bergmitea lub słowo BERGMITE.

Naciśnij spację by rozpocząć zadanie",target3,stimuli/t3.jpg,7,74,stimuli/filler33.jpg,filler,False,None,,,,,,,,,,,,,,0,0,0,0,,,,,0,1,1,2,0,73,73,73,,,,,,,,,,,,,,,,,,,,,,,,,,,,,,,,,,,,,,,,,,,,,,,,,,,,,CS1_USneg,None,1,,,,,,,,,,,,,,,,,,23,m,7,n,2019_Nov_24_1109,ec_RRR,3.0.4,59.98933569568806,
Balas and Sarzynnska,"Dla tego zadania, docelową postacią jest Bergmite:","Więc gdy tylko Bergmite (jego imię lub jego podobizna) pojawi się na ekranie, naciśnij spację tak szybko jak to możliwe. Uderz w spację gdy tylko zobaczysz podobiznę Bergmitea lub słowo BERGMITE.

Naciśnij spację by rozpocząć zadanie",target3,stimuli/t3.jpg,7,75,stimuli/filler37.jpg,filler,False,None,,,,,,,,,,,,,,0,0,0,0,,,,,0,1,1,2,0,74,74,74,,,,,,,,,,,,,,,,,,,,,,,,,,,,,,,,,,,,,,,,,,,,,,,,,,,,,CS1_USneg,None,1,,,,,,,,,,,,,,,,,,23,m,7,n,2019_Nov_24_1109,ec_RRR,3.0.4,59.98933569568806,
Balas and Sarzynnska,"Dla tego zadania, docelową postacią jest Bergmite:","Więc gdy tylko Bergmite (jego imię lub jego podobizna) pojawi się na ekranie, naciśnij spację tak szybko jak to możliwe. Uderz w spację gdy tylko zobaczysz podobiznę Bergmitea lub słowo BERGMITE.

Naciśnij spację by rozpocząć zadanie",target3,stimuli/t3.jpg,7,76,stimuli/filler5.jpg,filler,False,None,,,,,,,,,,,,,,0,0,0,0,,,,,0,1,1,2,0,75,75,75,,,,,,,,,,,,,,,,,,,,,,,,,,,,,,,,,,,,,,,,,,,,,,,,,,,,,CS1_USneg,None,1,,,,,,,,,,,,,,,,,,23,m,7,n,2019_Nov_24_1109,ec_RRR,3.0.4,59.98933569568806,
Balas and Sarzynnska,"Dla tego zadania, docelową postacią jest Bergmite:","Więc gdy tylko Bergmite (jego imię lub jego podobizna) pojawi się na ekranie, naciśnij spację tak szybko jak to możliwe. Uderz w spację gdy tylko zobaczysz podobiznę Bergmitea lub słowo BERGMITE.

Naciśnij spację by rozpocząć zadanie",target3,stimuli/t3.jpg,7,77,stimuli/filler49.jpg,filler,False,None,,,,,,,,,,,,,,0,0,0,0,,,,,0,1,1,2,0,76,76,76,,,,,,,,,,,,,,,,,,,,,,,,,,,,,,,,,,,,,,,,,,,,,,,,,,,,,CS1_USneg,None,1,,,,,,,,,,,,,,,,,,23,m,7,n,2019_Nov_24_1109,ec_RRR,3.0.4,59.98933569568806,
Balas and Sarzynnska,"Dla tego zadania, docelową postacią jest Bergmite:","Więc gdy tylko Bergmite (jego imię lub jego podobizna) pojawi się na ekranie, naciśnij spację tak szybko jak to możliwe. Uderz w spację gdy tylko zobaczysz podobiznę Bergmitea lub słowo BERGMITE.

Naciśnij spację by rozpocząć zadanie",target3,stimuli/t3.jpg,7,78,stimuli/filler12.jpg,filler,False,None,,,,,,,,,,,,,,0,0,0,0,,,,,0,1,1,2,0,77,77,77,,,,,,,,,,,,,,,,,,,,,,,,,,,,,,,,,,,,,,,,,,,,,,,,,,,,,CS1_USneg,None,1,,,,,,,,,,,,,,,,,,23,m,7,n,2019_Nov_24_1109,ec_RRR,3.0.4,59.98933569568806,
Balas and Sarzynnska,"Dla tego zadania, docelową postacią jest Bergmite:","Więc gdy tylko Bergmite (jego imię lub jego podobizna) pojawi się na ekranie, naciśnij spację tak szybko jak to możliwe. Uderz w spację gdy tylko zobaczysz podobiznę Bergmitea lub słowo BERGMITE.

Naciśnij spację by rozpocząć zadanie",target3,stimuli/t3.jpg,7,79,stimuli/filler11.jpg,filler,False,None,,,,,,,,,,,,,,0,0,0,0,,,,,0,1,1,2,0,78,78,78,,,,,,,,,,,,,,,,,,,,,,,,,,,,,,,,,,,,,,,,,,,,,,,,,,,,,CS1_USneg,None,1,,,,,,,,,,,,,,,,,,23,m,7,n,2019_Nov_24_1109,ec_RRR,3.0.4,59.98933569568806,
Balas and Sarzynnska,"Dla tego zadania, docelową postacią jest Bergmite:","Więc gdy tylko Bergmite (jego imię lub jego podobizna) pojawi się na ekranie, naciśnij spację tak szybko jak to możliwe. Uderz w spację gdy tylko zobaczysz podobiznę Bergmitea lub słowo BERGMITE.

Naciśnij spację by rozpocząć zadanie",target3,stimuli/t3.jpg,7,80,stimuli/blank.jpg,blank,False,None,,,,,,,,,,,,,,0,0,0,0,,,,,0,1,1,2,0,79,79,79,,,,,,,,,,,,,,,,,,,,,,,,,,,,,,,,,,,,,,,,,,,,,,,,,,,,,CS1_USneg,None,1,,,,,,,,,,,,,,,,,,23,m,7,n,2019_Nov_24_1109,ec_RRR,3.0.4,59.98933569568806,
Balas and Sarzynnska,"Dla tego zadania, docelową postacią jest Bergmite:","Więc gdy tylko Bergmite (jego imię lub jego podobizna) pojawi się na ekranie, naciśnij spację tak szybko jak to możliwe. Uderz w spację gdy tylko zobaczysz podobiznę Bergmitea lub słowo BERGMITE.

Naciśnij spację by rozpocząć zadanie",target3,stimuli/t3.jpg,7,81,stimuli/cs2_pos17.jpg,CSUS,False,None,,,,,,,,,,,,,,0,0,0,0,,,,,0,1,1,2,0,80,80,80,,,,,,,,,,,,,,,,,,,,,,,,,,,,,,,,,,,,,,,,,,,,,,,,,,,,,CS1_USneg,None,1,,,,,,,,,,,,,,,,,,23,m,7,n,2019_Nov_24_1109,ec_RRR,3.0.4,59.98933569568806,
Balas and Sarzynnska,"Dla tego zadania, docelową postacią jest Bergmite:","Więc gdy tylko Bergmite (jego imię lub jego podobizna) pojawi się na ekranie, naciśnij spację tak szybko jak to możliwe. Uderz w spację gdy tylko zobaczysz podobiznę Bergmitea lub słowo BERGMITE.

Naciśnij spację by rozpocząć zadanie",target3,stimuli/t3.jpg,7,82,stimuli/blank.jpg,blank,False,None,,,,,,,,,,,,,,0,0,0,0,,,,,0,1,1,2,0,81,81,81,,,,,,,,,,,,,,,,,,,,,,,,,,,,,,,,,,,,,,,,,,,,,,,,,,,,,CS1_USneg,None,1,,,,,,,,,,,,,,,,,,23,m,7,n,2019_Nov_24_1109,ec_RRR,3.0.4,59.98933569568806,
Balas and Sarzynnska,"Dla tego zadania, docelową postacią jest Bergmite:","Więc gdy tylko Bergmite (jego imię lub jego podobizna) pojawi się na ekranie, naciśnij spację tak szybko jak to możliwe. Uderz w spację gdy tylko zobaczysz podobiznę Bergmitea lub słowo BERGMITE.

Naciśnij spację by rozpocząć zadanie",target3,stimuli/t3.jpg,7,83,stimuli/filler10.jpg,filler,False,None,,,,,,,,,,,,,,0,0,0,0,,,,,0,1,1,2,0,82,82,82,,,,,,,,,,,,,,,,,,,,,,,,,,,,,,,,,,,,,,,,,,,,,,,,,,,,,CS1_USneg,None,1,,,,,,,,,,,,,,,,,,23,m,7,n,2019_Nov_24_1109,ec_RRR,3.0.4,59.98933569568806,
Balas and Sarzynnska,"Dla tego zadania, docelową postacią jest Bergmite:","Więc gdy tylko Bergmite (jego imię lub jego podobizna) pojawi się na ekranie, naciśnij spację tak szybko jak to możliwe. Uderz w spację gdy tylko zobaczysz podobiznę Bergmitea lub słowo BERGMITE.

Naciśnij spację by rozpocząć zadanie",target3,stimuli/t3.jpg,7,84,stimuli/filler51.jpg,filler,False,None,,,,,,,,,,,,,,0,0,0,0,,,,,0,1,1,2,0,83,83,83,,,,,,,,,,,,,,,,,,,,,,,,,,,,,,,,,,,,,,,,,,,,,,,,,,,,,CS1_USneg,None,1,,,,,,,,,,,,,,,,,,23,m,7,n,2019_Nov_24_1109,ec_RRR,3.0.4,59.98933569568806,
Balas and Sarzynnska,"Dla tego zadania, docelową postacią jest Bergmite:","Więc gdy tylko Bergmite (jego imię lub jego podobizna) pojawi się na ekranie, naciśnij spację tak szybko jak to możliwe. Uderz w spację gdy tylko zobaczysz podobiznę Bergmitea lub słowo BERGMITE.

Naciśnij spację by rozpocząć zadanie",target3,stimuli/t3.jpg,7,85,stimuli/filler41.jpg,filler,False,None,,,,,,,,,,,,,,0,0,0,0,,,,,0,1,1,2,0,84,84,84,,,,,,,,,,,,,,,,,,,,,,,,,,,,,,,,,,,,,,,,,,,,,,,,,,,,,CS1_USneg,None,1,,,,,,,,,,,,,,,,,,23,m,7,n,2019_Nov_24_1109,ec_RRR,3.0.4,59.98933569568806,
Balas and Sarzynnska,"Dla tego zadania, docelową postacią jest Bergmite:","Więc gdy tylko Bergmite (jego imię lub jego podobizna) pojawi się na ekranie, naciśnij spację tak szybko jak to możliwe. Uderz w spację gdy tylko zobaczysz podobiznę Bergmitea lub słowo BERGMITE.

Naciśnij spację by rozpocząć zadanie",target3,stimuli/t3.jpg,7,86,stimuli/filler47.jpg,filler,False,None,,,,,,,,,,,,,,0,0,0,0,,,,,0,1,1,2,0,85,85,85,,,,,,,,,,,,,,,,,,,,,,,,,,,,,,,,,,,,,,,,,,,,,,,,,,,,,CS1_USneg,None,1,,,,,,,,,,,,,,,,,,23,m,7,n,2019_Nov_24_1109,ec_RRR,3.0.4,59.98933569568806,
Balas and Sarzynnska,"Dla tego zadania, docelową postacią jest Jangmo:","Więc gdy tylko Jangmo (jego imię lub jego podobizna) pojawi się na ekranie, naciśnij spację tak szybko jak to możliwe. Uderz w spację gdy tylko zobaczysz podobiznę Jangmoa lub słowo JANGMO.

