data_collection_site,instructions_text_top,instructions_text_bottom,block_id,example_image,participant,trial_number,stimulus,trial_type,target_trial,surveillance_correct_response,filler_1_items,filler_2_items,middle_text,left_text,right_text,evaluation_stimulus,left_stimulus,right_stimulus,evaluation_response_indicating_CS1_preferred,awareness_1_question_text,awareness_2a_question_text,awareness_2b_question_text,awareness_2_question_text,record_data_collection_site_variable.thisRepN,record_data_collection_site_variable.thisTrialN,record_data_collection_site_variable.thisN,record_data_collection_site_variable.thisIndex,surveillance_instructions_loop.thisRepN,surveillance_instructions_loop.thisTrialN,surveillance_instructions_loop.thisN,surveillance_instructions_loop.thisIndex,surveillance_blocks_loop.thisRepN,surveillance_blocks_loop.thisTrialN,surveillance_blocks_loop.thisN,surveillance_blocks_loop.thisIndex,surveillance_trials_loop.thisRepN,surveillance_trials_loop.thisTrialN,surveillance_trials_loop.thisN,surveillance_trials_loop.thisIndex,filler_1_instructions_loop.thisRepN,filler_1_instructions_loop.thisTrialN,filler_1_instructions_loop.thisN,filler_1_instructions_loop.thisIndex,filler_1_loop.thisRepN,filler_1_loop.thisTrialN,filler_1_loop.thisN,filler_1_loop.thisIndex,filler_2_instructions_loop.thisRepN,filler_2_instructions_loop.thisTrialN,filler_2_instructions_loop.thisN,filler_2_instructions_loop.thisIndex,filler_2_loop.thisRepN,filler_2_loop.thisTrialN,filler_2_loop.thisN,filler_2_loop.thisIndex,evaluation_instructions_loop.thisRepN,evaluation_instructions_loop.thisTrialN,evaluation_instructions_loop.thisN,evaluation_instructions_loop.thisIndex,evaluation_loop.thisRepN,evaluation_loop.thisTrialN,evaluation_loop.thisN,evaluation_loop.thisIndex,evaluation_trials.thisRepN,evaluation_trials.thisTrialN,evaluation_trials.thisN,evaluation_trials.thisIndex,awareness_instructions_loop.thisRepN,awareness_instructions_loop.thisTrialN,awareness_instructions_loop.thisN,awareness_instructions_loop.thisIndex,awareness_1_trials_loop.thisRepN,awareness_1_trials_loop.thisTrialN,awareness_1_trials_loop.thisN,awareness_1_trials_loop.thisIndex,awareness_2a_trials_loop.thisRepN,awareness_2a_trials_loop.thisTrialN,awareness_2a_trials_loop.thisN,awareness_2a_trials_loop.thisIndex,awareness_2b_trials_loop.thisRepN,awareness_2b_trials_loop.thisTrialN,awareness_2b_trials_loop.thisN,awareness_2b_trials_loop.thisIndex,awareness_2c_trials_loop.thisRepN,awareness_2c_trials_loop.thisTrialN,awareness_2c_trials_loop.thisN,awareness_2c_trials_loop.thisIndex,end_message_loop.thisRepN,end_message_loop.thisTrialN,end_message_loop.thisN,end_message_loop.thisIndex,condition,surveillance_response.keys,surveillance_response.corr,surveillance_response.rt,filler_1_rating.response,filler_1_rating.rt,filler_2_rating.response,filler_2_rating.rt,evaluation_response.keys,evaluation_response.corr,evaluation_response.rt,inputText,awareness_1_response.keys,awareness_1_response.rt,awareness_type_2a_rating.response,awareness_type_2a_rating.rt,awareness_type_2b_rating.response,awareness_type_2b_rating.rt,awareness_type_2c_rating.response,awareness_type_2c_rating.rt,age,gender,participant,UseMonkey,date,expName,psychopyVersion,frameRate,
Balas and Sarzynnska,"Dla tego zadania, docelową postacią jest Grubbin:","Więc gdy tylko Grubbin (jego imię lub jego podobizna) pojawi się na ekranie, naciśnij spację tak szybko jak to możliwe. Uderz w spację gdy tylko zobaczysz podobiznę Grubbina lub słowo GRUBBIN. 

Naciśnij spację by rozpocząć zadanie",target2,stimuli/t2.jpg,81,1,stimuli/filler51.jpg,filler,False,None,,,,,,,,,,,,,,0,0,0,0,,,,,0,0,0,1,0,0,0,0,,,,,,,,,,,,,,,,,,,,,,,,,,,,,,,,,,,,,,,,,,,,,,,,,,,,,CS1_USneg,None,1,,,,,,,,,,,,,,,,,,35,m,81,n,2019_Nov_30_1716,ec_RRR,3.0.4,59.982279535545956,
Balas and Sarzynnska,"Dla tego zadania, docelową postacią jest Grubbin:","Więc gdy tylko Grubbin (jego imię lub jego podobizna) pojawi się na ekranie, naciśnij spację tak szybko jak to możliwe. Uderz w spację gdy tylko zobaczysz podobiznę Grubbina lub słowo GRUBBIN. 

Naciśnij spację by rozpocząć zadanie",target2,stimuli/t2.jpg,81,2,stimuli/filler9.jpg,filler,False,None,,,,,,,,,,,,,,0,0,0,0,,,,,0,0,0,1,0,1,1,1,,,,,,,,,,,,,,,,,,,,,,,,,,,,,,,,,,,,,,,,,,,,,,,,,,,,,CS1_USneg,None,1,,,,,,,,,,,,,,,,,,35,m,81,n,2019_Nov_30_1716,ec_RRR,3.0.4,59.982279535545956,
Balas and Sarzynnska,"Dla tego zadania, docelową postacią jest Grubbin:","Więc gdy tylko Grubbin (jego imię lub jego podobizna) pojawi się na ekranie, naciśnij spację tak szybko jak to możliwe. Uderz w spację gdy tylko zobaczysz podobiznę Grubbina lub słowo GRUBBIN. 

Naciśnij spację by rozpocząć zadanie",target2,stimuli/t2.jpg,81,3,stimuli/filler2.jpg,filler,False,None,,,,,,,,,,,,,,0,0,0,0,,,,,0,0,0,1,0,2,2,2,,,,,,,,,,,,,,,,,,,,,,,,,,,,,,,,,,,,,,,,,,,,,,,,,,,,,CS1_USneg,None,1,,,,,,,,,,,,,,,,,,35,m,81,n,2019_Nov_30_1716,ec_RRR,3.0.4,59.982279535545956,
Balas and Sarzynnska,"Dla tego zadania, docelową postacią jest Grubbin:","Więc gdy tylko Grubbin (jego imię lub jego podobizna) pojawi się na ekranie, naciśnij spację tak szybko jak to możliwe. Uderz w spację gdy tylko zobaczysz podobiznę Grubbina lub słowo GRUBBIN. 

Naciśnij spację by rozpocząć zadanie",target2,stimuli/t2.jpg,81,4,stimuli/target2_8.jpg,target,True,space,,,,,,,,,,,,,,0,0,0,0,,,,,0,0,0,1,0,3,3,3,,,,,,,,,,,,,,,,,,,,,,,,,,,,,,,,,,,,,,,,,,,,,,,,,,,,,CS1_USneg,space,1,0.6002887708018534,,,,,,,,,,,,,,,,,35,m,81,n,2019_Nov_30_1716,ec_RRR,3.0.4,59.982279535545956,
Balas and Sarzynnska,"Dla tego zadania, docelową postacią jest Grubbin:","Więc gdy tylko Grubbin (jego imię lub jego podobizna) pojawi się na ekranie, naciśnij spację tak szybko jak to możliwe. Uderz w spację gdy tylko zobaczysz podobiznę Grubbina lub słowo GRUBBIN. 

Naciśnij spację by rozpocząć zadanie",target2,stimuli/t2.jpg,81,5,stimuli/filler8.jpg,filler,False,None,,,,,,,,,,,,,,0,0,0,0,,,,,0,0,0,1,0,4,4,4,,,,,,,,,,,,,,,,,,,,,,,,,,,,,,,,,,,,,,,,,,,,,,,,,,,,,CS1_USneg,None,1,,,,,,,,,,,,,,,,,,35,m,81,n,2019_Nov_30_1716,ec_RRR,3.0.4,59.982279535545956,
Balas and Sarzynnska,"Dla tego zadania, docelową postacią jest Grubbin:","Więc gdy tylko Grubbin (jego imię lub jego podobizna) pojawi się na ekranie, naciśnij spację tak szybko jak to możliwe. Uderz w spację gdy tylko zobaczysz podobiznę Grubbina lub słowo GRUBBIN. 

Naciśnij spację by rozpocząć zadanie",target2,stimuli/t2.jpg,81,6,stimuli/filler28.jpg,filler,False,None,,,,,,,,,,,,,,0,0,0,0,,,,,0,0,0,1,0,5,5,5,,,,,,,,,,,,,,,,,,,,,,,,,,,,,,,,,,,,,,,,,,,,,,,,,,,,,CS1_USneg,None,1,,,,,,,,,,,,,,,,,,35,m,81,n,2019_Nov_30_1716,ec_RRR,3.0.4,59.982279535545956,
Balas and Sarzynnska,"Dla tego zadania, docelową postacią jest Grubbin:","Więc gdy tylko Grubbin (jego imię lub jego podobizna) pojawi się na ekranie, naciśnij spację tak szybko jak to możliwe. Uderz w spację gdy tylko zobaczysz podobiznę Grubbina lub słowo GRUBBIN. 

Naciśnij spację by rozpocząć zadanie",target2,stimuli/t2.jpg,81,7,stimuli/filler25.jpg,filler,False,None,,,,,,,,,,,,,,0,0,0,0,,,,,0,0,0,1,0,6,6,6,,,,,,,,,,,,,,,,,,,,,,,,,,,,,,,,,,,,,,,,,,,,,,,,,,,,,CS1_USneg,None,1,,,,,,,,,,,,,,,,,,35,m,81,n,2019_Nov_30_1716,ec_RRR,3.0.4,59.982279535545956,
Balas and Sarzynnska,"Dla tego zadania, docelową postacią jest Grubbin:","Więc gdy tylko Grubbin (jego imię lub jego podobizna) pojawi się na ekranie, naciśnij spację tak szybko jak to możliwe. Uderz w spację gdy tylko zobaczysz podobiznę Grubbina lub słowo GRUBBIN. 

Naciśnij spację by rozpocząć zadanie",target2,stimuli/t2.jpg,81,8,stimuli/filler27.jpg,filler,False,None,,,,,,,,,,,,,,0,0,0,0,,,,,0,0,0,1,0,7,7,7,,,,,,,,,,,,,,,,,,,,,,,,,,,,,,,,,,,,,,,,,,,,,,,,,,,,,CS1_USneg,None,1,,,,,,,,,,,,,,,,,,35,m,81,n,2019_Nov_30_1716,ec_RRR,3.0.4,59.982279535545956,
Balas and Sarzynnska,"Dla tego zadania, docelową postacią jest Grubbin:","Więc gdy tylko Grubbin (jego imię lub jego podobizna) pojawi się na ekranie, naciśnij spację tak szybko jak to możliwe. Uderz w spację gdy tylko zobaczysz podobiznę Grubbina lub słowo GRUBBIN. 

Naciśnij spację by rozpocząć zadanie",target2,stimuli/t2.jpg,81,9,stimuli/filler37.jpg,filler,False,None,,,,,,,,,,,,,,0,0,0,0,,,,,0,0,0,1,0,8,8,8,,,,,,,,,,,,,,,,,,,,,,,,,,,,,,,,,,,,,,,,,,,,,,,,,,,,,CS1_USneg,None,1,,,,,,,,,,,,,,,,,,35,m,81,n,2019_Nov_30_1716,ec_RRR,3.0.4,59.982279535545956,
Balas and Sarzynnska,"Dla tego zadania, docelową postacią jest Grubbin:","Więc gdy tylko Grubbin (jego imię lub jego podobizna) pojawi się na ekranie, naciśnij spację tak szybko jak to możliwe. Uderz w spację gdy tylko zobaczysz podobiznę Grubbina lub słowo GRUBBIN. 

Naciśnij spację by rozpocząć zadanie",target2,stimuli/t2.jpg,81,10,stimuli/blank.jpg,blank,False,None,,,,,,,,,,,,,,0,0,0,0,,,,,0,0,0,1,0,9,9,9,,,,,,,,,,,,,,,,,,,,,,,,,,,,,,,,,,,,,,,,,,,,,,,,,,,,,CS1_USneg,None,1,,,,,,,,,,,,,,,,,,35,m,81,n,2019_Nov_30_1716,ec_RRR,3.0.4,59.982279535545956,
Balas and Sarzynnska,"Dla tego zadania, docelową postacią jest Grubbin:","Więc gdy tylko Grubbin (jego imię lub jego podobizna) pojawi się na ekranie, naciśnij spację tak szybko jak to możliwe. Uderz w spację gdy tylko zobaczysz podobiznę Grubbina lub słowo GRUBBIN. 

Naciśnij spację by rozpocząć zadanie",target2,stimuli/t2.jpg,81,11,stimuli/cs1_neg8.jpg,CSUS,False,None,,,,,,,,,,,,,,0,0,0,0,,,,,0,0,0,1,0,10,10,10,,,,,,,,,,,,,,,,,,,,,,,,,,,,,,,,,,,,,,,,,,,,,,,,,,,,,CS1_USneg,None,1,,,,,,,,,,,,,,,,,,35,m,81,n,2019_Nov_30_1716,ec_RRR,3.0.4,59.982279535545956,
Balas and Sarzynnska,"Dla tego zadania, docelową postacią jest Grubbin:","Więc gdy tylko Grubbin (jego imię lub jego podobizna) pojawi się na ekranie, naciśnij spację tak szybko jak to możliwe. Uderz w spację gdy tylko zobaczysz podobiznę Grubbina lub słowo GRUBBIN. 

Naciśnij spację by rozpocząć zadanie",target2,stimuli/t2.jpg,81,12,stimuli/blank.jpg,blank,False,None,,,,,,,,,,,,,,0,0,0,0,,,,,0,0,0,1,0,11,11,11,,,,,,,,,,,,,,,,,,,,,,,,,,,,,,,,,,,,,,,,,,,,,,,,,,,,,CS1_USneg,None,1,,,,,,,,,,,,,,,,,,35,m,81,n,2019_Nov_30_1716,ec_RRR,3.0.4,59.982279535545956,
Balas and Sarzynnska,"Dla tego zadania, docelową postacią jest Grubbin:","Więc gdy tylko Grubbin (jego imię lub jego podobizna) pojawi się na ekranie, naciśnij spację tak szybko jak to możliwe. Uderz w spację gdy tylko zobaczysz podobiznę Grubbina lub słowo GRUBBIN. 

Naciśnij spację by rozpocząć zadanie",target2,stimuli/t2.jpg,81,13,stimuli/filler1.jpg,filler,False,None,,,,,,,,,,,,,,0,0,0,0,,,,,0,0,0,1,0,12,12,12,,,,,,,,,,,,,,,,,,,,,,,,,,,,,,,,,,,,,,,,,,,,,,,,,,,,,CS1_USneg,None,1,,,,,,,,,,,,,,,,,,35,m,81,n,2019_Nov_30_1716,ec_RRR,3.0.4,59.982279535545956,
Balas and Sarzynnska,"Dla tego zadania, docelową postacią jest Grubbin:","Więc gdy tylko Grubbin (jego imię lub jego podobizna) pojawi się na ekranie, naciśnij spację tak szybko jak to możliwe. Uderz w spację gdy tylko zobaczysz podobiznę Grubbina lub słowo GRUBBIN. 

Naciśnij spację by rozpocząć zadanie",target2,stimuli/t2.jpg,81,14,stimuli/filler21.jpg,filler,False,None,,,,,,,,,,,,,,0,0,0,0,,,,,0,0,0,1,0,13,13,13,,,,,,,,,,,,,,,,,,,,,,,,,,,,,,,,,,,,,,,,,,,,,,,,,,,,,CS1_USneg,None,1,,,,,,,,,,,,,,,,,,35,m,81,n,2019_Nov_30_1716,ec_RRR,3.0.4,59.982279535545956,
Balas and Sarzynnska,"Dla tego zadania, docelową postacią jest Grubbin:","Więc gdy tylko Grubbin (jego imię lub jego podobizna) pojawi się na ekranie, naciśnij spację tak szybko jak to możliwe. Uderz w spację gdy tylko zobaczysz podobiznę Grubbina lub słowo GRUBBIN. 

Naciśnij spację by rozpocząć zadanie",target2,stimuli/t2.jpg,81,15,stimuli/filler18.jpg,filler,False,None,,,,,,,,,,,,,,0,0,0,0,,,,,0,0,0,1,0,14,14,14,,,,,,,,,,,,,,,,,,,,,,,,,,,,,,,,,,,,,,,,,,,,,,,,,,,,,CS1_USneg,None,1,,,,,,,,,,,,,,,,,,35,m,81,n,2019_Nov_30_1716,ec_RRR,3.0.4,59.982279535545956,
Balas and Sarzynnska,"Dla tego zadania, docelową postacią jest Grubbin:","Więc gdy tylko Grubbin (jego imię lub jego podobizna) pojawi się na ekranie, naciśnij spację tak szybko jak to możliwe. Uderz w spację gdy tylko zobaczysz podobiznę Grubbina lub słowo GRUBBIN. 

Naciśnij spację by rozpocząć zadanie",target2,stimuli/t2.jpg,81,16,stimuli/filler17.jpg,filler,False,None,,,,,,,,,,,,,,0,0,0,0,,,,,0,0,0,1,0,15,15,15,,,,,,,,,,,,,,,,,,,,,,,,,,,,,,,,,,,,,,,,,,,,,,,,,,,,,CS1_USneg,None,1,,,,,,,,,,,,,,,,,,35,m,81,n,2019_Nov_30_1716,ec_RRR,3.0.4,59.982279535545956,
Balas and Sarzynnska,"Dla tego zadania, docelową postacią jest Grubbin:","Więc gdy tylko Grubbin (jego imię lub jego podobizna) pojawi się na ekranie, naciśnij spację tak szybko jak to możliwe. Uderz w spację gdy tylko zobaczysz podobiznę Grubbina lub słowo GRUBBIN. 

Naciśnij spację by rozpocząć zadanie",target2,stimuli/t2.jpg,81,17,stimuli/filler50.jpg,filler,False,None,,,,,,,,,,,,,,0,0,0,0,,,,,0,0,0,1,0,16,16,16,,,,,,,,,,,,,,,,,,,,,,,,,,,,,,,,,,,,,,,,,,,,,,,,,,,,,CS1_USneg,None,1,,,,,,,,,,,,,,,,,,35,m,81,n,2019_Nov_30_1716,ec_RRR,3.0.4,59.982279535545956,
Balas and Sarzynnska,"Dla tego zadania, docelową postacią jest Grubbin:","Więc gdy tylko Grubbin (jego imię lub jego podobizna) pojawi się na ekranie, naciśnij spację tak szybko jak to możliwe. Uderz w spację gdy tylko zobaczysz podobiznę Grubbina lub słowo GRUBBIN. 

Naciśnij spację by rozpocząć zadanie",target2,stimuli/t2.jpg,81,18,stimuli/filler41.jpg,filler,False,None,,,,,,,,,,,,,,0,0,0,0,,,,,0,0,0,1,0,17,17,17,,,,,,,,,,,,,,,,,,,,,,,,,,,,,,,,,,,,,,,,,,,,,,,,,,,,,CS1_USneg,None,1,,,,,,,,,,,,,,,,,,35,m,81,n,2019_Nov_30_1716,ec_RRR,3.0.4,59.982279535545956,
Balas and Sarzynnska,"Dla tego zadania, docelową postacią jest Grubbin:","Więc gdy tylko Grubbin (jego imię lub jego podobizna) pojawi się na ekranie, naciśnij spację tak szybko jak to możliwe. Uderz w spację gdy tylko zobaczysz podobiznę Grubbina lub słowo GRUBBIN. 

Naciśnij spację by rozpocząć zadanie",target2,stimuli/t2.jpg,81,19,stimuli/filler35.jpg,filler,False,None,,,,,,,,,,,,,,0,0,0,0,,,,,0,0,0,1,0,18,18,18,,,,,,,,,,,,,,,,,,,,,,,,,,,,,,,,,,,,,,,,,,,,,,,,,,,,,CS1_USneg,None,1,,,,,,,,,,,,,,,,,,35,m,81,n,2019_Nov_30_1716,ec_RRR,3.0.4,59.982279535545956,
Balas and Sarzynnska,"Dla tego zadania, docelową postacią jest Grubbin:","Więc gdy tylko Grubbin (jego imię lub jego podobizna) pojawi się na ekranie, naciśnij spację tak szybko jak to możliwe. Uderz w spację gdy tylko zobaczysz podobiznę Grubbina lub słowo GRUBBIN. 

Naciśnij spację by rozpocząć zadanie",target2,stimuli/t2.jpg,81,20,stimuli/blank.jpg,blank,False,None,,,,,,,,,,,,,,0,0,0,0,,,,,0,0,0,1,0,19,19,19,,,,,,,,,,,,,,,,,,,,,,,,,,,,,,,,,,,,,,,,,,,,,,,,,,,,,CS1_USneg,None,1,,,,,,,,,,,,,,,,,,35,m,81,n,2019_Nov_30_1716,ec_RRR,3.0.4,59.982279535545956,
Balas and Sarzynnska,"Dla tego zadania, docelową postacią jest Grubbin:","Więc gdy tylko Grubbin (jego imię lub jego podobizna) pojawi się na ekranie, naciśnij spację tak szybko jak to możliwe. Uderz w spację gdy tylko zobaczysz podobiznę Grubbina lub słowo GRUBBIN. 

Naciśnij spację by rozpocząć zadanie",target2,stimuli/t2.jpg,81,21,stimuli/cs2_pos5.jpg,CSUS,False,None,,,,,,,,,,,,,,0,0,0,0,,,,,0,0,0,1,0,20,20,20,,,,,,,,,,,,,,,,,,,,,,,,,,,,,,,,,,,,,,,,,,,,,,,,,,,,,CS1_USneg,None,1,,,,,,,,,,,,,,,,,,35,m,81,n,2019_Nov_30_1716,ec_RRR,3.0.4,59.982279535545956,
Balas and Sarzynnska,"Dla tego zadania, docelową postacią jest Grubbin:","Więc gdy tylko Grubbin (jego imię lub jego podobizna) pojawi się na ekranie, naciśnij spację tak szybko jak to możliwe. Uderz w spację gdy tylko zobaczysz podobiznę Grubbina lub słowo GRUBBIN. 

Naciśnij spację by rozpocząć zadanie",target2,stimuli/t2.jpg,81,22,stimuli/blank.jpg,blank,False,None,,,,,,,,,,,,,,0,0,0,0,,,,,0,0,0,1,0,21,21,21,,,,,,,,,,,,,,,,,,,,,,,,,,,,,,,,,,,,,,,,,,,,,,,,,,,,,CS1_USneg,None,1,,,,,,,,,,,,,,,,,,35,m,81,n,2019_Nov_30_1716,ec_RRR,3.0.4,59.982279535545956,
Balas and Sarzynnska,"Dla tego zadania, docelową postacią jest Grubbin:","Więc gdy tylko Grubbin (jego imię lub jego podobizna) pojawi się na ekranie, naciśnij spację tak szybko jak to możliwe. Uderz w spację gdy tylko zobaczysz podobiznę Grubbina lub słowo GRUBBIN. 

Naciśnij spację by rozpocząć zadanie",target2,stimuli/t2.jpg,81,23,stimuli/target2_10.jpg,target,True,space,,,,,,,,,,,,,,0,0,0,0,,,,,0,0,0,1,0,22,22,22,,,,,,,,,,,,,,,,,,,,,,,,,,,,,,,,,,,,,,,,,,,,,,,,,,,,,CS1_USneg,space,1,0.5668759631225839,,,,,,,,,,,,,,,,,35,m,81,n,2019_Nov_30_1716,ec_RRR,3.0.4,59.982279535545956,
Balas and Sarzynnska,"Dla tego zadania, docelową postacią jest Grubbin:","Więc gdy tylko Grubbin (jego imię lub jego podobizna) pojawi się na ekranie, naciśnij spację tak szybko jak to możliwe. Uderz w spację gdy tylko zobaczysz podobiznę Grubbina lub słowo GRUBBIN. 

Naciśnij spację by rozpocząć zadanie",target2,stimuli/t2.jpg,81,24,stimuli/filler48.jpg,filler,False,None,,,,,,,,,,,,,,0,0,0,0,,,,,0,0,0,1,0,23,23,23,,,,,,,,,,,,,,,,,,,,,,,,,,,,,,,,,,,,,,,,,,,,,,,,,,,,,CS1_USneg,None,1,,,,,,,,,,,,,,,,,,35,m,81,n,2019_Nov_30_1716,ec_RRR,3.0.4,59.982279535545956,
Balas and Sarzynnska,"Dla tego zadania, docelową postacią jest Grubbin:","Więc gdy tylko Grubbin (jego imię lub jego podobizna) pojawi się na ekranie, naciśnij spację tak szybko jak to możliwe. Uderz w spację gdy tylko zobaczysz podobiznę Grubbina lub słowo GRUBBIN. 

Naciśnij spację by rozpocząć zadanie",target2,stimuli/t2.jpg,81,25,stimuli/filler47.jpg,filler,False,None,,,,,,,,,,,,,,0,0,0,0,,,,,0,0,0,1,0,24,24,24,,,,,,,,,,,,,,,,,,,,,,,,,,,,,,,,,,,,,,,,,,,,,,,,,,,,,CS1_USneg,None,1,,,,,,,,,,,,,,,,,,35,m,81,n,2019_Nov_30_1716,ec_RRR,3.0.4,59.982279535545956,
Balas and Sarzynnska,"Dla tego zadania, docelową postacią jest Grubbin:","Więc gdy tylko Grubbin (jego imię lub jego podobizna) pojawi się na ekranie, naciśnij spację tak szybko jak to możliwe. Uderz w spację gdy tylko zobaczysz podobiznę Grubbina lub słowo GRUBBIN. 

Naciśnij spację by rozpocząć zadanie",target2,stimuli/t2.jpg,81,26,stimuli/filler43.jpg,filler,False,None,,,,,,,,,,,,,,0,0,0,0,,,,,0,0,0,1,0,25,25,25,,,,,,,,,,,,,,,,,,,,,,,,,,,,,,,,,,,,,,,,,,,,,,,,,,,,,CS1_USneg,None,1,,,,,,,,,,,,,,,,,,35,m,81,n,2019_Nov_30_1716,ec_RRR,3.0.4,59.982279535545956,
Balas and Sarzynnska,"Dla tego zadania, docelową postacią jest Grubbin:","Więc gdy tylko Grubbin (jego imię lub jego podobizna) pojawi się na ekranie, naciśnij spację tak szybko jak to możliwe. Uderz w spację gdy tylko zobaczysz podobiznę Grubbina lub słowo GRUBBIN. 

Naciśnij spację by rozpocząć zadanie",target2,stimuli/t2.jpg,81,27,stimuli/filler33.jpg,filler,False,None,,,,,,,,,,,,,,0,0,0,0,,,,,0,0,0,1,0,26,26,26,,,,,,,,,,,,,,,,,,,,,,,,,,,,,,,,,,,,,,,,,,,,,,,,,,,,,CS1_USneg,None,1,,,,,,,,,,,,,,,,,,35,m,81,n,2019_Nov_30_1716,ec_RRR,3.0.4,59.982279535545956,
Balas and Sarzynnska,"Dla tego zadania, docelową postacią jest Grubbin:","Więc gdy tylko Grubbin (jego imię lub jego podobizna) pojawi się na ekranie, naciśnij spację tak szybko jak to możliwe. Uderz w spację gdy tylko zobaczysz podobiznę Grubbina lub słowo GRUBBIN. 

Naciśnij spację by rozpocząć zadanie",target2,stimuli/t2.jpg,81,28,stimuli/filler7.jpg,filler,False,None,,,,,,,,,,,,,,0,0,0,0,,,,,0,0,0,1,0,27,27,27,,,,,,,,,,,,,,,,,,,,,,,,,,,,,,,,,,,,,,,,,,,,,,,,,,,,,CS1_USneg,None,1,,,,,,,,,,,,,,,,,,35,m,81,n,2019_Nov_30_1716,ec_RRR,3.0.4,59.982279535545956,
Balas and Sarzynnska,"Dla tego zadania, docelową postacią jest Grubbin:","Więc gdy tylko Grubbin (jego imię lub jego podobizna) pojawi się na ekranie, naciśnij spację tak szybko jak to możliwe. Uderz w spację gdy tylko zobaczysz podobiznę Grubbina lub słowo GRUBBIN. 

Naciśnij spację by rozpocząć zadanie",target2,stimuli/t2.jpg,81,29,stimuli/filler52.jpg,filler,False,None,,,,,,,,,,,,,,0,0,0,0,,,,,0,0,0,1,0,28,28,28,,,,,,,,,,,,,,,,,,,,,,,,,,,,,,,,,,,,,,,,,,,,,,,,,,,,,CS1_USneg,None,1,,,,,,,,,,,,,,,,,,35,m,81,n,2019_Nov_30_1716,ec_RRR,3.0.4,59.982279535545956,
Balas and Sarzynnska,"Dla tego zadania, docelową postacią jest Grubbin:","Więc gdy tylko Grubbin (jego imię lub jego podobizna) pojawi się na ekranie, naciśnij spację tak szybko jak to możliwe. Uderz w spację gdy tylko zobaczysz podobiznę Grubbina lub słowo GRUBBIN. 

Naciśnij spację by rozpocząć zadanie",target2,stimuli/t2.jpg,81,30,stimuli/blank.jpg,blank,False,None,,,,,,,,,,,,,,0,0,0,0,,,,,0,0,0,1,0,29,29,29,,,,,,,,,,,,,,,,,,,,,,,,,,,,,,,,,,,,,,,,,,,,,,,,,,,,,CS1_USneg,None,1,,,,,,,,,,,,,,,,,,35,m,81,n,2019_Nov_30_1716,ec_RRR,3.0.4,59.982279535545956,
Balas and Sarzynnska,"Dla tego zadania, docelową postacią jest Grubbin:","Więc gdy tylko Grubbin (jego imię lub jego podobizna) pojawi się na ekranie, naciśnij spację tak szybko jak to możliwe. Uderz w spację gdy tylko zobaczysz podobiznę Grubbina lub słowo GRUBBIN. 

Naciśnij spację by rozpocząć zadanie",target2,stimuli/t2.jpg,81,31,stimuli/cs1_neg12.jpg,CSUS,False,None,,,,,,,,,,,,,,0,0,0,0,,,,,0,0,0,1,0,30,30,30,,,,,,,,,,,,,,,,,,,,,,,,,,,,,,,,,,,,,,,,,,,,,,,,,,,,,CS1_USneg,None,1,,,,,,,,,,,,,,,,,,35,m,81,n,2019_Nov_30_1716,ec_RRR,3.0.4,59.982279535545956,
Balas and Sarzynnska,"Dla tego zadania, docelową postacią jest Grubbin:","Więc gdy tylko Grubbin (jego imię lub jego podobizna) pojawi się na ekranie, naciśnij spację tak szybko jak to możliwe. Uderz w spację gdy tylko zobaczysz podobiznę Grubbina lub słowo GRUBBIN. 

Naciśnij spację by rozpocząć zadanie",target2,stimuli/t2.jpg,81,32,stimuli/blank.jpg,blank,False,None,,,,,,,,,,,,,,0,0,0,0,,,,,0,0,0,1,0,31,31,31,,,,,,,,,,,,,,,,,,,,,,,,,,,,,,,,,,,,,,,,,,,,,,,,,,,,,CS1_USneg,None,1,,,,,,,,,,,,,,,,,,35,m,81,n,2019_Nov_30_1716,ec_RRR,3.0.4,59.982279535545956,
Balas and Sarzynnska,"Dla tego zadania, docelową postacią jest Grubbin:","Więc gdy tylko Grubbin (jego imię lub jego podobizna) pojawi się na ekranie, naciśnij spację tak szybko jak to możliwe. Uderz w spację gdy tylko zobaczysz podobiznę Grubbina lub słowo GRUBBIN. 

Naciśnij spację by rozpocząć zadanie",target2,stimuli/t2.jpg,81,33,stimuli/filler5.jpg,filler,False,None,,,,,,,,,,,,,,0,0,0,0,,,,,0,0,0,1,0,32,32,32,,,,,,,,,,,,,,,,,,,,,,,,,,,,,,,,,,,,,,,,,,,,,,,,,,,,,CS1_USneg,None,1,,,,,,,,,,,,,,,,,,35,m,81,n,2019_Nov_30_1716,ec_RRR,3.0.4,59.982279535545956,
Balas and Sarzynnska,"Dla tego zadania, docelową postacią jest Grubbin:","Więc gdy tylko Grubbin (jego imię lub jego podobizna) pojawi się na ekranie, naciśnij spację tak szybko jak to możliwe. Uderz w spację gdy tylko zobaczysz podobiznę Grubbina lub słowo GRUBBIN. 

Naciśnij spację by rozpocząć zadanie",target2,stimuli/t2.jpg,81,34,stimuli/filler31.jpg,filler,False,None,,,,,,,,,,,,,,0,0,0,0,,,,,0,0,0,1,0,33,33,33,,,,,,,,,,,,,,,,,,,,,,,,,,,,,,,,,,,,,,,,,,,,,,,,,,,,,CS1_USneg,None,1,,,,,,,,,,,,,,,,,,35,m,81,n,2019_Nov_30_1716,ec_RRR,3.0.4,59.982279535545956,
Balas and Sarzynnska,"Dla tego zadania, docelową postacią jest Grubbin:","Więc gdy tylko Grubbin (jego imię lub jego podobizna) pojawi się na ekranie, naciśnij spację tak szybko jak to możliwe. Uderz w spację gdy tylko zobaczysz podobiznę Grubbina lub słowo GRUBBIN. 

Naciśnij spację by rozpocząć zadanie",target2,stimuli/t2.jpg,81,35,stimuli/filler15.jpg,filler,False,None,,,,,,,,,,,,,,0,0,0,0,,,,,0,0,0,1,0,34,34,34,,,,,,,,,,,,,,,,,,,,,,,,,,,,,,,,,,,,,,,,,,,,,,,,,,,,,CS1_USneg,None,1,,,,,,,,,,,,,,,,,,35,m,81,n,2019_Nov_30_1716,ec_RRR,3.0.4,59.982279535545956,
Balas and Sarzynnska,"Dla tego zadania, docelową postacią jest Grubbin:","Więc gdy tylko Grubbin (jego imię lub jego podobizna) pojawi się na ekranie, naciśnij spację tak szybko jak to możliwe. Uderz w spację gdy tylko zobaczysz podobiznę Grubbina lub słowo GRUBBIN. 

Naciśnij spację by rozpocząć zadanie",target2,stimuli/t2.jpg,81,36,stimuli/filler3.jpg,filler,False,None,,,,,,,,,,,,,,0,0,0,0,,,,,0,0,0,1,0,35,35,35,,,,,,,,,,,,,,,,,,,,,,,,,,,,,,,,,,,,,,,,,,,,,,,,,,,,,CS1_USneg,None,1,,,,,,,,,,,,,,,,,,35,m,81,n,2019_Nov_30_1716,ec_RRR,3.0.4,59.982279535545956,
Balas and Sarzynnska,"Dla tego zadania, docelową postacią jest Grubbin:","Więc gdy tylko Grubbin (jego imię lub jego podobizna) pojawi się na ekranie, naciśnij spację tak szybko jak to możliwe. Uderz w spację gdy tylko zobaczysz podobiznę Grubbina lub słowo GRUBBIN. 

Naciśnij spację by rozpocząć zadanie",target2,stimuli/t2.jpg,81,37,stimuli/filler19.jpg,filler,False,None,,,,,,,,,,,,,,0,0,0,0,,,,,0,0,0,1,0,36,36,36,,,,,,,,,,,,,,,,,,,,,,,,,,,,,,,,,,,,,,,,,,,,,,,,,,,,,CS1_USneg,None,1,,,,,,,,,,,,,,,,,,35,m,81,n,2019_Nov_30_1716,ec_RRR,3.0.4,59.982279535545956,
Balas and Sarzynnska,"Dla tego zadania, docelową postacią jest Grubbin:","Więc gdy tylko Grubbin (jego imię lub jego podobizna) pojawi się na ekranie, naciśnij spację tak szybko jak to możliwe. Uderz w spację gdy tylko zobaczysz podobiznę Grubbina lub słowo GRUBBIN. 

Naciśnij spację by rozpocząć zadanie",target2,stimuli/t2.jpg,81,38,stimuli/target2_2.jpg,target,True,space,,,,,,,,,,,,,,0,0,0,0,,,,,0,0,0,1,0,37,37,37,,,,,,,,,,,,,,,,,,,,,,,,,,,,,,,,,,,,,,,,,,,,,,,,,,,,,CS1_USneg,space,1,0.4169284605886787,,,,,,,,,,,,,,,,,35,m,81,n,2019_Nov_30_1716,ec_RRR,3.0.4,59.982279535545956,
Balas and Sarzynnska,"Dla tego zadania, docelową postacią jest Grubbin:","Więc gdy tylko Grubbin (jego imię lub jego podobizna) pojawi się na ekranie, naciśnij spację tak szybko jak to możliwe. Uderz w spację gdy tylko zobaczysz podobiznę Grubbina lub słowo GRUBBIN. 

Naciśnij spację by rozpocząć zadanie",target2,stimuli/t2.jpg,81,39,stimuli/filler42.jpg,filler,False,None,,,,,,,,,,,,,,0,0,0,0,,,,,0,0,0,1,0,38,38,38,,,,,,,,,,,,,,,,,,,,,,,,,,,,,,,,,,,,,,,,,,,,,,,,,,,,,CS1_USneg,None,1,,,,,,,,,,,,,,,,,,35,m,81,n,2019_Nov_30_1716,ec_RRR,3.0.4,59.982279535545956,
Balas and Sarzynnska,"Dla tego zadania, docelową postacią jest Grubbin:","Więc gdy tylko Grubbin (jego imię lub jego podobizna) pojawi się na ekranie, naciśnij spację tak szybko jak to możliwe. Uderz w spację gdy tylko zobaczysz podobiznę Grubbina lub słowo GRUBBIN. 

Naciśnij spację by rozpocząć zadanie",target2,stimuli/t2.jpg,81,40,stimuli/blank.jpg,blank,False,None,,,,,,,,,,,,,,0,0,0,0,,,,,0,0,0,1,0,39,39,39,,,,,,,,,,,,,,,,,,,,,,,,,,,,,,,,,,,,,,,,,,,,,,,,,,,,,CS1_USneg,None,1,,,,,,,,,,,,,,,,,,35,m,81,n,2019_Nov_30_1716,ec_RRR,3.0.4,59.982279535545956,
Balas and Sarzynnska,"Dla tego zadania, docelową postacią jest Grubbin:","Więc gdy tylko Grubbin (jego imię lub jego podobizna) pojawi się na ekranie, naciśnij spację tak szybko jak to możliwe. Uderz w spację gdy tylko zobaczysz podobiznę Grubbina lub słowo GRUBBIN. 

Naciśnij spację by rozpocząć zadanie",target2,stimuli/t2.jpg,81,41,stimuli/cs2_pos13.jpg,CSUS,False,None,,,,,,,,,,,,,,0,0,0,0,,,,,0,0,0,1,0,40,40,40,,,,,,,,,,,,,,,,,,,,,,,,,,,,,,,,,,,,,,,,,,,,,,,,,,,,,CS1_USneg,None,1,,,,,,,,,,,,,,,,,,35,m,81,n,2019_Nov_30_1716,ec_RRR,3.0.4,59.982279535545956,
Balas and Sarzynnska,"Dla tego zadania, docelową postacią jest Grubbin:","Więc gdy tylko Grubbin (jego imię lub jego podobizna) pojawi się na ekranie, naciśnij spację tak szybko jak to możliwe. Uderz w spację gdy tylko zobaczysz podobiznę Grubbina lub słowo GRUBBIN. 

Naciśnij spację by rozpocząć zadanie",target2,stimuli/t2.jpg,81,42,stimuli/blank.jpg,blank,False,None,,,,,,,,,,,,,,0,0,0,0,,,,,0,0,0,1,0,41,41,41,,,,,,,,,,,,,,,,,,,,,,,,,,,,,,,,,,,,,,,,,,,,,,,,,,,,,CS1_USneg,None,1,,,,,,,,,,,,,,,,,,35,m,81,n,2019_Nov_30_1716,ec_RRR,3.0.4,59.982279535545956,
Balas and Sarzynnska,"Dla tego zadania, docelową postacią jest Grubbin:","Więc gdy tylko Grubbin (jego imię lub jego podobizna) pojawi się na ekranie, naciśnij spację tak szybko jak to możliwe. Uderz w spację gdy tylko zobaczysz podobiznę Grubbina lub słowo GRUBBIN. 

Naciśnij spację by rozpocząć zadanie",target2,stimuli/t2.jpg,81,43,stimuli/filler24.jpg,filler,False,None,,,,,,,,,,,,,,0,0,0,0,,,,,0,0,0,1,0,42,42,42,,,,,,,,,,,,,,,,,,,,,,,,,,,,,,,,,,,,,,,,,,,,,,,,,,,,,CS1_USneg,None,1,,,,,,,,,,,,,,,,,,35,m,81,n,2019_Nov_30_1716,ec_RRR,3.0.4,59.982279535545956,
Balas and Sarzynnska,"Dla tego zadania, docelową postacią jest Grubbin:","Więc gdy tylko Grubbin (jego imię lub jego podobizna) pojawi się na ekranie, naciśnij spację tak szybko jak to możliwe. Uderz w spację gdy tylko zobaczysz podobiznę Grubbina lub słowo GRUBBIN. 

Naciśnij spację by rozpocząć zadanie",target2,stimuli/t2.jpg,81,44,stimuli/filler32.jpg,filler,False,None,,,,,,,,,,,,,,0,0,0,0,,,,,0,0,0,1,0,43,43,43,,,,,,,,,,,,,,,,,,,,,,,,,,,,,,,,,,,,,,,,,,,,,,,,,,,,,CS1_USneg,None,1,,,,,,,,,,,,,,,,,,35,m,81,n,2019_Nov_30_1716,ec_RRR,3.0.4,59.982279535545956,
Balas and Sarzynnska,"Dla tego zadania, docelową postacią jest Grubbin:","Więc gdy tylko Grubbin (jego imię lub jego podobizna) pojawi się na ekranie, naciśnij spację tak szybko jak to możliwe. Uderz w spację gdy tylko zobaczysz podobiznę Grubbina lub słowo GRUBBIN. 

Naciśnij spację by rozpocząć zadanie",target2,stimuli/t2.jpg,81,45,stimuli/filler4.jpg,filler,False,None,,,,,,,,,,,,,,0,0,0,0,,,,,0,0,0,1,0,44,44,44,,,,,,,,,,,,,,,,,,,,,,,,,,,,,,,,,,,,,,,,,,,,,,,,,,,,,CS1_USneg,None,1,,,,,,,,,,,,,,,,,,35,m,81,n,2019_Nov_30_1716,ec_RRR,3.0.4,59.982279535545956,
Balas and Sarzynnska,"Dla tego zadania, docelową postacią jest Grubbin:","Więc gdy tylko Grubbin (jego imię lub jego podobizna) pojawi się na ekranie, naciśnij spację tak szybko jak to możliwe. Uderz w spację gdy tylko zobaczysz podobiznę Grubbina lub słowo GRUBBIN. 

Naciśnij spację by rozpocząć zadanie",target2,stimuli/t2.jpg,81,46,stimuli/filler38.jpg,filler,False,None,,,,,,,,,,,,,,0,0,0,0,,,,,0,0,0,1,0,45,45,45,,,,,,,,,,,,,,,,,,,,,,,,,,,,,,,,,,,,,,,,,,,,,,,,,,,,,CS1_USneg,None,1,,,,,,,,,,,,,,,,,,35,m,81,n,2019_Nov_30_1716,ec_RRR,3.0.4,59.982279535545956,
Balas and Sarzynnska,"Dla tego zadania, docelową postacią jest Grubbin:","Więc gdy tylko Grubbin (jego imię lub jego podobizna) pojawi się na ekranie, naciśnij spację tak szybko jak to możliwe. Uderz w spację gdy tylko zobaczysz podobiznę Grubbina lub słowo GRUBBIN. 

Naciśnij spację by rozpocząć zadanie",target2,stimuli/t2.jpg,81,47,stimuli/filler49.jpg,filler,False,None,,,,,,,,,,,,,,0,0,0,0,,,,,0,0,0,1,0,46,46,46,,,,,,,,,,,,,,,,,,,,,,,,,,,,,,,,,,,,,,,,,,,,,,,,,,,,,CS1_USneg,None,1,,,,,,,,,,,,,,,,,,35,m,81,n,2019_Nov_30_1716,ec_RRR,3.0.4,59.982279535545956,
Balas and Sarzynnska,"Dla tego zadania, docelową postacią jest Grubbin:","Więc gdy tylko Grubbin (jego imię lub jego podobizna) pojawi się na ekranie, naciśnij spację tak szybko jak to możliwe. Uderz w spację gdy tylko zobaczysz podobiznę Grubbina lub słowo GRUBBIN. 

Naciśnij spację by rozpocząć zadanie",target2,stimuli/t2.jpg,81,48,stimuli/filler40.jpg,filler,False,None,,,,,,,,,,,,,,0,0,0,0,,,,,0,0,0,1,0,47,47,47,,,,,,,,,,,,,,,,,,,,,,,,,,,,,,,,,,,,,,,,,,,,,,,,,,,,,CS1_USneg,None,1,,,,,,,,,,,,,,,,,,35,m,81,n,2019_Nov_30_1716,ec_RRR,3.0.4,59.982279535545956,
Balas and Sarzynnska,"Dla tego zadania, docelową postacią jest Grubbin:","Więc gdy tylko Grubbin (jego imię lub jego podobizna) pojawi się na ekranie, naciśnij spację tak szybko jak to możliwe. Uderz w spację gdy tylko zobaczysz podobiznę Grubbina lub słowo GRUBBIN. 

Naciśnij spację by rozpocząć zadanie",target2,stimuli/t2.jpg,81,49,stimuli/filler23.jpg,filler,False,None,,,,,,,,,,,,,,0,0,0,0,,,,,0,0,0,1,0,48,48,48,,,,,,,,,,,,,,,,,,,,,,,,,,,,,,,,,,,,,,,,,,,,,,,,,,,,,CS1_USneg,None,1,,,,,,,,,,,,,,,,,,35,m,81,n,2019_Nov_30_1716,ec_RRR,3.0.4,59.982279535545956,
Balas and Sarzynnska,"Dla tego zadania, docelową postacią jest Grubbin:","Więc gdy tylko Grubbin (jego imię lub jego podobizna) pojawi się na ekranie, naciśnij spację tak szybko jak to możliwe. Uderz w spację gdy tylko zobaczysz podobiznę Grubbina lub słowo GRUBBIN. 

Naciśnij spację by rozpocząć zadanie",target2,stimuli/t2.jpg,81,50,stimuli/blank.jpg,blank,False,None,,,,,,,,,,,,,,0,0,0,0,,,,,0,0,0,1,0,49,49,49,,,,,,,,,,,,,,,,,,,,,,,,,,,,,,,,,,,,,,,,,,,,,,,,,,,,,CS1_USneg,None,1,,,,,,,,,,,,,,,,,,35,m,81,n,2019_Nov_30_1716,ec_RRR,3.0.4,59.982279535545956,
Balas and Sarzynnska,"Dla tego zadania, docelową postacią jest Grubbin:","Więc gdy tylko Grubbin (jego imię lub jego podobizna) pojawi się na ekranie, naciśnij spację tak szybko jak to możliwe. Uderz w spację gdy tylko zobaczysz podobiznę Grubbina lub słowo GRUBBIN. 

Naciśnij spację by rozpocząć zadanie",target2,stimuli/t2.jpg,81,51,stimuli/cs1_neg9.jpg,CSUS,False,None,,,,,,,,,,,,,,0,0,0,0,,,,,0,0,0,1,0,50,50,50,,,,,,,,,,,,,,,,,,,,,,,,,,,,,,,,,,,,,,,,,,,,,,,,,,,,,CS1_USneg,None,1,,,,,,,,,,,,,,,,,,35,m,81,n,2019_Nov_30_1716,ec_RRR,3.0.4,59.982279535545956,
Balas and Sarzynnska,"Dla tego zadania, docelową postacią jest Grubbin:","Więc gdy tylko Grubbin (jego imię lub jego podobizna) pojawi się na ekranie, naciśnij spację tak szybko jak to możliwe. Uderz w spację gdy tylko zobaczysz podobiznę Grubbina lub słowo GRUBBIN. 

Naciśnij spację by rozpocząć zadanie",target2,stimuli/t2.jpg,81,52,stimuli/blank.jpg,blank,False,None,,,,,,,,,,,,,,0,0,0,0,,,,,0,0,0,1,0,51,51,51,,,,,,,,,,,,,,,,,,,,,,,,,,,,,,,,,,,,,,,,,,,,,,,,,,,,,CS1_USneg,None,1,,,,,,,,,,,,,,,,,,35,m,81,n,2019_Nov_30_1716,ec_RRR,3.0.4,59.982279535545956,
Balas and Sarzynnska,"Dla tego zadania, docelową postacią jest Grubbin:","Więc gdy tylko Grubbin (jego imię lub jego podobizna) pojawi się na ekranie, naciśnij spację tak szybko jak to możliwe. Uderz w spację gdy tylko zobaczysz podobiznę Grubbina lub słowo GRUBBIN. 

Naciśnij spację by rozpocząć zadanie",target2,stimuli/t2.jpg,81,53,stimuli/target2_1.jpg,target,True,space,,,,,,,,,,,,,,0,0,0,0,,,,,0,0,0,1,0,52,52,52,,,,,,,,,,,,,,,,,,,,,,,,,,,,,,,,,,,,,,,,,,,,,,,,,,,,,CS1_USneg,space,1,0.4168666009209119,,,,,,,,,,,,,,,,,35,m,81,n,2019_Nov_30_1716,ec_RRR,3.0.4,59.982279535545956,
Balas and Sarzynnska,"Dla tego zadania, docelową postacią jest Grubbin:","Więc gdy tylko Grubbin (jego imię lub jego podobizna) pojawi się na ekranie, naciśnij spację tak szybko jak to możliwe. Uderz w spację gdy tylko zobaczysz podobiznę Grubbina lub słowo GRUBBIN. 

Naciśnij spację by rozpocząć zadanie",target2,stimuli/t2.jpg,81,54,stimuli/filler45.jpg,filler,False,None,,,,,,,,,,,,,,0,0,0,0,,,,,0,0,0,1,0,53,53,53,,,,,,,,,,,,,,,,,,,,,,,,,,,,,,,,,,,,,,,,,,,,,,,,,,,,,CS1_USneg,None,1,,,,,,,,,,,,,,,,,,35,m,81,n,2019_Nov_30_1716,ec_RRR,3.0.4,59.982279535545956,
Balas and Sarzynnska,"Dla tego zadania, docelową postacią jest Grubbin:","Więc gdy tylko Grubbin (jego imię lub jego podobizna) pojawi się na ekranie, naciśnij spację tak szybko jak to możliwe. Uderz w spację gdy tylko zobaczysz podobiznę Grubbina lub słowo GRUBBIN. 

Naciśnij spację by rozpocząć zadanie",target2,stimuli/t2.jpg,81,55,stimuli/filler29.jpg,filler,False,None,,,,,,,,,,,,,,0,0,0,0,,,,,0,0,0,1,0,54,54,54,,,,,,,,,,,,,,,,,,,,,,,,,,,,,,,,,,,,,,,,,,,,,,,,,,,,,CS1_USneg,None,1,,,,,,,,,,,,,,,,,,35,m,81,n,2019_Nov_30_1716,ec_RRR,3.0.4,59.982279535545956,
Balas and Sarzynnska,"Dla tego zadania, docelową postacią jest Grubbin:","Więc gdy tylko Grubbin (jego imię lub jego podobizna) pojawi się na ekranie, naciśnij spację tak szybko jak to możliwe. Uderz w spację gdy tylko zobaczysz podobiznę Grubbina lub słowo GRUBBIN. 

Naciśnij spację by rozpocząć zadanie",target2,stimuli/t2.jpg,81,56,stimuli/filler22.jpg,filler,False,None,,,,,,,,,,,,,,0,0,0,0,,,,,0,0,0,1,0,55,55,55,,,,,,,,,,,,,,,,,,,,,,,,,,,,,,,,,,,,,,,,,,,,,,,,,,,,,CS1_USneg,None,1,,,,,,,,,,,,,,,,,,35,m,81,n,2019_Nov_30_1716,ec_RRR,3.0.4,59.982279535545956,
Balas and Sarzynnska,"Dla tego zadania, docelową postacią jest Grubbin:","Więc gdy tylko Grubbin (jego imię lub jego podobizna) pojawi się na ekranie, naciśnij spację tak szybko jak to możliwe. Uderz w spację gdy tylko zobaczysz podobiznę Grubbina lub słowo GRUBBIN. 

Naciśnij spację by rozpocząć zadanie",target2,stimuli/t2.jpg,81,57,stimuli/filler46.jpg,filler,False,None,,,,,,,,,,,,,,0,0,0,0,,,,,0,0,0,1,0,56,56,56,,,,,,,,,,,,,,,,,,,,,,,,,,,,,,,,,,,,,,,,,,,,,,,,,,,,,CS1_USneg,None,1,,,,,,,,,,,,,,,,,,35,m,81,n,2019_Nov_30_1716,ec_RRR,3.0.4,59.982279535545956,
Balas and Sarzynnska,"Dla tego zadania, docelową postacią jest Grubbin:","Więc gdy tylko Grubbin (jego imię lub jego podobizna) pojawi się na ekranie, naciśnij spację tak szybko jak to możliwe. Uderz w spację gdy tylko zobaczysz podobiznę Grubbina lub słowo GRUBBIN. 

Naciśnij spację by rozpocząć zadanie",target2,stimuli/t2.jpg,81,58,stimuli/filler34.jpg,filler,False,None,,,,,,,,,,,,,,0,0,0,0,,,,,0,0,0,1,0,57,57,57,,,,,,,,,,,,,,,,,,,,,,,,,,,,,,,,,,,,,,,,,,,,,,,,,,,,,CS1_USneg,None,1,,,,,,,,,,,,,,,,,,35,m,81,n,2019_Nov_30_1716,ec_RRR,3.0.4,59.982279535545956,
Balas and Sarzynnska,"Dla tego zadania, docelową postacią jest Grubbin:","Więc gdy tylko Grubbin (jego imię lub jego podobizna) pojawi się na ekranie, naciśnij spację tak szybko jak to możliwe. Uderz w spację gdy tylko zobaczysz podobiznę Grubbina lub słowo GRUBBIN. 

Naciśnij spację by rozpocząć zadanie",target2,stimuli/t2.jpg,81,59,stimuli/filler20.jpg,filler,False,None,,,,,,,,,,,,,,0,0,0,0,,,,,0,0,0,1,0,58,58,58,,,,,,,,,,,,,,,,,,,,,,,,,,,,,,,,,,,,,,,,,,,,,,,,,,,,,CS1_USneg,None,1,,,,,,,,,,,,,,,,,,35,m,81,n,2019_Nov_30_1716,ec_RRR,3.0.4,59.982279535545956,
Balas and Sarzynnska,"Dla tego zadania, docelową postacią jest Grubbin:","Więc gdy tylko Grubbin (jego imię lub jego podobizna) pojawi się na ekranie, naciśnij spację tak szybko jak to możliwe. Uderz w spację gdy tylko zobaczysz podobiznę Grubbina lub słowo GRUBBIN. 

Naciśnij spację by rozpocząć zadanie",target2,stimuli/t2.jpg,81,60,stimuli/blank.jpg,blank,False,None,,,,,,,,,,,,,,0,0,0,0,,,,,0,0,0,1,0,59,59,59,,,,,,,,,,,,,,,,,,,,,,,,,,,,,,,,,,,,,,,,,,,,,,,,,,,,,CS1_USneg,None,1,,,,,,,,,,,,,,,,,,35,m,81,n,2019_Nov_30_1716,ec_RRR,3.0.4,59.982279535545956,
Balas and Sarzynnska,"Dla tego zadania, docelową postacią jest Grubbin:","Więc gdy tylko Grubbin (jego imię lub jego podobizna) pojawi się na ekranie, naciśnij spację tak szybko jak to możliwe. Uderz w spację gdy tylko zobaczysz podobiznę Grubbina lub słowo GRUBBIN. 

Naciśnij spację by rozpocząć zadanie",target2,stimuli/t2.jpg,81,61,stimuli/cs2_pos18.jpg,CSUS,False,None,,,,,,,,,,,,,,0,0,0,0,,,,,0,0,0,1,0,60,60,60,,,,,,,,,,,,,,,,,,,,,,,,,,,,,,,,,,,,,,,,,,,,,,,,,,,,,CS1_USneg,None,1,,,,,,,,,,,,,,,,,,35,m,81,n,2019_Nov_30_1716,ec_RRR,3.0.4,59.982279535545956,
Balas and Sarzynnska,"Dla tego zadania, docelową postacią jest Grubbin:","Więc gdy tylko Grubbin (jego imię lub jego podobizna) pojawi się na ekranie, naciśnij spację tak szybko jak to możliwe. Uderz w spację gdy tylko zobaczysz podobiznę Grubbina lub słowo GRUBBIN. 

Naciśnij spację by rozpocząć zadanie",target2,stimuli/t2.jpg,81,62,stimuli/blank.jpg,blank,False,None,,,,,,,,,,,,,,0,0,0,0,,,,,0,0,0,1,0,61,61,61,,,,,,,,,,,,,,,,,,,,,,,,,,,,,,,,,,,,,,,,,,,,,,,,,,,,,CS1_USneg,None,1,,,,,,,,,,,,,,,,,,35,m,81,n,2019_Nov_30_1716,ec_RRR,3.0.4,59.982279535545956,
Balas and Sarzynnska,"Dla tego zadania, docelową postacią jest Grubbin:","Więc gdy tylko Grubbin (jego imię lub jego podobizna) pojawi się na ekranie, naciśnij spację tak szybko jak to możliwe. Uderz w spację gdy tylko zobaczysz podobiznę Grubbina lub słowo GRUBBIN. 

Naciśnij spację by rozpocząć zadanie",target2,stimuli/t2.jpg,81,63,stimuli/filler14.jpg,filler,False,None,,,,,,,,,,,,,,0,0,0,0,,,,,0,0,0,1,0,62,62,62,,,,,,,,,,,,,,,,,,,,,,,,,,,,,,,,,,,,,,,,,,,,,,,,,,,,,CS1_USneg,None,1,,,,,,,,,,,,,,,,,,35,m,81,n,2019_Nov_30_1716,ec_RRR,3.0.4,59.982279535545956,
Balas and Sarzynnska,"Dla tego zadania, docelową postacią jest Grubbin:","Więc gdy tylko Grubbin (jego imię lub jego podobizna) pojawi się na ekranie, naciśnij spację tak szybko jak to możliwe. Uderz w spację gdy tylko zobaczysz podobiznę Grubbina lub słowo GRUBBIN. 

Naciśnij spację by rozpocząć zadanie",target2,stimuli/t2.jpg,81,64,stimuli/filler26.jpg,filler,False,None,,,,,,,,,,,,,,0,0,0,0,,,,,0,0,0,1,0,63,63,63,,,,,,,,,,,,,,,,,,,,,,,,,,,,,,,,,,,,,,,,,,,,,,,,,,,,,CS1_USneg,None,1,,,,,,,,,,,,,,,,,,35,m,81,n,2019_Nov_30_1716,ec_RRR,3.0.4,59.982279535545956,
Balas and Sarzynnska,"Dla tego zadania, docelową postacią jest Grubbin:","Więc gdy tylko Grubbin (jego imię lub jego podobizna) pojawi się na ekranie, naciśnij spację tak szybko jak to możliwe. Uderz w spację gdy tylko zobaczysz podobiznę Grubbina lub słowo GRUBBIN. 

Naciśnij spację by rozpocząć zadanie",target2,stimuli/t2.jpg,81,65,stimuli/filler39.jpg,filler,False,None,,,,,,,,,,,,,,0,0,0,0,,,,,0,0,0,1,0,64,64,64,,,,,,,,,,,,,,,,,,,,,,,,,,,,,,,,,,,,,,,,,,,,,,,,,,,,,CS1_USneg,None,1,,,,,,,,,,,,,,,,,,35,m,81,n,2019_Nov_30_1716,ec_RRR,3.0.4,59.982279535545956,
Balas and Sarzynnska,"Dla tego zadania, docelową postacią jest Grubbin:","Więc gdy tylko Grubbin (jego imię lub jego podobizna) pojawi się na ekranie, naciśnij spację tak szybko jak to możliwe. Uderz w spację gdy tylko zobaczysz podobiznę Grubbina lub słowo GRUBBIN. 

Naciśnij spację by rozpocząć zadanie",target2,stimuli/t2.jpg,81,66,stimuli/target2_9.jpg,target,True,space,,,,,,,,,,,,,,0,0,0,0,,,,,0,0,0,1,0,65,65,65,,,,,,,,,,,,,,,,,,,,,,,,,,,,,,,,,,,,,,,,,,,,,,,,,,,,,CS1_USneg,space,1,0.7669109151465818,,,,,,,,,,,,,,,,,35,m,81,n,2019_Nov_30_1716,ec_RRR,3.0.4,59.982279535545956,
Balas and Sarzynnska,"Dla tego zadania, docelową postacią jest Grubbin:","Więc gdy tylko Grubbin (jego imię lub jego podobizna) pojawi się na ekranie, naciśnij spację tak szybko jak to możliwe. Uderz w spację gdy tylko zobaczysz podobiznę Grubbina lub słowo GRUBBIN. 

Naciśnij spację by rozpocząć zadanie",target2,stimuli/t2.jpg,81,67,stimuli/filler6.jpg,filler,False,None,,,,,,,,,,,,,,0,0,0,0,,,,,0,0,0,1,0,66,66,66,,,,,,,,,,,,,,,,,,,,,,,,,,,,,,,,,,,,,,,,,,,,,,,,,,,,,CS1_USneg,None,1,,,,,,,,,,,,,,,,,,35,m,81,n,2019_Nov_30_1716,ec_RRR,3.0.4,59.982279535545956,
Balas and Sarzynnska,"Dla tego zadania, docelową postacią jest Grubbin:","Więc gdy tylko Grubbin (jego imię lub jego podobizna) pojawi się na ekranie, naciśnij spację tak szybko jak to możliwe. Uderz w spację gdy tylko zobaczysz podobiznę Grubbina lub słowo GRUBBIN. 

Naciśnij spację by rozpocząć zadanie",target2,stimuli/t2.jpg,81,68,stimuli/filler36.jpg,filler,False,None,,,,,,,,,,,,,,0,0,0,0,,,,,0,0,0,1,0,67,67,67,,,,,,,,,,,,,,,,,,,,,,,,,,,,,,,,,,,,,,,,,,,,,,,,,,,,,CS1_USneg,None,1,,,,,,,,,,,,,,,,,,35,m,81,n,2019_Nov_30_1716,ec_RRR,3.0.4,59.982279535545956,
Balas and Sarzynnska,"Dla tego zadania, docelową postacią jest Grubbin:","Więc gdy tylko Grubbin (jego imię lub jego podobizna) pojawi się na ekranie, naciśnij spację tak szybko jak to możliwe. Uderz w spację gdy tylko zobaczysz podobiznę Grubbina lub słowo GRUBBIN. 

Naciśnij spację by rozpocząć zadanie",target2,stimuli/t2.jpg,81,69,stimuli/target2_7.jpg,target,True,space,,,,,,,,,,,,,,0,0,0,0,,,,,0,0,0,1,0,68,68,68,,,,,,,,,,,,,,,,,,,,,,,,,,,,,,,,,,,,,,,,,,,,,,,,,,,,,CS1_USneg,space,1,0.6169267962104641,,,,,,,,,,,,,,,,,35,m,81,n,2019_Nov_30_1716,ec_RRR,3.0.4,59.982279535545956,
Balas and Sarzynnska,"Dla tego zadania, docelową postacią jest Grubbin:","Więc gdy tylko Grubbin (jego imię lub jego podobizna) pojawi się na ekranie, naciśnij spację tak szybko jak to możliwe. Uderz w spację gdy tylko zobaczysz podobiznę Grubbina lub słowo GRUBBIN. 

Naciśnij spację by rozpocząć zadanie",target2,stimuli/t2.jpg,81,70,stimuli/blank.jpg,blank,False,None,,,,,,,,,,,,,,0,0,0,0,,,,,0,0,0,1,0,69,69,69,,,,,,,,,,,,,,,,,,,,,,,,,,,,,,,,,,,,,,,,,,,,,,,,,,,,,CS1_USneg,None,1,,,,,,,,,,,,,,,,,,35,m,81,n,2019_Nov_30_1716,ec_RRR,3.0.4,59.982279535545956,
Balas and Sarzynnska,"Dla tego zadania, docelową postacią jest Grubbin:","Więc gdy tylko Grubbin (jego imię lub jego podobizna) pojawi się na ekranie, naciśnij spację tak szybko jak to możliwe. Uderz w spację gdy tylko zobaczysz podobiznę Grubbina lub słowo GRUBBIN. 

Naciśnij spację by rozpocząć zadanie",target2,stimuli/t2.jpg,81,71,stimuli/cs1_neg17.jpg,CSUS,False,None,,,,,,,,,,,,,,0,0,0,0,,,,,0,0,0,1,0,70,70,70,,,,,,,,,,,,,,,,,,,,,,,,,,,,,,,,,,,,,,,,,,,,,,,,,,,,,CS1_USneg,None,1,,,,,,,,,,,,,,,,,,35,m,81,n,2019_Nov_30_1716,ec_RRR,3.0.4,59.982279535545956,
Balas and Sarzynnska,"Dla tego zadania, docelową postacią jest Grubbin:","Więc gdy tylko Grubbin (jego imię lub jego podobizna) pojawi się na ekranie, naciśnij spację tak szybko jak to możliwe. Uderz w spację gdy tylko zobaczysz podobiznę Grubbina lub słowo GRUBBIN. 

Naciśnij spację by rozpocząć zadanie",target2,stimuli/t2.jpg,81,72,stimuli/blank.jpg,blank,False,None,,,,,,,,,,,,,,0,0,0,0,,,,,0,0,0,1,0,71,71,71,,,,,,,,,,,,,,,,,,,,,,,,,,,,,,,,,,,,,,,,,,,,,,,,,,,,,CS1_USneg,None,1,,,,,,,,,,,,,,,,,,35,m,81,n,2019_Nov_30_1716,ec_RRR,3.0.4,59.982279535545956,
Balas and Sarzynnska,"Dla tego zadania, docelową postacią jest Grubbin:","Więc gdy tylko Grubbin (jego imię lub jego podobizna) pojawi się na ekranie, naciśnij spację tak szybko jak to możliwe. Uderz w spację gdy tylko zobaczysz podobiznę Grubbina lub słowo GRUBBIN. 

Naciśnij spację by rozpocząć zadanie",target2,stimuli/t2.jpg,81,73,stimuli/filler30.jpg,filler,False,None,,,,,,,,,,,,,,0,0,0,0,,,,,0,0,0,1,0,72,72,72,,,,,,,,,,,,,,,,,,,,,,,,,,,,,,,,,,,,,,,,,,,,,,,,,,,,,CS1_USneg,None,1,,,,,,,,,,,,,,,,,,35,m,81,n,2019_Nov_30_1716,ec_RRR,3.0.4,59.982279535545956,
Balas and Sarzynnska,"Dla tego zadania, docelową postacią jest Grubbin:","Więc gdy tylko Grubbin (jego imię lub jego podobizna) pojawi się na ekranie, naciśnij spację tak szybko jak to możliwe. Uderz w spację gdy tylko zobaczysz podobiznę Grubbina lub słowo GRUBBIN. 

Naciśnij spację by rozpocząć zadanie",target2,stimuli/t2.jpg,81,74,stimuli/filler16.jpg,filler,False,None,,,,,,,,,,,,,,0,0,0,0,,,,,0,0,0,1,0,73,73,73,,,,,,,,,,,,,,,,,,,,,,,,,,,,,,,,,,,,,,,,,,,,,,,,,,,,,CS1_USneg,None,1,,,,,,,,,,,,,,,,,,35,m,81,n,2019_Nov_30_1716,ec_RRR,3.0.4,59.982279535545956,
Balas and Sarzynnska,"Dla tego zadania, docelową postacią jest Grubbin:","Więc gdy tylko Grubbin (jego imię lub jego podobizna) pojawi się na ekranie, naciśnij spację tak szybko jak to możliwe. Uderz w spację gdy tylko zobaczysz podobiznę Grubbina lub słowo GRUBBIN. 

Naciśnij spację by rozpocząć zadanie",target2,stimuli/t2.jpg,81,75,stimuli/target2_5.jpg,target,True,space,,,,,,,,,,,,,,0,0,0,0,,,,,0,0,0,1,0,74,74,74,,,,,,,,,,,,,,,,,,,,,,,,,,,,,,,,,,,,,,,,,,,,,,,,,,,,,CS1_USneg,space,1,0.5835719645838253,,,,,,,,,,,,,,,,,35,m,81,n,2019_Nov_30_1716,ec_RRR,3.0.4,59.982279535545956,
Balas and Sarzynnska,"Dla tego zadania, docelową postacią jest Grubbin:","Więc gdy tylko Grubbin (jego imię lub jego podobizna) pojawi się na ekranie, naciśnij spację tak szybko jak to możliwe. Uderz w spację gdy tylko zobaczysz podobiznę Grubbina lub słowo GRUBBIN. 

Naciśnij spację by rozpocząć zadanie",target2,stimuli/t2.jpg,81,76,stimuli/filler13.jpg,filler,False,None,,,,,,,,,,,,,,0,0,0,0,,,,,0,0,0,1,0,75,75,75,,,,,,,,,,,,,,,,,,,,,,,,,,,,,,,,,,,,,,,,,,,,,,,,,,,,,CS1_USneg,None,1,,,,,,,,,,,,,,,,,,35,m,81,n,2019_Nov_30_1716,ec_RRR,3.0.4,59.982279535545956,
Balas and Sarzynnska,"Dla tego zadania, docelową postacią jest Grubbin:","Więc gdy tylko Grubbin (jego imię lub jego podobizna) pojawi się na ekranie, naciśnij spację tak szybko jak to możliwe. Uderz w spację gdy tylko zobaczysz podobiznę Grubbina lub słowo GRUBBIN. 

Naciśnij spację by rozpocząć zadanie",target2,stimuli/t2.jpg,81,77,stimuli/target2_3.jpg,target,True,space,,,,,,,,,,,,,,0,0,0,0,,,,,0,0,0,1,0,76,76,76,,,,,,,,,,,,,,,,,,,,,,,,,,,,,,,,,,,,,,,,,,,,,,,,,,,,,CS1_USneg,space,1,0.5168808869202621,,,,,,,,,,,,,,,,,35,m,81,n,2019_Nov_30_1716,ec_RRR,3.0.4,59.982279535545956,
Balas and Sarzynnska,"Dla tego zadania, docelową postacią jest Grubbin:","Więc gdy tylko Grubbin (jego imię lub jego podobizna) pojawi się na ekranie, naciśnij spację tak szybko jak to możliwe. Uderz w spację gdy tylko zobaczysz podobiznę Grubbina lub słowo GRUBBIN. 

Naciśnij spację by rozpocząć zadanie",target2,stimuli/t2.jpg,81,78,stimuli/filler44.jpg,filler,False,None,,,,,,,,,,,,,,0,0,0,0,,,,,0,0,0,1,0,77,77,77,,,,,,,,,,,,,,,,,,,,,,,,,,,,,,,,,,,,,,,,,,,,,,,,,,,,,CS1_USneg,None,1,,,,,,,,,,,,,,,,,,35,m,81,n,2019_Nov_30_1716,ec_RRR,3.0.4,59.982279535545956,
Balas and Sarzynnska,"Dla tego zadania, docelową postacią jest Grubbin:","Więc gdy tylko Grubbin (jego imię lub jego podobizna) pojawi się na ekranie, naciśnij spację tak szybko jak to możliwe. Uderz w spację gdy tylko zobaczysz podobiznę Grubbina lub słowo GRUBBIN. 

Naciśnij spację by rozpocząć zadanie",target2,stimuli/t2.jpg,81,79,stimuli/filler12.jpg,filler,False,None,,,,,,,,,,,,,,0,0,0,0,,,,,0,0,0,1,0,78,78,78,,,,,,,,,,,,,,,,,,,,,,,,,,,,,,,,,,,,,,,,,,,,,,,,,,,,,CS1_USneg,None,1,,,,,,,,,,,,,,,,,,35,m,81,n,2019_Nov_30_1716,ec_RRR,3.0.4,59.982279535545956,
Balas and Sarzynnska,"Dla tego zadania, docelową postacią jest Grubbin:","Więc gdy tylko Grubbin (jego imię lub jego podobizna) pojawi się na ekranie, naciśnij spację tak szybko jak to możliwe. Uderz w spację gdy tylko zobaczysz podobiznę Grubbina lub słowo GRUBBIN. 

Naciśnij spację by rozpocząć zadanie",target2,stimuli/t2.jpg,81,80,stimuli/blank.jpg,blank,False,None,,,,,,,,,,,,,,0,0,0,0,,,,,0,0,0,1,0,79,79,79,,,,,,,,,,,,,,,,,,,,,,,,,,,,,,,,,,,,,,,,,,,,,,,,,,,,,CS1_USneg,None,1,,,,,,,,,,,,,,,,,,35,m,81,n,2019_Nov_30_1716,ec_RRR,3.0.4,59.982279535545956,
Balas and Sarzynnska,"Dla tego zadania, docelową postacią jest Grubbin:","Więc gdy tylko Grubbin (jego imię lub jego podobizna) pojawi się na ekranie, naciśnij spację tak szybko jak to możliwe. Uderz w spację gdy tylko zobaczysz podobiznę Grubbina lub słowo GRUBBIN. 

Naciśnij spację by rozpocząć zadanie",target2,stimuli/t2.jpg,81,81,stimuli/cs2_pos17.jpg,CSUS,False,None,,,,,,,,,,,,,,0,0,0,0,,,,,0,0,0,1,0,80,80,80,,,,,,,,,,,,,,,,,,,,,,,,,,,,,,,,,,,,,,,,,,,,,,,,,,,,,CS1_USneg,None,1,,,,,,,,,,,,,,,,,,35,m,81,n,2019_Nov_30_1716,ec_RRR,3.0.4,59.982279535545956,
Balas and Sarzynnska,"Dla tego zadania, docelową postacią jest Grubbin:","Więc gdy tylko Grubbin (jego imię lub jego podobizna) pojawi się na ekranie, naciśnij spację tak szybko jak to możliwe. Uderz w spację gdy tylko zobaczysz podobiznę Grubbina lub słowo GRUBBIN. 

Naciśnij spację by rozpocząć zadanie",target2,stimuli/t2.jpg,81,82,stimuli/blank.jpg,blank,False,None,,,,,,,,,,,,,,0,0,0,0,,,,,0,0,0,1,0,81,81,81,,,,,,,,,,,,,,,,,,,,,,,,,,,,,,,,,,,,,,,,,,,,,,,,,,,,,CS1_USneg,None,1,,,,,,,,,,,,,,,,,,35,m,81,n,2019_Nov_30_1716,ec_RRR,3.0.4,59.982279535545956,
Balas and Sarzynnska,"Dla tego zadania, docelową postacią jest Grubbin:","Więc gdy tylko Grubbin (jego imię lub jego podobizna) pojawi się na ekranie, naciśnij spację tak szybko jak to możliwe. Uderz w spację gdy tylko zobaczysz podobiznę Grubbina lub słowo GRUBBIN. 

Naciśnij spację by rozpocząć zadanie",target2,stimuli/t2.jpg,81,83,stimuli/target2_6.jpg,target,True,space,,,,,,,,,,,,,,0,0,0,0,,,,,0,0,0,1,0,82,82,82,,,,,,,,,,,,,,,,,,,,,,,,,,,,,,,,,,,,,,,,,,,,,,,,,,,,,CS1_USneg,space,1,0.550244317855686,,,,,,,,,,,,,,,,,35,m,81,n,2019_Nov_30_1716,ec_RRR,3.0.4,59.982279535545956,
Balas and Sarzynnska,"Dla tego zadania, docelową postacią jest Grubbin:","Więc gdy tylko Grubbin (jego imię lub jego podobizna) pojawi się na ekranie, naciśnij spację tak szybko jak to możliwe. Uderz w spację gdy tylko zobaczysz podobiznę Grubbina lub słowo GRUBBIN. 

Naciśnij spację by rozpocząć zadanie",target2,stimuli/t2.jpg,81,84,stimuli/target2_4.jpg,target,True,space,,,,,,,,,,,,,,0,0,0,0,,,,,0,0,0,1,0,83,83,83,,,,,,,,,,,,,,,,,,,,,,,,,,,,,,,,,,,,,,,,,,,,,,,,,,,,,CS1_USneg,space,1,0.8835321579826996,,,,,,,,,,,,,,,,,35,m,81,n,2019_Nov_30_1716,ec_RRR,3.0.4,59.982279535545956,
Balas and Sarzynnska,"Dla tego zadania, docelową postacią jest Grubbin:","Więc gdy tylko Grubbin (jego imię lub jego podobizna) pojawi się na ekranie, naciśnij spację tak szybko jak to możliwe. Uderz w spację gdy tylko zobaczysz podobiznę Grubbina lub słowo GRUBBIN. 

Naciśnij spację by rozpocząć zadanie",target2,stimuli/t2.jpg,81,85,stimuli/filler11.jpg,filler,False,None,,,,,,,,,,,,,,0,0,0,0,,,,,0,0,0,1,0,84,84,84,,,,,,,,,,,,,,,,,,,,,,,,,,,,,,,,,,,,,,,,,,,,,,,,,,,,,CS1_USneg,None,1,,,,,,,,,,,,,,,,,,35,m,81,n,2019_Nov_30_1716,ec_RRR,3.0.4,59.982279535545956,
Balas and Sarzynnska,"Dla tego zadania, docelową postacią jest Grubbin:","Więc gdy tylko Grubbin (jego imię lub jego podobizna) pojawi się na ekranie, naciśnij spację tak szybko jak to możliwe. Uderz w spację gdy tylko zobaczysz podobiznę Grubbina lub słowo GRUBBIN. 

Naciśnij spację by rozpocząć zadanie",target2,stimuli/t2.jpg,81,86,stimuli/filler10.jpg,filler,False,None,,,,,,,,,,,,,,0,0,0,0,,,,,0,0,0,1,0,85,85,85,,,,,,,,,,,,,,,,,,,,,,,,,,,,,,,,,,,,,,,,,,,,,,,,,,,,,CS1_USneg,None,1,,,,,,,,,,,,,,,,,,35,m,81,n,2019_Nov_30_1716,ec_RRR,3.0.4,59.982279535545956,
Balas and Sarzynnska,"Dla tego zadania, docelową postacią jest Scatterbug:","Więc gdy tylko Scatterbug (jego imię lub jego podobizna) pojawi się na ekranie, naciśnij spację tak szybko jak to możliwe. Uderz w spację gdy tylko zobaczysz podobiznę Scatterbuga lub słowo SCATTERBUG.

Naciśnij spację by rozpocząć zadanie",target5,stimuli/t5.jpg,81,1,stimuli/filler19.jpg,filler,False,None,,,,,,,,,,,,,,0,0,0,0,,,,,0,1,1,4,0,0,0,0,,,,,,,,,,,,,,,,,,,,,,,,,,,,,,,,,,,,,,,,,,,,,,,,,,,,,CS1_USneg,None,1,,,,,,,,,,,,,,,,,,35,m,81,n,2019_Nov_30_1716,ec_RRR,3.0.4,59.982279535545956,
Balas and Sarzynnska,"Dla tego zadania, docelową postacią jest Scatterbug:","Więc gdy tylko Scatterbug (jego imię lub jego podobizna) pojawi się na ekranie, naciśnij spację tak szybko jak to możliwe. Uderz w spację gdy tylko zobaczysz podobiznę Scatterbuga lub słowo SCATTERBUG.

Naciśnij spację by rozpocząć zadanie",target5,stimuli/t5.jpg,81,2,stimuli/filler41.jpg,filler,False,None,,,,,,,,,,,,,,0,0,0,0,,,,,0,1,1,4,0,1,1,1,,,,,,,,,,,,,,,,,,,,,,,,,,,,,,,,,,,,,,,,,,,,,,,,,,,,,CS1_USneg,None,1,,,,,,,,,,,,,,,,,,35,m,81,n,2019_Nov_30_1716,ec_RRR,3.0.4,59.982279535545956,
Balas and Sarzynnska,"Dla tego zadania, docelową postacią jest Scatterbug:","Więc gdy tylko Scatterbug (jego imię lub jego podobizna) pojawi się na ekranie, naciśnij spację tak szybko jak to możliwe. Uderz w spację gdy tylko zobaczysz podobiznę Scatterbuga lub słowo SCATTERBUG.

Naciśnij spację by rozpocząć zadanie",target5,stimuli/t5.jpg,81,3,stimuli/filler23.jpg,filler,False,None,,,,,,,,,,,,,,0,0,0,0,,,,,0,1,1,4,0,2,2,2,,,,,,,,,,,,,,,,,,,,,,,,,,,,,,,,,,,,,,,,,,,,,,,,,,,,,CS1_USneg,None,1,,,,,,,,,,,,,,,,,,35,m,81,n,2019_Nov_30_1716,ec_RRR,3.0.4,59.982279535545956,
Balas and Sarzynnska,"Dla tego zadania, docelową postacią jest Scatterbug:","Więc gdy tylko Scatterbug (jego imię lub jego podobizna) pojawi się na ekranie, naciśnij spację tak szybko jak to możliwe. Uderz w spację gdy tylko zobaczysz podobiznę Scatterbuga lub słowo SCATTERBUG.

Naciśnij spację by rozpocząć zadanie",target5,stimuli/t5.jpg,81,4,stimuli/filler1.jpg,filler,False,None,,,,,,,,,,,,,,0,0,0,0,,,,,0,1,1,4,0,3,3,3,,,,,,,,,,,,,,,,,,,,,,,,,,,,,,,,,,,,,,,,,,,,,,,,,,,,,CS1_USneg,None,1,,,,,,,,,,,,,,,,,,35,m,81,n,2019_Nov_30_1716,ec_RRR,3.0.4,59.982279535545956,
Balas and Sarzynnska,"Dla tego zadania, docelową postacią jest Scatterbug:","Więc gdy tylko Scatterbug (jego imię lub jego podobizna) pojawi się na ekranie, naciśnij spację tak szybko jak to możliwe. Uderz w spację gdy tylko zobaczysz podobiznę Scatterbuga lub słowo SCATTERBUG.

Naciśnij spację by rozpocząć zadanie",target5,stimuli/t5.jpg,81,5,stimuli/filler20.jpg,filler,False,None,,,,,,,,,,,,,,0,0,0,0,,,,,0,1,1,4,0,4,4,4,,,,,,,,,,,,,,,,,,,,,,,,,,,,,,,,,,,,,,,,,,,,,,,,,,,,,CS1_USneg,None,1,,,,,,,,,,,,,,,,,,35,m,81,n,2019_Nov_30_1716,ec_RRR,3.0.4,59.982279535545956,
Balas and Sarzynnska,"Dla tego zadania, docelową postacią jest Scatterbug:","Więc gdy tylko Scatterbug (jego imię lub jego podobizna) pojawi się na ekranie, naciśnij spację tak szybko jak to możliwe. Uderz w spację gdy tylko zobaczysz podobiznę Scatterbuga lub słowo SCATTERBUG.

Naciśnij spację by rozpocząć zadanie",target5,stimuli/t5.jpg,81,6,stimuli/filler8.jpg,filler,False,None,,,,,,,,,,,,,,0,0,0,0,,,,,0,1,1,4,0,5,5,5,,,,,,,,,,,,,,,,,,,,,,,,,,,,,,,,,,,,,,,,,,,,,,,,,,,,,CS1_USneg,None,1,,,,,,,,,,,,,,,,,,35,m,81,n,2019_Nov_30_1716,ec_RRR,3.0.4,59.982279535545956,
Balas and Sarzynnska,"Dla tego zadania, docelową postacią jest Scatterbug:","Więc gdy tylko Scatterbug (jego imię lub jego podobizna) pojawi się na ekranie, naciśnij spację tak szybko jak to możliwe. Uderz w spację gdy tylko zobaczysz podobiznę Scatterbuga lub słowo SCATTERBUG.

Naciśnij spację by rozpocząć zadanie",target5,stimuli/t5.jpg,81,7,stimuli/target5_5.jpg,target,True,space,,,,,,,,,,,,,,0,0,0,0,,,,,0,1,1,4,0,6,6,6,,,,,,,,,,,,,,,,,,,,,,,,,,,,,,,,,,,,,,,,,,,,,,,,,,,,,CS1_USneg,space,1,1.0502586038201116,,,,,,,,,,,,,,,,,35,m,81,n,2019_Nov_30_1716,ec_RRR,3.0.4,59.982279535545956,
Balas and Sarzynnska,"Dla tego zadania, docelową postacią jest Scatterbug:","Więc gdy tylko Scatterbug (jego imię lub jego podobizna) pojawi się na ekranie, naciśnij spację tak szybko jak to możliwe. Uderz w spację gdy tylko zobaczysz podobiznę Scatterbuga lub słowo SCATTERBUG.

Naciśnij spację by rozpocząć zadanie",target5,stimuli/t5.jpg,81,8,stimuli/target5_8.jpg,target,True,space,,,,,,,,,,,,,,0,0,0,0,,,,,0,1,1,4,0,7,7,7,,,,,,,,,,,,,,,,,,,,,,,,,,,,,,,,,,,,,,,,,,,,,,,,,,,,,CS1_USneg,space,1,1.100223166286014,,,,,,,,,,,,,,,,,35,m,81,n,2019_Nov_30_1716,ec_RRR,3.0.4,59.982279535545956,
Balas and Sarzynnska,"Dla tego zadania, docelową postacią jest Scatterbug:","Więc gdy tylko Scatterbug (jego imię lub jego podobizna) pojawi się na ekranie, naciśnij spację tak szybko jak to możliwe. Uderz w spację gdy tylko zobaczysz podobiznę Scatterbuga lub słowo SCATTERBUG.

Naciśnij spację by rozpocząć zadanie",target5,stimuli/t5.jpg,81,9,stimuli/target5_10.jpg,target,True,space,,,,,,,,,,,,,,0,0,0,0,,,,,0,1,1,4,0,8,8,8,,,,,,,,,,,,,,,,,,,,,,,,,,,,,,,,,,,,,,,,,,,,,,,,,,,,,CS1_USneg,space,1,0.6335795236518607,,,,,,,,,,,,,,,,,35,m,81,n,2019_Nov_30_1716,ec_RRR,3.0.4,59.982279535545956,
Balas and Sarzynnska,"Dla tego zadania, docelową postacią jest Scatterbug:","Więc gdy tylko Scatterbug (jego imię lub jego podobizna) pojawi się na ekranie, naciśnij spację tak szybko jak to możliwe. Uderz w spację gdy tylko zobaczysz podobiznę Scatterbuga lub słowo SCATTERBUG.

Naciśnij spację by rozpocząć zadanie",target5,stimuli/t5.jpg,81,10,stimuli/blank.jpg,blank,False,None,,,,,,,,,,,,,,0,0,0,0,,,,,0,1,1,4,0,9,9,9,,,,,,,,,,,,,,,,,,,,,,,,,,,,,,,,,,,,,,,,,,,,,,,,,,,,,CS1_USneg,None,1,,,,,,,,,,,,,,,,,,35,m,81,n,2019_Nov_30_1716,ec_RRR,3.0.4,59.982279535545956,
Balas and Sarzynnska,"Dla tego zadania, docelową postacią jest Scatterbug:","Więc gdy tylko Scatterbug (jego imię lub jego podobizna) pojawi się na ekranie, naciśnij spację tak szybko jak to możliwe. Uderz w spację gdy tylko zobaczysz podobiznę Scatterbuga lub słowo SCATTERBUG.

Naciśnij spację by rozpocząć zadanie",target5,stimuli/t5.jpg,81,11,stimuli/cs1_neg3.jpg,CSUS,False,None,,,,,,,,,,,,,,0,0,0,0,,,,,0,1,1,4,0,10,10,10,,,,,,,,,,,,,,,,,,,,,,,,,,,,,,,,,,,,,,,,,,,,,,,,,,,,,CS1_USneg,None,1,,,,,,,,,,,,,,,,,,35,m,81,n,2019_Nov_30_1716,ec_RRR,3.0.4,59.982279535545956,
Balas and Sarzynnska,"Dla tego zadania, docelową postacią jest Scatterbug:","Więc gdy tylko Scatterbug (jego imię lub jego podobizna) pojawi się na ekranie, naciśnij spację tak szybko jak to możliwe. Uderz w spację gdy tylko zobaczysz podobiznę Scatterbuga lub słowo SCATTERBUG.

Naciśnij spację by rozpocząć zadanie",target5,stimuli/t5.jpg,81,12,stimuli/blank.jpg,blank,False,None,,,,,,,,,,,,,,0,0,0,0,,,,,0,1,1,4,0,11,11,11,,,,,,,,,,,,,,,,,,,,,,,,,,,,,,,,,,,,,,,,,,,,,,,,,,,,,CS1_USneg,None,1,,,,,,,,,,,,,,,,,,35,m,81,n,2019_Nov_30_1716,ec_RRR,3.0.4,59.982279535545956,
Balas and Sarzynnska,"Dla tego zadania, docelową postacią jest Scatterbug:","Więc gdy tylko Scatterbug (jego imię lub jego podobizna) pojawi się na ekranie, naciśnij spację tak szybko jak to możliwe. Uderz w spację gdy tylko zobaczysz podobiznę Scatterbuga lub słowo SCATTERBUG.

Naciśnij spację by rozpocząć zadanie",target5,stimuli/t5.jpg,81,13,stimuli/filler15.jpg,filler,False,None,,,,,,,,,,,,,,0,0,0,0,,,,,0,1,1,4,0,12,12,12,,,,,,,,,,,,,,,,,,,,,,,,,,,,,,,,,,,,,,,,,,,,,,,,,,,,,CS1_USneg,None,1,,,,,,,,,,,,,,,,,,35,m,81,n,2019_Nov_30_1716,ec_RRR,3.0.4,59.982279535545956,
Balas and Sarzynnska,"Dla tego zadania, docelową postacią jest Scatterbug:","Więc gdy tylko Scatterbug (jego imię lub jego podobizna) pojawi się na ekranie, naciśnij spację tak szybko jak to możliwe. Uderz w spację gdy tylko zobaczysz podobiznę Scatterbuga lub słowo SCATTERBUG.

Naciśnij spację by rozpocząć zadanie",target5,stimuli/t5.jpg,81,14,stimuli/target5_6.jpg,target,True,space,,,,,,,,,,,,,,0,0,0,0,,,,,0,1,1,4,0,13,13,13,,,,,,,,,,,,,,,,,,,,,,,,,,,,,,,,,,,,,,,,,,,,,,,,,,,,,CS1_USneg,space,1,0.8669523861026391,,,,,,,,,,,,,,,,,35,m,81,n,2019_Nov_30_1716,ec_RRR,3.0.4,59.982279535545956,
Balas and Sarzynnska,"Dla tego zadania, docelową postacią jest Scatterbug:","Więc gdy tylko Scatterbug (jego imię lub jego podobizna) pojawi się na ekranie, naciśnij spację tak szybko jak to możliwe. Uderz w spację gdy tylko zobaczysz podobiznę Scatterbuga lub słowo SCATTERBUG.

Naciśnij spację by rozpocząć zadanie",target5,stimuli/t5.jpg,81,15,stimuli/filler2.jpg,filler,False,None,,,,,,,,,,,,,,0,0,0,0,,,,,0,1,1,4,0,14,14,14,,,,,,,,,,,,,,,,,,,,,,,,,,,,,,,,,,,,,,,,,,,,,,,,,,,,,CS1_USneg,None,1,,,,,,,,,,,,,,,,,,35,m,81,n,2019_Nov_30_1716,ec_RRR,3.0.4,59.982279535545956,
Balas and Sarzynnska,"Dla tego zadania, docelową postacią jest Scatterbug:","Więc gdy tylko Scatterbug (jego imię lub jego podobizna) pojawi się na ekranie, naciśnij spację tak szybko jak to możliwe. Uderz w spację gdy tylko zobaczysz podobiznę Scatterbuga lub słowo SCATTERBUG.

Naciśnij spację by rozpocząć zadanie",target5,stimuli/t5.jpg,81,16,stimuli/filler22.jpg,filler,False,None,,,,,,,,,,,,,,0,0,0,0,,,,,0,1,1,4,0,15,15,15,,,,,,,,,,,,,,,,,,,,,,,,,,,,,,,,,,,,,,,,,,,,,,,,,,,,,CS1_USneg,None,1,,,,,,,,,,,,,,,,,,35,m,81,n,2019_Nov_30_1716,ec_RRR,3.0.4,59.982279535545956,
Balas and Sarzynnska,"Dla tego zadania, docelową postacią jest Scatterbug:","Więc gdy tylko Scatterbug (jego imię lub jego podobizna) pojawi się na ekranie, naciśnij spację tak szybko jak to możliwe. Uderz w spację gdy tylko zobaczysz podobiznę Scatterbuga lub słowo SCATTERBUG.

Naciśnij spację by rozpocząć zadanie",target5,stimuli/t5.jpg,81,17,stimuli/filler29.jpg,filler,False,None,,,,,,,,,,,,,,0,0,0,0,,,,,0,1,1,4,0,16,16,16,,,,,,,,,,,,,,,,,,,,,,,,,,,,,,,,,,,,,,,,,,,,,,,,,,,,,CS1_USneg,None,1,,,,,,,,,,,,,,,,,,35,m,81,n,2019_Nov_30_1716,ec_RRR,3.0.4,59.982279535545956,
Balas and Sarzynnska,"Dla tego zadania, docelową postacią jest Scatterbug:","Więc gdy tylko Scatterbug (jego imię lub jego podobizna) pojawi się na ekranie, naciśnij spację tak szybko jak to możliwe. Uderz w spację gdy tylko zobaczysz podobiznę Scatterbuga lub słowo SCATTERBUG.

Naciśnij spację by rozpocząć zadanie",target5,stimuli/t5.jpg,81,18,stimuli/filler39.jpg,filler,False,None,,,,,,,,,,,,,,0,0,0,0,,,,,0,1,1,4,0,17,17,17,,,,,,,,,,,,,,,,,,,,,,,,,,,,,,,,,,,,,,,,,,,,,,,,,,,,,CS1_USneg,None,1,,,,,,,,,,,,,,,,,,35,m,81,n,2019_Nov_30_1716,ec_RRR,3.0.4,59.982279535545956,
Balas and Sarzynnska,"Dla tego zadania, docelową postacią jest Scatterbug:","Więc gdy tylko Scatterbug (jego imię lub jego podobizna) pojawi się na ekranie, naciśnij spację tak szybko jak to możliwe. Uderz w spację gdy tylko zobaczysz podobiznę Scatterbuga lub słowo SCATTERBUG.

Naciśnij spację by rozpocząć zadanie",target5,stimuli/t5.jpg,81,19,stimuli/filler31.jpg,filler,False,None,,,,,,,,,,,,,,0,0,0,0,,,,,0,1,1,4,0,18,18,18,,,,,,,,,,,,,,,,,,,,,,,,,,,,,,,,,,,,,,,,,,,,,,,,,,,,,CS1_USneg,None,1,,,,,,,,,,,,,,,,,,35,m,81,n,2019_Nov_30_1716,ec_RRR,3.0.4,59.982279535545956,
Balas and Sarzynnska,"Dla tego zadania, docelową postacią jest Scatterbug:","Więc gdy tylko Scatterbug (jego imię lub jego podobizna) pojawi się na ekranie, naciśnij spację tak szybko jak to możliwe. Uderz w spację gdy tylko zobaczysz podobiznę Scatterbuga lub słowo SCATTERBUG.

Naciśnij spację by rozpocząć zadanie",target5,stimuli/t5.jpg,81,20,stimuli/blank.jpg,blank,False,None,,,,,,,,,,,,,,0,0,0,0,,,,,0,1,1,4,0,19,19,19,,,,,,,,,,,,,,,,,,,,,,,,,,,,,,,,,,,,,,,,,,,,,,,,,,,,,CS1_USneg,None,1,,,,,,,,,,,,,,,,,,35,m,81,n,2019_Nov_30_1716,ec_RRR,3.0.4,59.982279535545956,
Balas and Sarzynnska,"Dla tego zadania, docelową postacią jest Scatterbug:","Więc gdy tylko Scatterbug (jego imię lub jego podobizna) pojawi się na ekranie, naciśnij spację tak szybko jak to możliwe. Uderz w spację gdy tylko zobaczysz podobiznę Scatterbuga lub słowo SCATTERBUG.

Naciśnij spację by rozpocząć zadanie",target5,stimuli/t5.jpg,81,21,stimuli/cs2_pos2.jpg,CSUS,False,None,,,,,,,,,,,,,,0,0,0,0,,,,,0,1,1,4,0,20,20,20,,,,,,,,,,,,,,,,,,,,,,,,,,,,,,,,,,,,,,,,,,,,,,,,,,,,,CS1_USneg,None,1,,,,,,,,,,,,,,,,,,35,m,81,n,2019_Nov_30_1716,ec_RRR,3.0.4,59.982279535545956,
Balas and Sarzynnska,"Dla tego zadania, docelową postacią jest Scatterbug:","Więc gdy tylko Scatterbug (jego imię lub jego podobizna) pojawi się na ekranie, naciśnij spację tak szybko jak to możliwe. Uderz w spację gdy tylko zobaczysz podobiznę Scatterbuga lub słowo SCATTERBUG.

Naciśnij spację by rozpocząć zadanie",target5,stimuli/t5.jpg,81,22,stimuli/blank.jpg,blank,False,None,,,,,,,,,,,,,,0,0,0,0,,,,,0,1,1,4,0,21,21,21,,,,,,,,,,,,,,,,,,,,,,,,,,,,,,,,,,,,,,,,,,,,,,,,,,,,,CS1_USneg,None,1,,,,,,,,,,,,,,,,,,35,m,81,n,2019_Nov_30_1716,ec_RRR,3.0.4,59.982279535545956,
Balas and Sarzynnska,"Dla tego zadania, docelową postacią jest Scatterbug:","Więc gdy tylko Scatterbug (jego imię lub jego podobizna) pojawi się na ekranie, naciśnij spację tak szybko jak to możliwe. Uderz w spację gdy tylko zobaczysz podobiznę Scatterbuga lub słowo SCATTERBUG.

Naciśnij spację by rozpocząć zadanie",target5,stimuli/t5.jpg,81,23,stimuli/filler3.jpg,filler,False,None,,,,,,,,,,,,,,0,0,0,0,,,,,0,1,1,4,0,22,22,22,,,,,,,,,,,,,,,,,,,,,,,,,,,,,,,,,,,,,,,,,,,,,,,,,,,,,CS1_USneg,None,1,,,,,,,,,,,,,,,,,,35,m,81,n,2019_Nov_30_1716,ec_RRR,3.0.4,59.982279535545956,
Balas and Sarzynnska,"Dla tego zadania, docelową postacią jest Scatterbug:","Więc gdy tylko Scatterbug (jego imię lub jego podobizna) pojawi się na ekranie, naciśnij spację tak szybko jak to możliwe. Uderz w spację gdy tylko zobaczysz podobiznę Scatterbuga lub słowo SCATTERBUG.

Naciśnij spację by rozpocząć zadanie",target5,stimuli/t5.jpg,81,24,stimuli/filler34.jpg,filler,False,None,,,,,,,,,,,,,,0,0,0,0,,,,,0,1,1,4,0,23,23,23,,,,,,,,,,,,,,,,,,,,,,,,,,,,,,,,,,,,,,,,,,,,,,,,,,,,,CS1_USneg,None,1,,,,,,,,,,,,,,,,,,35,m,81,n,2019_Nov_30_1716,ec_RRR,3.0.4,59.982279535545956,
Balas and Sarzynnska,"Dla tego zadania, docelową postacią jest Scatterbug:","Więc gdy tylko Scatterbug (jego imię lub jego podobizna) pojawi się na ekranie, naciśnij spację tak szybko jak to możliwe. Uderz w spację gdy tylko zobaczysz podobiznę Scatterbuga lub słowo SCATTERBUG.

Naciśnij spację by rozpocząć zadanie",target5,stimuli/t5.jpg,81,25,stimuli/filler4.jpg,filler,False,None,,,,,,,,,,,,,,0,0,0,0,,,,,0,1,1,4,0,24,24,24,,,,,,,,,,,,,,,,,,,,,,,,,,,,,,,,,,,,,,,,,,,,,,,,,,,,,CS1_USneg,None,1,,,,,,,,,,,,,,,,,,35,m,81,n,2019_Nov_30_1716,ec_RRR,3.0.4,59.982279535545956,
Balas and Sarzynnska,"Dla tego zadania, docelową postacią jest Scatterbug:","Więc gdy tylko Scatterbug (jego imię lub jego podobizna) pojawi się na ekranie, naciśnij spację tak szybko jak to możliwe. Uderz w spację gdy tylko zobaczysz podobiznę Scatterbuga lub słowo SCATTERBUG.

Naciśnij spację by rozpocząć zadanie",target5,stimuli/t5.jpg,81,26,stimuli/filler45.jpg,filler,False,None,,,,,,,,,,,,,,0,0,0,0,,,,,0,1,1,4,0,25,25,25,,,,,,,,,,,,,,,,,,,,,,,,,,,,,,,,,,,,,,,,,,,,,,,,,,,,,CS1_USneg,None,1,,,,,,,,,,,,,,,,,,35,m,81,n,2019_Nov_30_1716,ec_RRR,3.0.4,59.982279535545956,
Balas and Sarzynnska,"Dla tego zadania, docelową postacią jest Scatterbug:","Więc gdy tylko Scatterbug (jego imię lub jego podobizna) pojawi się na ekranie, naciśnij spację tak szybko jak to możliwe. Uderz w spację gdy tylko zobaczysz podobiznę Scatterbuga lub słowo SCATTERBUG.

Naciśnij spację by rozpocząć zadanie",target5,stimuli/t5.jpg,81,27,stimuli/filler47.jpg,filler,False,None,,,,,,,,,,,,,,0,0,0,0,,,,,0,1,1,4,0,26,26,26,,,,,,,,,,,,,,,,,,,,,,,,,,,,,,,,,,,,,,,,,,,,,,,,,,,,,CS1_USneg,None,1,,,,,,,,,,,,,,,,,,35,m,81,n,2019_Nov_30_1716,ec_RRR,3.0.4,59.982279535545956,
Balas and Sarzynnska,"Dla tego zadania, docelową postacią jest Scatterbug:","Więc gdy tylko Scatterbug (jego imię lub jego podobizna) pojawi się na ekranie, naciśnij spację tak szybko jak to możliwe. Uderz w spację gdy tylko zobaczysz podobiznę Scatterbuga lub słowo SCATTERBUG.

Naciśnij spację by rozpocząć zadanie",target5,stimuli/t5.jpg,81,28,stimuli/filler52.jpg,filler,False,None,,,,,,,,,,,,,,0,0,0,0,,,,,0,1,1,4,0,27,27,27,,,,,,,,,,,,,,,,,,,,,,,,,,,,,,,,,,,,,,,,,,,,,,,,,,,,,CS1_USneg,None,1,,,,,,,,,,,,,,,,,,35,m,81,n,2019_Nov_30_1716,ec_RRR,3.0.4,59.982279535545956,
Balas and Sarzynnska,"Dla tego zadania, docelową postacią jest Scatterbug:","Więc gdy tylko Scatterbug (jego imię lub jego podobizna) pojawi się na ekranie, naciśnij spację tak szybko jak to możliwe. Uderz w spację gdy tylko zobaczysz podobiznę Scatterbuga lub słowo SCATTERBUG.

Naciśnij spację by rozpocząć zadanie",target5,stimuli/t5.jpg,81,29,stimuli/filler43.jpg,filler,False,None,,,,,,,,,,,,,,0,0,0,0,,,,,0,1,1,4,0,28,28,28,,,,,,,,,,,,,,,,,,,,,,,,,,,,,,,,,,,,,,,,,,,,,,,,,,,,,CS1_USneg,None,1,,,,,,,,,,,,,,,,,,35,m,81,n,2019_Nov_30_1716,ec_RRR,3.0.4,59.982279535545956,
Balas and Sarzynnska,"Dla tego zadania, docelową postacią jest Scatterbug:","Więc gdy tylko Scatterbug (jego imię lub jego podobizna) pojawi się na ekranie, naciśnij spację tak szybko jak to możliwe. Uderz w spację gdy tylko zobaczysz podobiznę Scatterbuga lub słowo SCATTERBUG.

Naciśnij spację by rozpocząć zadanie",target5,stimuli/t5.jpg,81,30,stimuli/blank.jpg,blank,False,None,,,,,,,,,,,,,,0,0,0,0,,,,,0,1,1,4,0,29,29,29,,,,,,,,,,,,,,,,,,,,,,,,,,,,,,,,,,,,,,,,,,,,,,,,,,,,,CS1_USneg,None,1,,,,,,,,,,,,,,,,,,35,m,81,n,2019_Nov_30_1716,ec_RRR,3.0.4,59.982279535545956,
Balas and Sarzynnska,"Dla tego zadania, docelową postacią jest Scatterbug:","Więc gdy tylko Scatterbug (jego imię lub jego podobizna) pojawi się na ekranie, naciśnij spację tak szybko jak to możliwe. Uderz w spację gdy tylko zobaczysz podobiznę Scatterbuga lub słowo SCATTERBUG.

Naciśnij spację by rozpocząć zadanie",target5,stimuli/t5.jpg,81,31,stimuli/cs1_neg10.jpg,CSUS,False,None,,,,,,,,,,,,,,0,0,0,0,,,,,0,1,1,4,0,30,30,30,,,,,,,,,,,,,,,,,,,,,,,,,,,,,,,,,,,,,,,,,,,,,,,,,,,,,CS1_USneg,None,1,,,,,,,,,,,,,,,,,,35,m,81,n,2019_Nov_30_1716,ec_RRR,3.0.4,59.982279535545956,
Balas and Sarzynnska,"Dla tego zadania, docelową postacią jest Scatterbug:","Więc gdy tylko Scatterbug (jego imię lub jego podobizna) pojawi się na ekranie, naciśnij spację tak szybko jak to możliwe. Uderz w spację gdy tylko zobaczysz podobiznę Scatterbuga lub słowo SCATTERBUG.

Naciśnij spację by rozpocząć zadanie",target5,stimuli/t5.jpg,81,32,stimuli/blank.jpg,blank,False,None,,,,,,,,,,,,,,0,0,0,0,,,,,0,1,1,4,0,31,31,31,,,,,,,,,,,,,,,,,,,,,,,,,,,,,,,,,,,,,,,,,,,,,,,,,,,,,CS1_USneg,None,1,,,,,,,,,,,,,,,,,,35,m,81,n,2019_Nov_30_1716,ec_RRR,3.0.4,59.982279535545956,
Balas and Sarzynnska,"Dla tego zadania, docelową postacią jest Scatterbug:","Więc gdy tylko Scatterbug (jego imię lub jego podobizna) pojawi się na ekranie, naciśnij spację tak szybko jak to możliwe. Uderz w spację gdy tylko zobaczysz podobiznę Scatterbuga lub słowo SCATTERBUG.

Naciśnij spację by rozpocząć zadanie",target5,stimuli/t5.jpg,81,33,stimuli/filler44.jpg,filler,False,None,,,,,,,,,,,,,,0,0,0,0,,,,,0,1,1,4,0,32,32,32,,,,,,,,,,,,,,,,,,,,,,,,,,,,,,,,,,,,,,,,,,,,,,,,,,,,,CS1_USneg,None,1,,,,,,,,,,,,,,,,,,35,m,81,n,2019_Nov_30_1716,ec_RRR,3.0.4,59.982279535545956,
Balas and Sarzynnska,"Dla tego zadania, docelową postacią jest Scatterbug:","Więc gdy tylko Scatterbug (jego imię lub jego podobizna) pojawi się na ekranie, naciśnij spację tak szybko jak to możliwe. Uderz w spację gdy tylko zobaczysz podobiznę Scatterbuga lub słowo SCATTERBUG.

Naciśnij spację by rozpocząć zadanie",target5,stimuli/t5.jpg,81,34,stimuli/filler18.jpg,filler,False,None,,,,,,,,,,,,,,0,0,0,0,,,,,0,1,1,4,0,33,33,33,,,,,,,,,,,,,,,,,,,,,,,,,,,,,,,,,,,,,,,,,,,,,,,,,,,,,CS1_USneg,None,1,,,,,,,,,,,,,,,,,,35,m,81,n,2019_Nov_30_1716,ec_RRR,3.0.4,59.982279535545956,
Balas and Sarzynnska,"Dla tego zadania, docelową postacią jest Scatterbug:","Więc gdy tylko Scatterbug (jego imię lub jego podobizna) pojawi się na ekranie, naciśnij spację tak szybko jak to możliwe. Uderz w spację gdy tylko zobaczysz podobiznę Scatterbuga lub słowo SCATTERBUG.

Naciśnij spację by rozpocząć zadanie",target5,stimuli/t5.jpg,81,35,stimuli/filler48.jpg,filler,False,None,,,,,,,,,,,,,,0,0,0,0,,,,,0,1,1,4,0,34,34,34,,,,,,,,,,,,,,,,,,,,,,,,,,,,,,,,,,,,,,,,,,,,,,,,,,,,,CS1_USneg,None,1,,,,,,,,,,,,,,,,,,35,m,81,n,2019_Nov_30_1716,ec_RRR,3.0.4,59.982279535545956,
Balas and Sarzynnska,"Dla tego zadania, docelową postacią jest Scatterbug:","Więc gdy tylko Scatterbug (jego imię lub jego podobizna) pojawi się na ekranie, naciśnij spację tak szybko jak to możliwe. Uderz w spację gdy tylko zobaczysz podobiznę Scatterbuga lub słowo SCATTERBUG.

Naciśnij spację by rozpocząć zadanie",target5,stimuli/t5.jpg,81,36,stimuli/target5_3.jpg,target,True,space,,,,,,,,,,,,,,0,0,0,0,,,,,0,1,1,4,0,35,35,35,,,,,,,,,,,,,,,,,,,,,,,,,,,,,,,,,,,,,,,,,,,,,,,,,,,,,CS1_USneg,space,1,0.7835647522006184,,,,,,,,,,,,,,,,,35,m,81,n,2019_Nov_30_1716,ec_RRR,3.0.4,59.982279535545956,
Balas and Sarzynnska,"Dla tego zadania, docelową postacią jest Scatterbug:","Więc gdy tylko Scatterbug (jego imię lub jego podobizna) pojawi się na ekranie, naciśnij spację tak szybko jak to możliwe. Uderz w spację gdy tylko zobaczysz podobiznę Scatterbuga lub słowo SCATTERBUG.

Naciśnij spację by rozpocząć zadanie",target5,stimuli/t5.jpg,81,37,stimuli/filler13.jpg,filler,False,None,,,,,,,,,,,,,,0,0,0,0,,,,,0,1,1,4,0,36,36,36,,,,,,,,,,,,,,,,,,,,,,,,,,,,,,,,,,,,,,,,,,,,,,,,,,,,,CS1_USneg,None,1,,,,,,,,,,,,,,,,,,35,m,81,n,2019_Nov_30_1716,ec_RRR,3.0.4,59.982279535545956,
Balas and Sarzynnska,"Dla tego zadania, docelową postacią jest Scatterbug:","Więc gdy tylko Scatterbug (jego imię lub jego podobizna) pojawi się na ekranie, naciśnij spację tak szybko jak to możliwe. Uderz w spację gdy tylko zobaczysz podobiznę Scatterbuga lub słowo SCATTERBUG.

Naciśnij spację by rozpocząć zadanie",target5,stimuli/t5.jpg,81,38,stimuli/target5_1.jpg,target,True,space,,,,,,,,,,,,,,0,0,0,0,,,,,0,1,1,4,0,37,37,37,,,,,,,,,,,,,,,,,,,,,,,,,,,,,,,,,,,,,,,,,,,,,,,,,,,,,CS1_USneg,space,1,0.6169029399752617,,,,,,,,,,,,,,,,,35,m,81,n,2019_Nov_30_1716,ec_RRR,3.0.4,59.982279535545956,
Balas and Sarzynnska,"Dla tego zadania, docelową postacią jest Scatterbug:","Więc gdy tylko Scatterbug (jego imię lub jego podobizna) pojawi się na ekranie, naciśnij spację tak szybko jak to możliwe. Uderz w spację gdy tylko zobaczysz podobiznę Scatterbuga lub słowo SCATTERBUG.

Naciśnij spację by rozpocząć zadanie",target5,stimuli/t5.jpg,81,39,stimuli/filler46.jpg,filler,False,None,,,,,,,,,,,,,,0,0,0,0,,,,,0,1,1,4,0,38,38,38,,,,,,,,,,,,,,,,,,,,,,,,,,,,,,,,,,,,,,,,,,,,,,,,,,,,,CS1_USneg,None,1,,,,,,,,,,,,,,,,,,35,m,81,n,2019_Nov_30_1716,ec_RRR,3.0.4,59.982279535545956,
Balas and Sarzynnska,"Dla tego zadania, docelową postacią jest Scatterbug:","Więc gdy tylko Scatterbug (jego imię lub jego podobizna) pojawi się na ekranie, naciśnij spację tak szybko jak to możliwe. Uderz w spację gdy tylko zobaczysz podobiznę Scatterbuga lub słowo SCATTERBUG.

Naciśnij spację by rozpocząć zadanie",target5,stimuli/t5.jpg,81,40,stimuli/blank.jpg,blank,False,None,,,,,,,,,,,,,,0,0,0,0,,,,,0,1,1,4,0,39,39,39,,,,,,,,,,,,,,,,,,,,,,,,,,,,,,,,,,,,,,,,,,,,,,,,,,,,,CS1_USneg,None,1,,,,,,,,,,,,,,,,,,35,m,81,n,2019_Nov_30_1716,ec_RRR,3.0.4,59.982279535545956,
Balas and Sarzynnska,"Dla tego zadania, docelową postacią jest Scatterbug:","Więc gdy tylko Scatterbug (jego imię lub jego podobizna) pojawi się na ekranie, naciśnij spację tak szybko jak to możliwe. Uderz w spację gdy tylko zobaczysz podobiznę Scatterbuga lub słowo SCATTERBUG.

Naciśnij spację by rozpocząć zadanie",target5,stimuli/t5.jpg,81,41,stimuli/cs2_pos20.jpg,CSUS,False,None,,,,,,,,,,,,,,0,0,0,0,,,,,0,1,1,4,0,40,40,40,,,,,,,,,,,,,,,,,,,,,,,,,,,,,,,,,,,,,,,,,,,,,,,,,,,,,CS1_USneg,None,1,,,,,,,,,,,,,,,,,,35,m,81,n,2019_Nov_30_1716,ec_RRR,3.0.4,59.982279535545956,
Balas and Sarzynnska,"Dla tego zadania, docelową postacią jest Scatterbug:","Więc gdy tylko Scatterbug (jego imię lub jego podobizna) pojawi się na ekranie, naciśnij spację tak szybko jak to możliwe. Uderz w spację gdy tylko zobaczysz podobiznę Scatterbuga lub słowo SCATTERBUG.

Naciśnij spację by rozpocząć zadanie",target5,stimuli/t5.jpg,81,42,stimuli/blank.jpg,blank,False,None,,,,,,,,,,,,,,0,0,0,0,,,,,0,1,1,4,0,41,41,41,,,,,,,,,,,,,,,,,,,,,,,,,,,,,,,,,,,,,,,,,,,,,,,,,,,,,CS1_USneg,None,1,,,,,,,,,,,,,,,,,,35,m,81,n,2019_Nov_30_1716,ec_RRR,3.0.4,59.982279535545956,
Balas and Sarzynnska,"Dla tego zadania, docelową postacią jest Scatterbug:","Więc gdy tylko Scatterbug (jego imię lub jego podobizna) pojawi się na ekranie, naciśnij spację tak szybko jak to możliwe. Uderz w spację gdy tylko zobaczysz podobiznę Scatterbuga lub słowo SCATTERBUG.

Naciśnij spację by rozpocząć zadanie",target5,stimuli/t5.jpg,81,43,stimuli/filler12.jpg,filler,False,None,,,,,,,,,,,,,,0,0,0,0,,,,,0,1,1,4,0,42,42,42,,,,,,,,,,,,,,,,,,,,,,,,,,,,,,,,,,,,,,,,,,,,,,,,,,,,,CS1_USneg,None,1,,,,,,,,,,,,,,,,,,35,m,81,n,2019_Nov_30_1716,ec_RRR,3.0.4,59.982279535545956,
Balas and Sarzynnska,"Dla tego zadania, docelową postacią jest Scatterbug:","Więc gdy tylko Scatterbug (jego imię lub jego podobizna) pojawi się na ekranie, naciśnij spację tak szybko jak to możliwe. Uderz w spację gdy tylko zobaczysz podobiznę Scatterbuga lub słowo SCATTERBUG.

Naciśnij spację by rozpocząć zadanie",target5,stimuli/t5.jpg,81,44,stimuli/filler14.jpg,filler,False,None,,,,,,,,,,,,,,0,0,0,0,,,,,0,1,1,4,0,43,43,43,,,,,,,,,,,,,,,,,,,,,,,,,,,,,,,,,,,,,,,,,,,,,,,,,,,,,CS1_USneg,None,1,,,,,,,,,,,,,,,,,,35,m,81,n,2019_Nov_30_1716,ec_RRR,3.0.4,59.982279535545956,
Balas and Sarzynnska,"Dla tego zadania, docelową postacią jest Scatterbug:","Więc gdy tylko Scatterbug (jego imię lub jego podobizna) pojawi się na ekranie, naciśnij spację tak szybko jak to możliwe. Uderz w spację gdy tylko zobaczysz podobiznę Scatterbuga lub słowo SCATTERBUG.

Naciśnij spację by rozpocząć zadanie",target5,stimuli/t5.jpg,81,45,stimuli/filler51.jpg,filler,False,None,,,,,,,,,,,,,,0,0,0,0,,,,,0,1,1,4,0,44,44,44,,,,,,,,,,,,,,,,,,,,,,,,,,,,,,,,,,,,,,,,,,,,,,,,,,,,,CS1_USneg,None,1,,,,,,,,,,,,,,,,,,35,m,81,n,2019_Nov_30_1716,ec_RRR,3.0.4,59.982279535545956,
Balas and Sarzynnska,"Dla tego zadania, docelową postacią jest Scatterbug:","Więc gdy tylko Scatterbug (jego imię lub jego podobizna) pojawi się na ekranie, naciśnij spację tak szybko jak to możliwe. Uderz w spację gdy tylko zobaczysz podobiznę Scatterbuga lub słowo SCATTERBUG.

Naciśnij spację by rozpocząć zadanie",target5,stimuli/t5.jpg,81,46,stimuli/filler16.jpg,filler,False,None,,,,,,,,,,,,,,0,0,0,0,,,,,0,1,1,4,0,45,45,45,,,,,,,,,,,,,,,,,,,,,,,,,,,,,,,,,,,,,,,,,,,,,,,,,,,,,CS1_USneg,None,1,,,,,,,,,,,,,,,,,,35,m,81,n,2019_Nov_30_1716,ec_RRR,3.0.4,59.982279535545956,
Balas and Sarzynnska,"Dla tego zadania, docelową postacią jest Scatterbug:","Więc gdy tylko Scatterbug (jego imię lub jego podobizna) pojawi się na ekranie, naciśnij spację tak szybko jak to możliwe. Uderz w spację gdy tylko zobaczysz podobiznę Scatterbuga lub słowo SCATTERBUG.

Naciśnij spację by rozpocząć zadanie",target5,stimuli/t5.jpg,81,47,stimuli/target5_9.jpg,target,True,space,,,,,,,,,,,,,,0,0,0,0,,,,,0,1,1,4,0,46,46,46,,,,,,,,,,,,,,,,,,,,,,,,,,,,,,,,,,,,,,,,,,,,,,,,,,,,,CS1_USneg,space,1,1.1335910356137902,,,,,,,,,,,,,,,,,35,m,81,n,2019_Nov_30_1716,ec_RRR,3.0.4,59.982279535545956,
Balas and Sarzynnska,"Dla tego zadania, docelową postacią jest Scatterbug:","Więc gdy tylko Scatterbug (jego imię lub jego podobizna) pojawi się na ekranie, naciśnij spację tak szybko jak to możliwe. Uderz w spację gdy tylko zobaczysz podobiznę Scatterbuga lub słowo SCATTERBUG.

Naciśnij spację by rozpocząć zadanie",target5,stimuli/t5.jpg,81,48,stimuli/filler38.jpg,filler,False,None,,,,,,,,,,,,,,0,0,0,0,,,,,0,1,1,4,0,47,47,47,,,,,,,,,,,,,,,,,,,,,,,,,,,,,,,,,,,,,,,,,,,,,,,,,,,,,CS1_USneg,None,1,,,,,,,,,,,,,,,,,,35,m,81,n,2019_Nov_30_1716,ec_RRR,3.0.4,59.982279535545956,
Balas and Sarzynnska,"Dla tego zadania, docelową postacią jest Scatterbug:","Więc gdy tylko Scatterbug (jego imię lub jego podobizna) pojawi się na ekranie, naciśnij spację tak szybko jak to możliwe. Uderz w spację gdy tylko zobaczysz podobiznę Scatterbuga lub słowo SCATTERBUG.

Naciśnij spację by rozpocząć zadanie",target5,stimuli/t5.jpg,81,49,stimuli/filler5.jpg,filler,False,None,,,,,,,,,,,,,,0,0,0,0,,,,,0,1,1,4,0,48,48,48,,,,,,,,,,,,,,,,,,,,,,,,,,,,,,,,,,,,,,,,,,,,,,,,,,,,,CS1_USneg,None,1,,,,,,,,,,,,,,,,,,35,m,81,n,2019_Nov_30_1716,ec_RRR,3.0.4,59.982279535545956,
Balas and Sarzynnska,"Dla tego zadania, docelową postacią jest Scatterbug:","Więc gdy tylko Scatterbug (jego imię lub jego podobizna) pojawi się na ekranie, naciśnij spację tak szybko jak to możliwe. Uderz w spację gdy tylko zobaczysz podobiznę Scatterbuga lub słowo SCATTERBUG.

Naciśnij spację by rozpocząć zadanie",target5,stimuli/t5.jpg,81,50,stimuli/blank.jpg,blank,False,None,,,,,,,,,,,,,,0,0,0,0,,,,,0,1,1,4,0,49,49,49,,,,,,,,,,,,,,,,,,,,,,,,,,,,,,,,,,,,,,,,,,,,,,,,,,,,,CS1_USneg,None,1,,,,,,,,,,,,,,,,,,35,m,81,n,2019_Nov_30_1716,ec_RRR,3.0.4,59.982279535545956,
Balas and Sarzynnska,"Dla tego zadania, docelową postacią jest Scatterbug:","Więc gdy tylko Scatterbug (jego imię lub jego podobizna) pojawi się na ekranie, naciśnij spację tak szybko jak to możliwe. Uderz w spację gdy tylko zobaczysz podobiznę Scatterbuga lub słowo SCATTERBUG.

Naciśnij spację by rozpocząć zadanie",target5,stimuli/t5.jpg,81,51,stimuli/cs1_neg15.jpg,CSUS,False,None,,,,,,,,,,,,,,0,0,0,0,,,,,0,1,1,4,0,50,50,50,,,,,,,,,,,,,,,,,,,,,,,,,,,,,,,,,,,,,,,,,,,,,,,,,,,,,CS1_USneg,None,1,,,,,,,,,,,,,,,,,,35,m,81,n,2019_Nov_30_1716,ec_RRR,3.0.4,59.982279535545956,
Balas and Sarzynnska,"Dla tego zadania, docelową postacią jest Scatterbug:","Więc gdy tylko Scatterbug (jego imię lub jego podobizna) pojawi się na ekranie, naciśnij spację tak szybko jak to możliwe. Uderz w spację gdy tylko zobaczysz podobiznę Scatterbuga lub słowo SCATTERBUG.

Naciśnij spację by rozpocząć zadanie",target5,stimuli/t5.jpg,81,52,stimuli/blank.jpg,blank,False,None,,,,,,,,,,,,,,0,0,0,0,,,,,0,1,1,4,0,51,51,51,,,,,,,,,,,,,,,,,,,,,,,,,,,,,,,,,,,,,,,,,,,,,,,,,,,,,CS1_USneg,None,1,,,,,,,,,,,,,,,,,,35,m,81,n,2019_Nov_30_1716,ec_RRR,3.0.4,59.982279535545956,
Balas and Sarzynnska,"Dla tego zadania, docelową postacią jest Scatterbug:","Więc gdy tylko Scatterbug (jego imię lub jego podobizna) pojawi się na ekranie, naciśnij spację tak szybko jak to możliwe. Uderz w spację gdy tylko zobaczysz podobiznę Scatterbuga lub słowo SCATTERBUG.

Naciśnij spację by rozpocząć zadanie",target5,stimuli/t5.jpg,81,53,stimuli/filler24.jpg,filler,False,None,,,,,,,,,,,,,,0,0,0,0,,,,,0,1,1,4,0,52,52,52,,,,,,,,,,,,,,,,,,,,,,,,,,,,,,,,,,,,,,,,,,,,,,,,,,,,,CS1_USneg,None,1,,,,,,,,,,,,,,,,,,35,m,81,n,2019_Nov_30_1716,ec_RRR,3.0.4,59.982279535545956,
Balas and Sarzynnska,"Dla tego zadania, docelową postacią jest Scatterbug:","Więc gdy tylko Scatterbug (jego imię lub jego podobizna) pojawi się na ekranie, naciśnij spację tak szybko jak to możliwe. Uderz w spację gdy tylko zobaczysz podobiznę Scatterbuga lub słowo SCATTERBUG.

Naciśnij spację by rozpocząć zadanie",target5,stimuli/t5.jpg,81,54,stimuli/filler28.jpg,filler,False,None,,,,,,,,,,,,,,0,0,0,0,,,,,0,1,1,4,0,53,53,53,,,,,,,,,,,,,,,,,,,,,,,,,,,,,,,,,,,,,,,,,,,,,,,,,,,,,CS1_USneg,None,1,,,,,,,,,,,,,,,,,,35,m,81,n,2019_Nov_30_1716,ec_RRR,3.0.4,59.982279535545956,
Balas and Sarzynnska,"Dla tego zadania, docelową postacią jest Scatterbug:","Więc gdy tylko Scatterbug (jego imię lub jego podobizna) pojawi się na ekranie, naciśnij spację tak szybko jak to możliwe. Uderz w spację gdy tylko zobaczysz podobiznę Scatterbuga lub słowo SCATTERBUG.

Naciśnij spację by rozpocząć zadanie",target5,stimuli/t5.jpg,81,55,stimuli/filler32.jpg,filler,False,None,,,,,,,,,,,,,,0,0,0,0,,,,,0,1,1,4,0,54,54,54,,,,,,,,,,,,,,,,,,,,,,,,,,,,,,,,,,,,,,,,,,,,,,,,,,,,,CS1_USneg,None,1,,,,,,,,,,,,,,,,,,35,m,81,n,2019_Nov_30_1716,ec_RRR,3.0.4,59.982279535545956,
Balas and Sarzynnska,"Dla tego zadania, docelową postacią jest Scatterbug:","Więc gdy tylko Scatterbug (jego imię lub jego podobizna) pojawi się na ekranie, naciśnij spację tak szybko jak to możliwe. Uderz w spację gdy tylko zobaczysz podobiznę Scatterbuga lub słowo SCATTERBUG.

Naciśnij spację by rozpocząć zadanie",target5,stimuli/t5.jpg,81,56,stimuli/filler33.jpg,filler,False,None,,,,,,,,,,,,,,0,0,0,0,,,,,0,1,1,4,0,55,55,55,,,,,,,,,,,,,,,,,,,,,,,,,,,,,,,,,,,,,,,,,,,,,,,,,,,,,CS1_USneg,None,1,,,,,,,,,,,,,,,,,,35,m,81,n,2019_Nov_30_1716,ec_RRR,3.0.4,59.982279535545956,
Balas and Sarzynnska,"Dla tego zadania, docelową postacią jest Scatterbug:","Więc gdy tylko Scatterbug (jego imię lub jego podobizna) pojawi się na ekranie, naciśnij spację tak szybko jak to możliwe. Uderz w spację gdy tylko zobaczysz podobiznę Scatterbuga lub słowo SCATTERBUG.

Naciśnij spację by rozpocząć zadanie",target5,stimuli/t5.jpg,81,57,stimuli/filler9.jpg,filler,False,None,,,,,,,,,,,,,,0,0,0,0,,,,,0,1,1,4,0,56,56,56,,,,,,,,,,,,,,,,,,,,,,,,,,,,,,,,,,,,,,,,,,,,,,,,,,,,,CS1_USneg,None,1,,,,,,,,,,,,,,,,,,35,m,81,n,2019_Nov_30_1716,ec_RRR,3.0.4,59.982279535545956,
Balas and Sarzynnska,"Dla tego zadania, docelową postacią jest Scatterbug:","Więc gdy tylko Scatterbug (jego imię lub jego podobizna) pojawi się na ekranie, naciśnij spację tak szybko jak to możliwe. Uderz w spację gdy tylko zobaczysz podobiznę Scatterbuga lub słowo SCATTERBUG.

Naciśnij spację by rozpocząć zadanie",target5,stimuli/t5.jpg,81,58,stimuli/filler42.jpg,filler,False,None,,,,,,,,,,,,,,0,0,0,0,,,,,0,1,1,4,0,57,57,57,,,,,,,,,,,,,,,,,,,,,,,,,,,,,,,,,,,,,,,,,,,,,,,,,,,,,CS1_USneg,None,1,,,,,,,,,,,,,,,,,,35,m,81,n,2019_Nov_30_1716,ec_RRR,3.0.4,59.982279535545956,
Balas and Sarzynnska,"Dla tego zadania, docelową postacią jest Scatterbug:","Więc gdy tylko Scatterbug (jego imię lub jego podobizna) pojawi się na ekranie, naciśnij spację tak szybko jak to możliwe. Uderz w spację gdy tylko zobaczysz podobiznę Scatterbuga lub słowo SCATTERBUG.

Naciśnij spację by rozpocząć zadanie",target5,stimuli/t5.jpg,81,59,stimuli/filler30.jpg,filler,False,None,,,,,,,,,,,,,,0,0,0,0,,,,,0,1,1,4,0,58,58,58,,,,,,,,,,,,,,,,,,,,,,,,,,,,,,,,,,,,,,,,,,,,,,,,,,,,,CS1_USneg,None,1,,,,,,,,,,,,,,,,,,35,m,81,n,2019_Nov_30_1716,ec_RRR,3.0.4,59.982279535545956,
Balas and Sarzynnska,"Dla tego zadania, docelową postacią jest Scatterbug:","Więc gdy tylko Scatterbug (jego imię lub jego podobizna) pojawi się na ekranie, naciśnij spację tak szybko jak to możliwe. Uderz w spację gdy tylko zobaczysz podobiznę Scatterbuga lub słowo SCATTERBUG.

Naciśnij spację by rozpocząć zadanie",target5,stimuli/t5.jpg,81,60,stimuli/blank.jpg,blank,False,None,,,,,,,,,,,,,,0,0,0,0,,,,,0,1,1,4,0,59,59,59,,,,,,,,,,,,,,,,,,,,,,,,,,,,,,,,,,,,,,,,,,,,,,,,,,,,,CS1_USneg,None,1,,,,,,,,,,,,,,,,,,35,m,81,n,2019_Nov_30_1716,ec_RRR,3.0.4,59.982279535545956,
Balas and Sarzynnska,"Dla tego zadania, docelową postacią jest Scatterbug:","Więc gdy tylko Scatterbug (jego imię lub jego podobizna) pojawi się na ekranie, naciśnij spację tak szybko jak to możliwe. Uderz w spację gdy tylko zobaczysz podobiznę Scatterbuga lub słowo SCATTERBUG.

Naciśnij spację by rozpocząć zadanie",target5,stimuli/t5.jpg,81,61,stimuli/cs2_pos7.jpg,CSUS,False,None,,,,,,,,,,,,,,0,0,0,0,,,,,0,1,1,4,0,60,60,60,,,,,,,,,,,,,,,,,,,,,,,,,,,,,,,,,,,,,,,,,,,,,,,,,,,,,CS1_USneg,None,1,,,,,,,,,,,,,,,,,,35,m,81,n,2019_Nov_30_1716,ec_RRR,3.0.4,59.982279535545956,
Balas and Sarzynnska,"Dla tego zadania, docelową postacią jest Scatterbug:","Więc gdy tylko Scatterbug (jego imię lub jego podobizna) pojawi się na ekranie, naciśnij spację tak szybko jak to możliwe. Uderz w spację gdy tylko zobaczysz podobiznę Scatterbuga lub słowo SCATTERBUG.

Naciśnij spację by rozpocząć zadanie",target5,stimuli/t5.jpg,81,62,stimuli/blank.jpg,blank,False,None,,,,,,,,,,,,,,0,0,0,0,,,,,0,1,1,4,0,61,61,61,,,,,,,,,,,,,,,,,,,,,,,,,,,,,,,,,,,,,,,,,,,,,,,,,,,,,CS1_USneg,None,1,,,,,,,,,,,,,,,,,,35,m,81,n,2019_Nov_30_1716,ec_RRR,3.0.4,59.982279535545956,
Balas and Sarzynnska,"Dla tego zadania, docelową postacią jest Scatterbug:","Więc gdy tylko Scatterbug (jego imię lub jego podobizna) pojawi się na ekranie, naciśnij spację tak szybko jak to możliwe. Uderz w spację gdy tylko zobaczysz podobiznę Scatterbuga lub słowo SCATTERBUG.

Naciśnij spację by rozpocząć zadanie",target5,stimuli/t5.jpg,81,63,stimuli/filler35.jpg,filler,False,None,,,,,,,,,,,,,,0,0,0,0,,,,,0,1,1,4,0,62,62,62,,,,,,,,,,,,,,,,,,,,,,,,,,,,,,,,,,,,,,,,,,,,,,,,,,,,,CS1_USneg,None,1,,,,,,,,,,,,,,,,,,35,m,81,n,2019_Nov_30_1716,ec_RRR,3.0.4,59.982279535545956,
Balas and Sarzynnska,"Dla tego zadania, docelową postacią jest Scatterbug:","Więc gdy tylko Scatterbug (jego imię lub jego podobizna) pojawi się na ekranie, naciśnij spację tak szybko jak to możliwe. Uderz w spację gdy tylko zobaczysz podobiznę Scatterbuga lub słowo SCATTERBUG.

Naciśnij spację by rozpocząć zadanie",target5,stimuli/t5.jpg,81,64,stimuli/filler10.jpg,filler,False,None,,,,,,,,,,,,,,0,0,0,0,,,,,0,1,1,4,0,63,63,63,,,,,,,,,,,,,,,,,,,,,,,,,,,,,,,,,,,,,,,,,,,,,,,,,,,,,CS1_USneg,None,1,,,,,,,,,,,,,,,,,,35,m,81,n,2019_Nov_30_1716,ec_RRR,3.0.4,59.982279535545956,
Balas and Sarzynnska,"Dla tego zadania, docelową postacią jest Scatterbug:","Więc gdy tylko Scatterbug (jego imię lub jego podobizna) pojawi się na ekranie, naciśnij spację tak szybko jak to możliwe. Uderz w spację gdy tylko zobaczysz podobiznę Scatterbuga lub słowo SCATTERBUG.

Naciśnij spację by rozpocząć zadanie",target5,stimuli/t5.jpg,81,65,stimuli/filler49.jpg,filler,False,None,,,,,,,,,,,,,,0,0,0,0,,,,,0,1,1,4,0,64,64,64,,,,,,,,,,,,,,,,,,,,,,,,,,,,,,,,,,,,,,,,,,,,,,,,,,,,,CS1_USneg,None,1,,,,,,,,,,,,,,,,,,35,m,81,n,2019_Nov_30_1716,ec_RRR,3.0.4,59.982279535545956,
Balas and Sarzynnska,"Dla tego zadania, docelową postacią jest Scatterbug:","Więc gdy tylko Scatterbug (jego imię lub jego podobizna) pojawi się na ekranie, naciśnij spację tak szybko jak to możliwe. Uderz w spację gdy tylko zobaczysz podobiznę Scatterbuga lub słowo SCATTERBUG.

Naciśnij spację by rozpocząć zadanie",target5,stimuli/t5.jpg,81,66,stimuli/filler7.jpg,filler,False,None,,,,,,,,,,,,,,0,0,0,0,,,,,0,1,1,4,0,65,65,65,,,,,,,,,,,,,,,,,,,,,,,,,,,,,,,,,,,,,,,,,,,,,,,,,,,,,CS1_USneg,None,1,,,,,,,,,,,,,,,,,,35,m,81,n,2019_Nov_30_1716,ec_RRR,3.0.4,59.982279535545956,
Balas and Sarzynnska,"Dla tego zadania, docelową postacią jest Scatterbug:","Więc gdy tylko Scatterbug (jego imię lub jego podobizna) pojawi się na ekranie, naciśnij spację tak szybko jak to możliwe. Uderz w spację gdy tylko zobaczysz podobiznę Scatterbuga lub słowo SCATTERBUG.

Naciśnij spację by rozpocząć zadanie",target5,stimuli/t5.jpg,81,67,stimuli/target5_4.jpg,target,True,space,,,,,,,,,,,,,,0,0,0,0,,,,,0,1,1,4,0,66,66,66,,,,,,,,,,,,,,,,,,,,,,,,,,,,,,,,,,,,,,,,,,,,,,,,,,,,,CS1_USneg,space,1,0.7002620019484311,,,,,,,,,,,,,,,,,35,m,81,n,2019_Nov_30_1716,ec_RRR,3.0.4,59.982279535545956,
Balas and Sarzynnska,"Dla tego zadania, docelową postacią jest Scatterbug:","Więc gdy tylko Scatterbug (jego imię lub jego podobizna) pojawi się na ekranie, naciśnij spację tak szybko jak to możliwe. Uderz w spację gdy tylko zobaczysz podobiznę Scatterbuga lub słowo SCATTERBUG.

Naciśnij spację by rozpocząć zadanie",target5,stimuli/t5.jpg,81,68,stimuli/filler25.jpg,filler,False,None,,,,,,,,,,,,,,0,0,0,0,,,,,0,1,1,4,0,67,67,67,,,,,,,,,,,,,,,,,,,,,,,,,,,,,,,,,,,,,,,,,,,,,,,,,,,,,CS1_USneg,None,1,,,,,,,,,,,,,,,,,,35,m,81,n,2019_Nov_30_1716,ec_RRR,3.0.4,59.982279535545956,
Balas and Sarzynnska,"Dla tego zadania, docelową postacią jest Scatterbug:","Więc gdy tylko Scatterbug (jego imię lub jego podobizna) pojawi się na ekranie, naciśnij spację tak szybko jak to możliwe. Uderz w spację gdy tylko zobaczysz podobiznę Scatterbuga lub słowo SCATTERBUG.

Naciśnij spację by rozpocząć zadanie",target5,stimuli/t5.jpg,81,69,stimuli/filler6.jpg,filler,False,None,,,,,,,,,,,,,,0,0,0,0,,,,,0,1,1,4,0,68,68,68,,,,,,,,,,,,,,,,,,,,,,,,,,,,,,,,,,,,,,,,,,,,,,,,,,,,,CS1_USneg,None,1,,,,,,,,,,,,,,,,,,35,m,81,n,2019_Nov_30_1716,ec_RRR,3.0.4,59.982279535545956,
Balas and Sarzynnska,"Dla tego zadania, docelową postacią jest Scatterbug:","Więc gdy tylko Scatterbug (jego imię lub jego podobizna) pojawi się na ekranie, naciśnij spację tak szybko jak to możliwe. Uderz w spację gdy tylko zobaczysz podobiznę Scatterbuga lub słowo SCATTERBUG.

Naciśnij spację by rozpocząć zadanie",target5,stimuli/t5.jpg,81,70,stimuli/blank.jpg,blank,False,None,,,,,,,,,,,,,,0,0,0,0,,,,,0,1,1,4,0,69,69,69,,,,,,,,,,,,,,,,,,,,,,,,,,,,,,,,,,,,,,,,,,,,,,,,,,,,,CS1_USneg,None,1,,,,,,,,,,,,,,,,,,35,m,81,n,2019_Nov_30_1716,ec_RRR,3.0.4,59.982279535545956,
Balas and Sarzynnska,"Dla tego zadania, docelową postacią jest Scatterbug:","Więc gdy tylko Scatterbug (jego imię lub jego podobizna) pojawi się na ekranie, naciśnij spację tak szybko jak to możliwe. Uderz w spację gdy tylko zobaczysz podobiznę Scatterbuga lub słowo SCATTERBUG.

Naciśnij spację by rozpocząć zadanie",target5,stimuli/t5.jpg,81,71,stimuli/cs1_neg1.jpg,CSUS,False,None,,,,,,,,,,,,,,0,0,0,0,,,,,0,1,1,4,0,70,70,70,,,,,,,,,,,,,,,,,,,,,,,,,,,,,,,,,,,,,,,,,,,,,,,,,,,,,CS1_USneg,None,1,,,,,,,,,,,,,,,,,,35,m,81,n,2019_Nov_30_1716,ec_RRR,3.0.4,59.982279535545956,
Balas and Sarzynnska,"Dla tego zadania, docelową postacią jest Scatterbug:","Więc gdy tylko Scatterbug (jego imię lub jego podobizna) pojawi się na ekranie, naciśnij spację tak szybko jak to możliwe. Uderz w spację gdy tylko zobaczysz podobiznę Scatterbuga lub słowo SCATTERBUG.

Naciśnij spację by rozpocząć zadanie",target5,stimuli/t5.jpg,81,72,stimuli/blank.jpg,blank,False,None,,,,,,,,,,,,,,0,0,0,0,,,,,0,1,1,4,0,71,71,71,,,,,,,,,,,,,,,,,,,,,,,,,,,,,,,,,,,,,,,,,,,,,,,,,,,,,CS1_USneg,None,1,,,,,,,,,,,,,,,,,,35,m,81,n,2019_Nov_30_1716,ec_RRR,3.0.4,59.982279535545956,
Balas and Sarzynnska,"Dla tego zadania, docelową postacią jest Scatterbug:","Więc gdy tylko Scatterbug (jego imię lub jego podobizna) pojawi się na ekranie, naciśnij spację tak szybko jak to możliwe. Uderz w spację gdy tylko zobaczysz podobiznę Scatterbuga lub słowo SCATTERBUG.

Naciśnij spację by rozpocząć zadanie",target5,stimuli/t5.jpg,81,73,stimuli/filler36.jpg,filler,False,None,,,,,,,,,,,,,,0,0,0,0,,,,,0,1,1,4,0,72,72,72,,,,,,,,,,,,,,,,,,,,,,,,,,,,,,,,,,,,,,,,,,,,,,,,,,,,,CS1_USneg,None,1,,,,,,,,,,,,,,,,,,35,m,81,n,2019_Nov_30_1716,ec_RRR,3.0.4,59.982279535545956,
Balas and Sarzynnska,"Dla tego zadania, docelową postacią jest Scatterbug:","Więc gdy tylko Scatterbug (jego imię lub jego podobizna) pojawi się na ekranie, naciśnij spację tak szybko jak to możliwe. Uderz w spację gdy tylko zobaczysz podobiznę Scatterbuga lub słowo SCATTERBUG.

Naciśnij spację by rozpocząć zadanie",target5,stimuli/t5.jpg,81,74,stimuli/filler50.jpg,filler,False,None,,,,,,,,,,,,,,0,0,0,0,,,,,0,1,1,4,0,73,73,73,,,,,,,,,,,,,,,,,,,,,,,,,,,,,,,,,,,,,,,,,,,,,,,,,,,,,CS1_USneg,None,1,,,,,,,,,,,,,,,,,,35,m,81,n,2019_Nov_30_1716,ec_RRR,3.0.4,59.982279535545956,
Balas and Sarzynnska,"Dla tego zadania, docelową postacią jest Scatterbug:","Więc gdy tylko Scatterbug (jego imię lub jego podobizna) pojawi się na ekranie, naciśnij spację tak szybko jak to możliwe. Uderz w spację gdy tylko zobaczysz podobiznę Scatterbuga lub słowo SCATTERBUG.

Naciśnij spację by rozpocząć zadanie",target5,stimuli/t5.jpg,81,75,stimuli/filler37.jpg,filler,False,None,,,,,,,,,,,,,,0,0,0,0,,,,,0,1,1,4,0,74,74,74,,,,,,,,,,,,,,,,,,,,,,,,,,,,,,,,,,,,,,,,,,,,,,,,,,,,,CS1_USneg,None,1,,,,,,,,,,,,,,,,,,35,m,81,n,2019_Nov_30_1716,ec_RRR,3.0.4,59.982279535545956,
Balas and Sarzynnska,"Dla tego zadania, docelową postacią jest Scatterbug:","Więc gdy tylko Scatterbug (jego imię lub jego podobizna) pojawi się na ekranie, naciśnij spację tak szybko jak to możliwe. Uderz w spację gdy tylko zobaczysz podobiznę Scatterbuga lub słowo SCATTERBUG.

Naciśnij spację by rozpocząć zadanie",target5,stimuli/t5.jpg,81,76,stimuli/target5_7.jpg,target,True,space,,,,,,,,,,,,,,0,0,0,0,,,,,0,1,1,4,0,75,75,75,,,,,,,,,,,,,,,,,,,,,,,,,,,,,,,,,,,,,,,,,,,,,,,,,,,,,CS1_USneg,space,1,0.6002238597720861,,,,,,,,,,,,,,,,,35,m,81,n,2019_Nov_30_1716,ec_RRR,3.0.4,59.982279535545956,
Balas and Sarzynnska,"Dla tego zadania, docelową postacią jest Scatterbug:","Więc gdy tylko Scatterbug (jego imię lub jego podobizna) pojawi się na ekranie, naciśnij spację tak szybko jak to możliwe. Uderz w spację gdy tylko zobaczysz podobiznę Scatterbuga lub słowo SCATTERBUG.

Naciśnij spację by rozpocząć zadanie",target5,stimuli/t5.jpg,81,77,stimuli/filler11.jpg,filler,False,None,,,,,,,,,,,,,,0,0,0,0,,,,,0,1,1,4,0,76,76,76,,,,,,,,,,,,,,,,,,,,,,,,,,,,,,,,,,,,,,,,,,,,,,,,,,,,,CS1_USneg,None,1,,,,,,,,,,,,,,,,,,35,m,81,n,2019_Nov_30_1716,ec_RRR,3.0.4,59.982279535545956,
Balas and Sarzynnska,"Dla tego zadania, docelową postacią jest Scatterbug:","Więc gdy tylko Scatterbug (jego imię lub jego podobizna) pojawi się na ekranie, naciśnij spację tak szybko jak to możliwe. Uderz w spację gdy tylko zobaczysz podobiznę Scatterbuga lub słowo SCATTERBUG.

Naciśnij spację by rozpocząć zadanie",target5,stimuli/t5.jpg,81,78,stimuli/filler40.jpg,filler,False,None,,,,,,,,,,,,,,0,0,0,0,,,,,0,1,1,4,0,77,77,77,,,,,,,,,,,,,,,,,,,,,,,,,,,,,,,,,,,,,,,,,,,,,,,,,,,,,CS1_USneg,None,1,,,,,,,,,,,,,,,,,,35,m,81,n,2019_Nov_30_1716,ec_RRR,3.0.4,59.982279535545956,
Balas and Sarzynnska,"Dla tego zadania, docelową postacią jest Scatterbug:","Więc gdy tylko Scatterbug (jego imię lub jego podobizna) pojawi się na ekranie, naciśnij spację tak szybko jak to możliwe. Uderz w spację gdy tylko zobaczysz podobiznę Scatterbuga lub słowo SCATTERBUG.

Naciśnij spację by rozpocząć zadanie",target5,stimuli/t5.jpg,81,79,stimuli/filler26.jpg,filler,False,None,,,,,,,,,,,,,,0,0,0,0,,,,,0,1,1,4,0,78,78,78,,,,,,,,,,,,,,,,,,,,,,,,,,,,,,,,,,,,,,,,,,,,,,,,,,,,,CS1_USneg,None,1,,,,,,,,,,,,,,,,,,35,m,81,n,2019_Nov_30_1716,ec_RRR,3.0.4,59.982279535545956,
Balas and Sarzynnska,"Dla tego zadania, docelową postacią jest Scatterbug:","Więc gdy tylko Scatterbug (jego imię lub jego podobizna) pojawi się na ekranie, naciśnij spację tak szybko jak to możliwe. Uderz w spację gdy tylko zobaczysz podobiznę Scatterbuga lub słowo SCATTERBUG.

Naciśnij spację by rozpocząć zadanie",target5,stimuli/t5.jpg,81,80,stimuli/blank.jpg,blank,False,None,,,,,,,,,,,,,,0,0,0,0,,,,,0,1,1,4,0,79,79,79,,,,,,,,,,,,,,,,,,,,,,,,,,,,,,,,,,,,,,,,,,,,,,,,,,,,,CS1_USneg,None,1,,,,,,,,,,,,,,,,,,35,m,81,n,2019_Nov_30_1716,ec_RRR,3.0.4,59.982279535545956,
Balas and Sarzynnska,"Dla tego zadania, docelową postacią jest Scatterbug:","Więc gdy tylko Scatterbug (jego imię lub jego podobizna) pojawi się na ekranie, naciśnij spację tak szybko jak to możliwe. Uderz w spację gdy tylko zobaczysz podobiznę Scatterbuga lub słowo SCATTERBUG.

Naciśnij spację by rozpocząć zadanie",target5,stimuli/t5.jpg,81,81,stimuli/cs2_pos14.jpg,CSUS,False,None,,,,,,,,,,,,,,0,0,0,0,,,,,0,1,1,4,0,80,80,80,,,,,,,,,,,,,,,,,,,,,,,,,,,,,,,,,,,,,,,,,,,,,,,,,,,,,CS1_USneg,None,1,,,,,,,,,,,,,,,,,,35,m,81,n,2019_Nov_30_1716,ec_RRR,3.0.4,59.982279535545956,
Balas and Sarzynnska,"Dla tego zadania, docelową postacią jest Scatterbug:","Więc gdy tylko Scatterbug (jego imię lub jego podobizna) pojawi się na ekranie, naciśnij spację tak szybko jak to możliwe. Uderz w spację gdy tylko zobaczysz podobiznę Scatterbuga lub słowo SCATTERBUG.

Naciśnij spację by rozpocząć zadanie",target5,stimuli/t5.jpg,81,82,stimuli/blank.jpg,blank,False,None,,,,,,,,,,,,,,0,0,0,0,,,,,0,1,1,4,0,81,81,81,,,,,,,,,,,,,,,,,,,,,,,,,,,,,,,,,,,,,,,,,,,,,,,,,,,,,CS1_USneg,None,1,,,,,,,,,,,,,,,,,,35,m,81,n,2019_Nov_30_1716,ec_RRR,3.0.4,59.982279535545956,
Balas and Sarzynnska,"Dla tego zadania, docelową postacią jest Scatterbug:","Więc gdy tylko Scatterbug (jego imię lub jego podobizna) pojawi się na ekranie, naciśnij spację tak szybko jak to możliwe. Uderz w spację gdy tylko zobaczysz podobiznę Scatterbuga lub słowo SCATTERBUG.

Naciśnij spację by rozpocząć zadanie",target5,stimuli/t5.jpg,81,83,stimuli/filler27.jpg,filler,False,None,,,,,,,,,,,,,,0,0,0,0,,,,,0,1,1,4,0,82,82,82,,,,,,,,,,,,,,,,,,,,,,,,,,,,,,,,,,,,,,,,,,,,,,,,,,,,,CS1_USneg,None,1,,,,,,,,,,,,,,,,,,35,m,81,n,2019_Nov_30_1716,ec_RRR,3.0.4,59.982279535545956,
