data_collection_site,instructions_text_top,instructions_text_bottom,block_id,example_image,participant,trial_number,stimulus,trial_type,target_trial,surveillance_correct_response,filler_1_items,filler_2_items,middle_text,left_text,right_text,evaluation_stimulus,left_stimulus,right_stimulus,evaluation_response_indicating_CS1_preferred,awareness_1_question_text,awareness_2a_question_text,awareness_2b_question_text,awareness_2_question_text,record_data_collection_site_variable.thisRepN,record_data_collection_site_variable.thisTrialN,record_data_collection_site_variable.thisN,record_data_collection_site_variable.thisIndex,surveillance_instructions_loop.thisRepN,surveillance_instructions_loop.thisTrialN,surveillance_instructions_loop.thisN,surveillance_instructions_loop.thisIndex,surveillance_blocks_loop.thisRepN,surveillance_blocks_loop.thisTrialN,surveillance_blocks_loop.thisN,surveillance_blocks_loop.thisIndex,surveillance_trials_loop.thisRepN,surveillance_trials_loop.thisTrialN,surveillance_trials_loop.thisN,surveillance_trials_loop.thisIndex,filler_1_instructions_loop.thisRepN,filler_1_instructions_loop.thisTrialN,filler_1_instructions_loop.thisN,filler_1_instructions_loop.thisIndex,filler_1_loop.thisRepN,filler_1_loop.thisTrialN,filler_1_loop.thisN,filler_1_loop.thisIndex,filler_2_instructions_loop.thisRepN,filler_2_instructions_loop.thisTrialN,filler_2_instructions_loop.thisN,filler_2_instructions_loop.thisIndex,filler_2_loop.thisRepN,filler_2_loop.thisTrialN,filler_2_loop.thisN,filler_2_loop.thisIndex,evaluation_instructions_loop.thisRepN,evaluation_instructions_loop.thisTrialN,evaluation_instructions_loop.thisN,evaluation_instructions_loop.thisIndex,evaluation_loop.thisRepN,evaluation_loop.thisTrialN,evaluation_loop.thisN,evaluation_loop.thisIndex,evaluation_trials.thisRepN,evaluation_trials.thisTrialN,evaluation_trials.thisN,evaluation_trials.thisIndex,awareness_instructions_loop.thisRepN,awareness_instructions_loop.thisTrialN,awareness_instructions_loop.thisN,awareness_instructions_loop.thisIndex,awareness_1_trials_loop.thisRepN,awareness_1_trials_loop.thisTrialN,awareness_1_trials_loop.thisN,awareness_1_trials_loop.thisIndex,awareness_2a_trials_loop.thisRepN,awareness_2a_trials_loop.thisTrialN,awareness_2a_trials_loop.thisN,awareness_2a_trials_loop.thisIndex,awareness_2b_trials_loop.thisRepN,awareness_2b_trials_loop.thisTrialN,awareness_2b_trials_loop.thisN,awareness_2b_trials_loop.thisIndex,awareness_2c_trials_loop.thisRepN,awareness_2c_trials_loop.thisTrialN,awareness_2c_trials_loop.thisN,awareness_2c_trials_loop.thisIndex,end_message_loop.thisRepN,end_message_loop.thisTrialN,end_message_loop.thisN,end_message_loop.thisIndex,condition,surveillance_response.keys,surveillance_response.corr,surveillance_response.rt,filler_1_rating.response,filler_1_rating.rt,filler_2_rating.response,filler_2_rating.rt,evaluation_response.keys,evaluation_response.corr,evaluation_response.rt,inputText,awareness_1_response.keys,awareness_1_response.rt,awareness_type_2a_rating.response,awareness_type_2a_rating.rt,awareness_type_2b_rating.response,awareness_type_2b_rating.rt,awareness_type_2c_rating.response,awareness_type_2c_rating.rt,age,gender,participant,UseMonkey,date,expName,psychopyVersion,frameRate,
moran hussey - pilot,"Voor deze taak, is de target figuur Shelmet:","Dus wanneer SHELMET (zijn naam of foto) verschijnt op het scherm, druk dan zo snel mogelijk op de spatiebalk. Druk op de spatiebalk telkens wanneer je een foto van Shelmet of het woord SHELMET ziet. 

Druk op de spatiebalk om de taak te starten.
",target3,stimuli/t3.jpg,9,1,stimuli/filler46.jpg,filler,False,None,,,,,,,,,,,,,,0,0,0,0,,,,,0,0,0,2,0,0,0,0,,,,,,,,,,,,,,,,,,,,,,,,,,,,,,,,,,,,,,,,,,,,,,,,,,,,,CS1_USneg,None,1,,,,,,,,,,,,,,,,,,24,f,9,n,2019_Apr_05_1442,ec_RRR,3.0.5,75.025560302531,
moran hussey - pilot,"Voor deze taak, is de target figuur Shelmet:","Dus wanneer SHELMET (zijn naam of foto) verschijnt op het scherm, druk dan zo snel mogelijk op de spatiebalk. Druk op de spatiebalk telkens wanneer je een foto van Shelmet of het woord SHELMET ziet. 

Druk op de spatiebalk om de taak te starten.
",target3,stimuli/t3.jpg,9,2,stimuli/filler39.jpg,filler,False,None,,,,,,,,,,,,,,0,0,0,0,,,,,0,0,0,2,0,1,1,1,,,,,,,,,,,,,,,,,,,,,,,,,,,,,,,,,,,,,,,,,,,,,,,,,,,,,CS1_USneg,None,1,,,,,,,,,,,,,,,,,,24,f,9,n,2019_Apr_05_1442,ec_RRR,3.0.5,75.025560302531,
moran hussey - pilot,"Voor deze taak, is de target figuur Shelmet:","Dus wanneer SHELMET (zijn naam of foto) verschijnt op het scherm, druk dan zo snel mogelijk op de spatiebalk. Druk op de spatiebalk telkens wanneer je een foto van Shelmet of het woord SHELMET ziet. 

Druk op de spatiebalk om de taak te starten.
",target3,stimuli/t3.jpg,9,3,stimuli/filler47.jpg,filler,False,None,,,,,,,,,,,,,,0,0,0,0,,,,,0,0,0,2,0,2,2,2,,,,,,,,,,,,,,,,,,,,,,,,,,,,,,,,,,,,,,,,,,,,,,,,,,,,,CS1_USneg,None,1,,,,,,,,,,,,,,,,,,24,f,9,n,2019_Apr_05_1442,ec_RRR,3.0.5,75.025560302531,
moran hussey - pilot,"Voor deze taak, is de target figuur Shelmet:","Dus wanneer SHELMET (zijn naam of foto) verschijnt op het scherm, druk dan zo snel mogelijk op de spatiebalk. Druk op de spatiebalk telkens wanneer je een foto van Shelmet of het woord SHELMET ziet. 

Druk op de spatiebalk om de taak te starten.
",target3,stimuli/t3.jpg,9,4,stimuli/target3_8.jpg,target,True,space,,,,,,,,,,,,,,0,0,0,0,,,,,0,0,0,2,0,3,3,3,,,,,,,,,,,,,,,,,,,,,,,,,,,,,,,,,,,,,,,,,,,,,,,,,,,,,CS1_USneg,space,1,1.1077459353255108,,,,,,,,,,,,,,,,,24,f,9,n,2019_Apr_05_1442,ec_RRR,3.0.5,75.025560302531,
moran hussey - pilot,"Voor deze taak, is de target figuur Shelmet:","Dus wanneer SHELMET (zijn naam of foto) verschijnt op het scherm, druk dan zo snel mogelijk op de spatiebalk. Druk op de spatiebalk telkens wanneer je een foto van Shelmet of het woord SHELMET ziet. 

Druk op de spatiebalk om de taak te starten.
",target3,stimuli/t3.jpg,9,5,stimuli/filler42.jpg,filler,False,None,,,,,,,,,,,,,,0,0,0,0,,,,,0,0,0,2,0,4,4,4,,,,,,,,,,,,,,,,,,,,,,,,,,,,,,,,,,,,,,,,,,,,,,,,,,,,,CS1_USneg,None,1,,,,,,,,,,,,,,,,,,24,f,9,n,2019_Apr_05_1442,ec_RRR,3.0.5,75.025560302531,
moran hussey - pilot,"Voor deze taak, is de target figuur Shelmet:","Dus wanneer SHELMET (zijn naam of foto) verschijnt op het scherm, druk dan zo snel mogelijk op de spatiebalk. Druk op de spatiebalk telkens wanneer je een foto van Shelmet of het woord SHELMET ziet. 

Druk op de spatiebalk om de taak te starten.
",target3,stimuli/t3.jpg,9,6,stimuli/filler45.jpg,filler,False,None,,,,,,,,,,,,,,0,0,0,0,,,,,0,0,0,2,0,5,5,5,,,,,,,,,,,,,,,,,,,,,,,,,,,,,,,,,,,,,,,,,,,,,,,,,,,,,CS1_USneg,None,1,,,,,,,,,,,,,,,,,,24,f,9,n,2019_Apr_05_1442,ec_RRR,3.0.5,75.025560302531,
moran hussey - pilot,"Voor deze taak, is de target figuur Shelmet:","Dus wanneer SHELMET (zijn naam of foto) verschijnt op het scherm, druk dan zo snel mogelijk op de spatiebalk. Druk op de spatiebalk telkens wanneer je een foto van Shelmet of het woord SHELMET ziet. 

Druk op de spatiebalk om de taak te starten.
",target3,stimuli/t3.jpg,9,7,stimuli/filler52.jpg,filler,False,None,,,,,,,,,,,,,,0,0,0,0,,,,,0,0,0,2,0,6,6,6,,,,,,,,,,,,,,,,,,,,,,,,,,,,,,,,,,,,,,,,,,,,,,,,,,,,,CS1_USneg,None,1,,,,,,,,,,,,,,,,,,24,f,9,n,2019_Apr_05_1442,ec_RRR,3.0.5,75.025560302531,
moran hussey - pilot,"Voor deze taak, is de target figuur Shelmet:","Dus wanneer SHELMET (zijn naam of foto) verschijnt op het scherm, druk dan zo snel mogelijk op de spatiebalk. Druk op de spatiebalk telkens wanneer je een foto van Shelmet of het woord SHELMET ziet. 

Druk op de spatiebalk om de taak te starten.
",target3,stimuli/t3.jpg,9,8,stimuli/target3_1.jpg,target,True,space,,,,,,,,,,,,,,0,0,0,0,,,,,0,0,0,2,0,7,7,7,,,,,,,,,,,,,,,,,,,,,,,,,,,,,,,,,,,,,,,,,,,,,,,,,,,,,CS1_USneg,space,1,0.8538275426253676,,,,,,,,,,,,,,,,,24,f,9,n,2019_Apr_05_1442,ec_RRR,3.0.5,75.025560302531,
moran hussey - pilot,"Voor deze taak, is de target figuur Shelmet:","Dus wanneer SHELMET (zijn naam of foto) verschijnt op het scherm, druk dan zo snel mogelijk op de spatiebalk. Druk op de spatiebalk telkens wanneer je een foto van Shelmet of het woord SHELMET ziet. 

Druk op de spatiebalk om de taak te starten.
",target3,stimuli/t3.jpg,9,9,stimuli/filler44.jpg,filler,False,None,,,,,,,,,,,,,,0,0,0,0,,,,,0,0,0,2,0,8,8,8,,,,,,,,,,,,,,,,,,,,,,,,,,,,,,,,,,,,,,,,,,,,,,,,,,,,,CS1_USneg,None,1,,,,,,,,,,,,,,,,,,24,f,9,n,2019_Apr_05_1442,ec_RRR,3.0.5,75.025560302531,
moran hussey - pilot,"Voor deze taak, is de target figuur Shelmet:","Dus wanneer SHELMET (zijn naam of foto) verschijnt op het scherm, druk dan zo snel mogelijk op de spatiebalk. Druk op de spatiebalk telkens wanneer je een foto van Shelmet of het woord SHELMET ziet. 

Druk op de spatiebalk om de taak te starten.
",target3,stimuli/t3.jpg,9,10,stimuli/blank.jpg,blank,False,None,,,,,,,,,,,,,,0,0,0,0,,,,,0,0,0,2,0,9,9,9,,,,,,,,,,,,,,,,,,,,,,,,,,,,,,,,,,,,,,,,,,,,,,,,,,,,,CS1_USneg,None,1,,,,,,,,,,,,,,,,,,24,f,9,n,2019_Apr_05_1442,ec_RRR,3.0.5,75.025560302531,
moran hussey - pilot,"Voor deze taak, is de target figuur Shelmet:","Dus wanneer SHELMET (zijn naam of foto) verschijnt op het scherm, druk dan zo snel mogelijk op de spatiebalk. Druk op de spatiebalk telkens wanneer je een foto van Shelmet of het woord SHELMET ziet. 

Druk op de spatiebalk om de taak te starten.
",target3,stimuli/t3.jpg,9,11,stimuli/cs1_neg1.jpg,CSUS,False,None,,,,,,,,,,,,,,0,0,0,0,,,,,0,0,0,2,0,10,10,10,,,,,,,,,,,,,,,,,,,,,,,,,,,,,,,,,,,,,,,,,,,,,,,,,,,,,CS1_USneg,None,1,,,,,,,,,,,,,,,,,,24,f,9,n,2019_Apr_05_1442,ec_RRR,3.0.5,75.025560302531,
moran hussey - pilot,"Voor deze taak, is de target figuur Shelmet:","Dus wanneer SHELMET (zijn naam of foto) verschijnt op het scherm, druk dan zo snel mogelijk op de spatiebalk. Druk op de spatiebalk telkens wanneer je een foto van Shelmet of het woord SHELMET ziet. 

Druk op de spatiebalk om de taak te starten.
",target3,stimuli/t3.jpg,9,12,stimuli/blank.jpg,blank,False,None,,,,,,,,,,,,,,0,0,0,0,,,,,0,0,0,2,0,11,11,11,,,,,,,,,,,,,,,,,,,,,,,,,,,,,,,,,,,,,,,,,,,,,,,,,,,,,CS1_USneg,None,1,,,,,,,,,,,,,,,,,,24,f,9,n,2019_Apr_05_1442,ec_RRR,3.0.5,75.025560302531,
moran hussey - pilot,"Voor deze taak, is de target figuur Shelmet:","Dus wanneer SHELMET (zijn naam of foto) verschijnt op het scherm, druk dan zo snel mogelijk op de spatiebalk. Druk op de spatiebalk telkens wanneer je een foto van Shelmet of het woord SHELMET ziet. 

Druk op de spatiebalk om de taak te starten.
",target3,stimuli/t3.jpg,9,13,stimuli/filler38.jpg,filler,False,None,,,,,,,,,,,,,,0,0,0,0,,,,,0,0,0,2,0,12,12,12,,,,,,,,,,,,,,,,,,,,,,,,,,,,,,,,,,,,,,,,,,,,,,,,,,,,,CS1_USneg,None,1,,,,,,,,,,,,,,,,,,24,f,9,n,2019_Apr_05_1442,ec_RRR,3.0.5,75.025560302531,
moran hussey - pilot,"Voor deze taak, is de target figuur Shelmet:","Dus wanneer SHELMET (zijn naam of foto) verschijnt op het scherm, druk dan zo snel mogelijk op de spatiebalk. Druk op de spatiebalk telkens wanneer je een foto van Shelmet of het woord SHELMET ziet. 

Druk op de spatiebalk om de taak te starten.
",target3,stimuli/t3.jpg,9,14,stimuli/target3_3.jpg,target,True,space,,,,,,,,,,,,,,0,0,0,0,,,,,0,0,0,2,0,13,13,13,,,,,,,,,,,,,,,,,,,,,,,,,,,,,,,,,,,,,,,,,,,,,,,,,,,,,CS1_USneg,space,1,0.7204503240645863,,,,,,,,,,,,,,,,,24,f,9,n,2019_Apr_05_1442,ec_RRR,3.0.5,75.025560302531,
moran hussey - pilot,"Voor deze taak, is de target figuur Shelmet:","Dus wanneer SHELMET (zijn naam of foto) verschijnt op het scherm, druk dan zo snel mogelijk op de spatiebalk. Druk op de spatiebalk telkens wanneer je een foto van Shelmet of het woord SHELMET ziet. 

Druk op de spatiebalk om de taak te starten.
",target3,stimuli/t3.jpg,9,15,stimuli/filler27.jpg,filler,False,None,,,,,,,,,,,,,,0,0,0,0,,,,,0,0,0,2,0,14,14,14,,,,,,,,,,,,,,,,,,,,,,,,,,,,,,,,,,,,,,,,,,,,,,,,,,,,,CS1_USneg,None,1,,,,,,,,,,,,,,,,,,24,f,9,n,2019_Apr_05_1442,ec_RRR,3.0.5,75.025560302531,
moran hussey - pilot,"Voor deze taak, is de target figuur Shelmet:","Dus wanneer SHELMET (zijn naam of foto) verschijnt op het scherm, druk dan zo snel mogelijk op de spatiebalk. Druk op de spatiebalk telkens wanneer je een foto van Shelmet of het woord SHELMET ziet. 

Druk op de spatiebalk om de taak te starten.
",target3,stimuli/t3.jpg,9,16,stimuli/filler11.jpg,filler,False,None,,,,,,,,,,,,,,0,0,0,0,,,,,0,0,0,2,0,15,15,15,,,,,,,,,,,,,,,,,,,,,,,,,,,,,,,,,,,,,,,,,,,,,,,,,,,,,CS1_USneg,None,1,,,,,,,,,,,,,,,,,,24,f,9,n,2019_Apr_05_1442,ec_RRR,3.0.5,75.025560302531,
moran hussey - pilot,"Voor deze taak, is de target figuur Shelmet:","Dus wanneer SHELMET (zijn naam of foto) verschijnt op het scherm, druk dan zo snel mogelijk op de spatiebalk. Druk op de spatiebalk telkens wanneer je een foto van Shelmet of het woord SHELMET ziet. 

Druk op de spatiebalk om de taak te starten.
",target3,stimuli/t3.jpg,9,17,stimuli/filler3.jpg,filler,False,None,,,,,,,,,,,,,,0,0,0,0,,,,,0,0,0,2,0,16,16,16,,,,,,,,,,,,,,,,,,,,,,,,,,,,,,,,,,,,,,,,,,,,,,,,,,,,,CS1_USneg,None,1,,,,,,,,,,,,,,,,,,24,f,9,n,2019_Apr_05_1442,ec_RRR,3.0.5,75.025560302531,
moran hussey - pilot,"Voor deze taak, is de target figuur Shelmet:","Dus wanneer SHELMET (zijn naam of foto) verschijnt op het scherm, druk dan zo snel mogelijk op de spatiebalk. Druk op de spatiebalk telkens wanneer je een foto van Shelmet of het woord SHELMET ziet. 

Druk op de spatiebalk om de taak te starten.
",target3,stimuli/t3.jpg,9,18,stimuli/filler18.jpg,filler,False,None,,,,,,,,,,,,,,0,0,0,0,,,,,0,0,0,2,0,17,17,17,,,,,,,,,,,,,,,,,,,,,,,,,,,,,,,,,,,,,,,,,,,,,,,,,,,,,CS1_USneg,None,1,,,,,,,,,,,,,,,,,,24,f,9,n,2019_Apr_05_1442,ec_RRR,3.0.5,75.025560302531,
moran hussey - pilot,"Voor deze taak, is de target figuur Shelmet:","Dus wanneer SHELMET (zijn naam of foto) verschijnt op het scherm, druk dan zo snel mogelijk op de spatiebalk. Druk op de spatiebalk telkens wanneer je een foto van Shelmet of het woord SHELMET ziet. 

Druk op de spatiebalk om de taak te starten.
",target3,stimuli/t3.jpg,9,19,stimuli/filler26.jpg,filler,False,None,,,,,,,,,,,,,,0,0,0,0,,,,,0,0,0,2,0,18,18,18,,,,,,,,,,,,,,,,,,,,,,,,,,,,,,,,,,,,,,,,,,,,,,,,,,,,,CS1_USneg,None,1,,,,,,,,,,,,,,,,,,24,f,9,n,2019_Apr_05_1442,ec_RRR,3.0.5,75.025560302531,
moran hussey - pilot,"Voor deze taak, is de target figuur Shelmet:","Dus wanneer SHELMET (zijn naam of foto) verschijnt op het scherm, druk dan zo snel mogelijk op de spatiebalk. Druk op de spatiebalk telkens wanneer je een foto van Shelmet of het woord SHELMET ziet. 

Druk op de spatiebalk om de taak te starten.
",target3,stimuli/t3.jpg,9,20,stimuli/blank.jpg,blank,False,None,,,,,,,,,,,,,,0,0,0,0,,,,,0,0,0,2,0,19,19,19,,,,,,,,,,,,,,,,,,,,,,,,,,,,,,,,,,,,,,,,,,,,,,,,,,,,,CS1_USneg,None,1,,,,,,,,,,,,,,,,,,24,f,9,n,2019_Apr_05_1442,ec_RRR,3.0.5,75.025560302531,
moran hussey - pilot,"Voor deze taak, is de target figuur Shelmet:","Dus wanneer SHELMET (zijn naam of foto) verschijnt op het scherm, druk dan zo snel mogelijk op de spatiebalk. Druk op de spatiebalk telkens wanneer je een foto van Shelmet of het woord SHELMET ziet. 

Druk op de spatiebalk om de taak te starten.
",target3,stimuli/t3.jpg,9,21,stimuli/cs2_pos15.jpg,CSUS,False,None,,,,,,,,,,,,,,0,0,0,0,,,,,0,0,0,2,0,20,20,20,,,,,,,,,,,,,,,,,,,,,,,,,,,,,,,,,,,,,,,,,,,,,,,,,,,,,CS1_USneg,None,1,,,,,,,,,,,,,,,,,,24,f,9,n,2019_Apr_05_1442,ec_RRR,3.0.5,75.025560302531,
moran hussey - pilot,"Voor deze taak, is de target figuur Shelmet:","Dus wanneer SHELMET (zijn naam of foto) verschijnt op het scherm, druk dan zo snel mogelijk op de spatiebalk. Druk op de spatiebalk telkens wanneer je een foto van Shelmet of het woord SHELMET ziet. 

Druk op de spatiebalk om de taak te starten.
",target3,stimuli/t3.jpg,9,22,stimuli/blank.jpg,blank,False,None,,,,,,,,,,,,,,0,0,0,0,,,,,0,0,0,2,0,21,21,21,,,,,,,,,,,,,,,,,,,,,,,,,,,,,,,,,,,,,,,,,,,,,,,,,,,,,CS1_USneg,None,1,,,,,,,,,,,,,,,,,,24,f,9,n,2019_Apr_05_1442,ec_RRR,3.0.5,75.025560302531,
moran hussey - pilot,"Voor deze taak, is de target figuur Shelmet:","Dus wanneer SHELMET (zijn naam of foto) verschijnt op het scherm, druk dan zo snel mogelijk op de spatiebalk. Druk op de spatiebalk telkens wanneer je een foto van Shelmet of het woord SHELMET ziet. 

Druk op de spatiebalk om de taak te starten.
",target3,stimuli/t3.jpg,9,23,stimuli/filler20.jpg,filler,False,None,,,,,,,,,,,,,,0,0,0,0,,,,,0,0,0,2,0,22,22,22,,,,,,,,,,,,,,,,,,,,,,,,,,,,,,,,,,,,,,,,,,,,,,,,,,,,,CS1_USneg,None,1,,,,,,,,,,,,,,,,,,24,f,9,n,2019_Apr_05_1442,ec_RRR,3.0.5,75.025560302531,
moran hussey - pilot,"Voor deze taak, is de target figuur Shelmet:","Dus wanneer SHELMET (zijn naam of foto) verschijnt op het scherm, druk dan zo snel mogelijk op de spatiebalk. Druk op de spatiebalk telkens wanneer je een foto van Shelmet of het woord SHELMET ziet. 

Druk op de spatiebalk om de taak te starten.
",target3,stimuli/t3.jpg,9,24,stimuli/filler48.jpg,filler,False,None,,,,,,,,,,,,,,0,0,0,0,,,,,0,0,0,2,0,23,23,23,,,,,,,,,,,,,,,,,,,,,,,,,,,,,,,,,,,,,,,,,,,,,,,,,,,,,CS1_USneg,None,1,,,,,,,,,,,,,,,,,,24,f,9,n,2019_Apr_05_1442,ec_RRR,3.0.5,75.025560302531,
moran hussey - pilot,"Voor deze taak, is de target figuur Shelmet:","Dus wanneer SHELMET (zijn naam of foto) verschijnt op het scherm, druk dan zo snel mogelijk op de spatiebalk. Druk op de spatiebalk telkens wanneer je een foto van Shelmet of het woord SHELMET ziet. 

Druk op de spatiebalk om de taak te starten.
",target3,stimuli/t3.jpg,9,25,stimuli/filler8.jpg,filler,False,None,,,,,,,,,,,,,,0,0,0,0,,,,,0,0,0,2,0,24,24,24,,,,,,,,,,,,,,,,,,,,,,,,,,,,,,,,,,,,,,,,,,,,,,,,,,,,,CS1_USneg,None,1,,,,,,,,,,,,,,,,,,24,f,9,n,2019_Apr_05_1442,ec_RRR,3.0.5,75.025560302531,
moran hussey - pilot,"Voor deze taak, is de target figuur Shelmet:","Dus wanneer SHELMET (zijn naam of foto) verschijnt op het scherm, druk dan zo snel mogelijk op de spatiebalk. Druk op de spatiebalk telkens wanneer je een foto van Shelmet of het woord SHELMET ziet. 

Druk op de spatiebalk om de taak te starten.
",target3,stimuli/t3.jpg,9,26,stimuli/filler10.jpg,filler,False,None,,,,,,,,,,,,,,0,0,0,0,,,,,0,0,0,2,0,25,25,25,,,,,,,,,,,,,,,,,,,,,,,,,,,,,,,,,,,,,,,,,,,,,,,,,,,,,CS1_USneg,None,1,,,,,,,,,,,,,,,,,,24,f,9,n,2019_Apr_05_1442,ec_RRR,3.0.5,75.025560302531,
moran hussey - pilot,"Voor deze taak, is de target figuur Shelmet:","Dus wanneer SHELMET (zijn naam of foto) verschijnt op het scherm, druk dan zo snel mogelijk op de spatiebalk. Druk op de spatiebalk telkens wanneer je een foto van Shelmet of het woord SHELMET ziet. 

Druk op de spatiebalk om de taak te starten.
",target3,stimuli/t3.jpg,9,27,stimuli/filler28.jpg,filler,False,None,,,,,,,,,,,,,,0,0,0,0,,,,,0,0,0,2,0,26,26,26,,,,,,,,,,,,,,,,,,,,,,,,,,,,,,,,,,,,,,,,,,,,,,,,,,,,,CS1_USneg,None,1,,,,,,,,,,,,,,,,,,24,f,9,n,2019_Apr_05_1442,ec_RRR,3.0.5,75.025560302531,
moran hussey - pilot,"Voor deze taak, is de target figuur Shelmet:","Dus wanneer SHELMET (zijn naam of foto) verschijnt op het scherm, druk dan zo snel mogelijk op de spatiebalk. Druk op de spatiebalk telkens wanneer je een foto van Shelmet of het woord SHELMET ziet. 

Druk op de spatiebalk om de taak te starten.
",target3,stimuli/t3.jpg,9,28,stimuli/filler29.jpg,filler,False,None,,,,,,,,,,,,,,0,0,0,0,,,,,0,0,0,2,0,27,27,27,,,,,,,,,,,,,,,,,,,,,,,,,,,,,,,,,,,,,,,,,,,,,,,,,,,,,CS1_USneg,None,1,,,,,,,,,,,,,,,,,,24,f,9,n,2019_Apr_05_1442,ec_RRR,3.0.5,75.025560302531,
moran hussey - pilot,"Voor deze taak, is de target figuur Shelmet:","Dus wanneer SHELMET (zijn naam of foto) verschijnt op het scherm, druk dan zo snel mogelijk op de spatiebalk. Druk op de spatiebalk telkens wanneer je een foto van Shelmet of het woord SHELMET ziet. 

Druk op de spatiebalk om de taak te starten.
",target3,stimuli/t3.jpg,9,29,stimuli/filler31.jpg,filler,False,None,,,,,,,,,,,,,,0,0,0,0,,,,,0,0,0,2,0,28,28,28,,,,,,,,,,,,,,,,,,,,,,,,,,,,,,,,,,,,,,,,,,,,,,,,,,,,,CS1_USneg,None,1,,,,,,,,,,,,,,,,,,24,f,9,n,2019_Apr_05_1442,ec_RRR,3.0.5,75.025560302531,
moran hussey - pilot,"Voor deze taak, is de target figuur Shelmet:","Dus wanneer SHELMET (zijn naam of foto) verschijnt op het scherm, druk dan zo snel mogelijk op de spatiebalk. Druk op de spatiebalk telkens wanneer je een foto van Shelmet of het woord SHELMET ziet. 

Druk op de spatiebalk om de taak te starten.
",target3,stimuli/t3.jpg,9,30,stimuli/blank.jpg,blank,False,None,,,,,,,,,,,,,,0,0,0,0,,,,,0,0,0,2,0,29,29,29,,,,,,,,,,,,,,,,,,,,,,,,,,,,,,,,,,,,,,,,,,,,,,,,,,,,,CS1_USneg,None,1,,,,,,,,,,,,,,,,,,24,f,9,n,2019_Apr_05_1442,ec_RRR,3.0.5,75.025560302531,
moran hussey - pilot,"Voor deze taak, is de target figuur Shelmet:","Dus wanneer SHELMET (zijn naam of foto) verschijnt op het scherm, druk dan zo snel mogelijk op de spatiebalk. Druk op de spatiebalk telkens wanneer je een foto van Shelmet of het woord SHELMET ziet. 

Druk op de spatiebalk om de taak te starten.
",target3,stimuli/t3.jpg,9,31,stimuli/cs1_neg14.jpg,CSUS,False,None,,,,,,,,,,,,,,0,0,0,0,,,,,0,0,0,2,0,30,30,30,,,,,,,,,,,,,,,,,,,,,,,,,,,,,,,,,,,,,,,,,,,,,,,,,,,,,CS1_USneg,None,1,,,,,,,,,,,,,,,,,,24,f,9,n,2019_Apr_05_1442,ec_RRR,3.0.5,75.025560302531,
moran hussey - pilot,"Voor deze taak, is de target figuur Shelmet:","Dus wanneer SHELMET (zijn naam of foto) verschijnt op het scherm, druk dan zo snel mogelijk op de spatiebalk. Druk op de spatiebalk telkens wanneer je een foto van Shelmet of het woord SHELMET ziet. 

Druk op de spatiebalk om de taak te starten.
",target3,stimuli/t3.jpg,9,32,stimuli/blank.jpg,blank,False,None,,,,,,,,,,,,,,0,0,0,0,,,,,0,0,0,2,0,31,31,31,,,,,,,,,,,,,,,,,,,,,,,,,,,,,,,,,,,,,,,,,,,,,,,,,,,,,CS1_USneg,None,1,,,,,,,,,,,,,,,,,,24,f,9,n,2019_Apr_05_1442,ec_RRR,3.0.5,75.025560302531,
moran hussey - pilot,"Voor deze taak, is de target figuur Shelmet:","Dus wanneer SHELMET (zijn naam of foto) verschijnt op het scherm, druk dan zo snel mogelijk op de spatiebalk. Druk op de spatiebalk telkens wanneer je een foto van Shelmet of het woord SHELMET ziet. 

Druk op de spatiebalk om de taak te starten.
",target3,stimuli/t3.jpg,9,33,stimuli/filler51.jpg,filler,False,None,,,,,,,,,,,,,,0,0,0,0,,,,,0,0,0,2,0,32,32,32,,,,,,,,,,,,,,,,,,,,,,,,,,,,,,,,,,,,,,,,,,,,,,,,,,,,,CS1_USneg,None,1,,,,,,,,,,,,,,,,,,24,f,9,n,2019_Apr_05_1442,ec_RRR,3.0.5,75.025560302531,
moran hussey - pilot,"Voor deze taak, is de target figuur Shelmet:","Dus wanneer SHELMET (zijn naam of foto) verschijnt op het scherm, druk dan zo snel mogelijk op de spatiebalk. Druk op de spatiebalk telkens wanneer je een foto van Shelmet of het woord SHELMET ziet. 

Druk op de spatiebalk om de taak te starten.
",target3,stimuli/t3.jpg,9,34,stimuli/target3_6.jpg,target,True,space,,,,,,,,,,,,,,0,0,0,0,,,,,0,0,0,2,0,33,33,33,,,,,,,,,,,,,,,,,,,,,,,,,,,,,,,,,,,,,,,,,,,,,,,,,,,,,CS1_USneg,space,1,0.7076958908000961,,,,,,,,,,,,,,,,,24,f,9,n,2019_Apr_05_1442,ec_RRR,3.0.5,75.025560302531,
moran hussey - pilot,"Voor deze taak, is de target figuur Shelmet:","Dus wanneer SHELMET (zijn naam of foto) verschijnt op het scherm, druk dan zo snel mogelijk op de spatiebalk. Druk op de spatiebalk telkens wanneer je een foto van Shelmet of het woord SHELMET ziet. 

Druk op de spatiebalk om de taak te starten.
",target3,stimuli/t3.jpg,9,35,stimuli/filler33.jpg,filler,False,None,,,,,,,,,,,,,,0,0,0,0,,,,,0,0,0,2,0,34,34,34,,,,,,,,,,,,,,,,,,,,,,,,,,,,,,,,,,,,,,,,,,,,,,,,,,,,,CS1_USneg,None,1,,,,,,,,,,,,,,,,,,24,f,9,n,2019_Apr_05_1442,ec_RRR,3.0.5,75.025560302531,
moran hussey - pilot,"Voor deze taak, is de target figuur Shelmet:","Dus wanneer SHELMET (zijn naam of foto) verschijnt op het scherm, druk dan zo snel mogelijk op de spatiebalk. Druk op de spatiebalk telkens wanneer je een foto van Shelmet of het woord SHELMET ziet. 

Druk op de spatiebalk om de taak te starten.
",target3,stimuli/t3.jpg,9,36,stimuli/filler23.jpg,filler,False,None,,,,,,,,,,,,,,0,0,0,0,,,,,0,0,0,2,0,35,35,35,,,,,,,,,,,,,,,,,,,,,,,,,,,,,,,,,,,,,,,,,,,,,,,,,,,,,CS1_USneg,None,1,,,,,,,,,,,,,,,,,,24,f,9,n,2019_Apr_05_1442,ec_RRR,3.0.5,75.025560302531,
moran hussey - pilot,"Voor deze taak, is de target figuur Shelmet:","Dus wanneer SHELMET (zijn naam of foto) verschijnt op het scherm, druk dan zo snel mogelijk op de spatiebalk. Druk op de spatiebalk telkens wanneer je een foto van Shelmet of het woord SHELMET ziet. 

Druk op de spatiebalk om de taak te starten.
",target3,stimuli/t3.jpg,9,37,stimuli/filler32.jpg,filler,False,None,,,,,,,,,,,,,,0,0,0,0,,,,,0,0,0,2,0,36,36,36,,,,,,,,,,,,,,,,,,,,,,,,,,,,,,,,,,,,,,,,,,,,,,,,,,,,,CS1_USneg,None,1,,,,,,,,,,,,,,,,,,24,f,9,n,2019_Apr_05_1442,ec_RRR,3.0.5,75.025560302531,
moran hussey - pilot,"Voor deze taak, is de target figuur Shelmet:","Dus wanneer SHELMET (zijn naam of foto) verschijnt op het scherm, druk dan zo snel mogelijk op de spatiebalk. Druk op de spatiebalk telkens wanneer je een foto van Shelmet of het woord SHELMET ziet. 

Druk op de spatiebalk om de taak te starten.
",target3,stimuli/t3.jpg,9,38,stimuli/filler6.jpg,filler,False,None,,,,,,,,,,,,,,0,0,0,0,,,,,0,0,0,2,0,37,37,37,,,,,,,,,,,,,,,,,,,,,,,,,,,,,,,,,,,,,,,,,,,,,,,,,,,,,CS1_USneg,None,1,,,,,,,,,,,,,,,,,,24,f,9,n,2019_Apr_05_1442,ec_RRR,3.0.5,75.025560302531,
moran hussey - pilot,"Voor deze taak, is de target figuur Shelmet:","Dus wanneer SHELMET (zijn naam of foto) verschijnt op het scherm, druk dan zo snel mogelijk op de spatiebalk. Druk op de spatiebalk telkens wanneer je een foto van Shelmet of het woord SHELMET ziet. 

Druk op de spatiebalk om de taak te starten.
",target3,stimuli/t3.jpg,9,39,stimuli/target3_4.jpg,target,True,space,,,,,,,,,,,,,,0,0,0,0,,,,,0,0,0,2,0,38,38,38,,,,,,,,,,,,,,,,,,,,,,,,,,,,,,,,,,,,,,,,,,,,,,,,,,,,,CS1_USneg,space,1,0.6253637373447418,,,,,,,,,,,,,,,,,24,f,9,n,2019_Apr_05_1442,ec_RRR,3.0.5,75.025560302531,
moran hussey - pilot,"Voor deze taak, is de target figuur Shelmet:","Dus wanneer SHELMET (zijn naam of foto) verschijnt op het scherm, druk dan zo snel mogelijk op de spatiebalk. Druk op de spatiebalk telkens wanneer je een foto van Shelmet of het woord SHELMET ziet. 

Druk op de spatiebalk om de taak te starten.
",target3,stimuli/t3.jpg,9,40,stimuli/blank.jpg,blank,False,None,,,,,,,,,,,,,,0,0,0,0,,,,,0,0,0,2,0,39,39,39,,,,,,,,,,,,,,,,,,,,,,,,,,,,,,,,,,,,,,,,,,,,,,,,,,,,,CS1_USneg,None,1,,,,,,,,,,,,,,,,,,24,f,9,n,2019_Apr_05_1442,ec_RRR,3.0.5,75.025560302531,
moran hussey - pilot,"Voor deze taak, is de target figuur Shelmet:","Dus wanneer SHELMET (zijn naam of foto) verschijnt op het scherm, druk dan zo snel mogelijk op de spatiebalk. Druk op de spatiebalk telkens wanneer je een foto van Shelmet of het woord SHELMET ziet. 

Druk op de spatiebalk om de taak te starten.
",target3,stimuli/t3.jpg,9,41,stimuli/cs2_pos3.jpg,CSUS,False,None,,,,,,,,,,,,,,0,0,0,0,,,,,0,0,0,2,0,40,40,40,,,,,,,,,,,,,,,,,,,,,,,,,,,,,,,,,,,,,,,,,,,,,,,,,,,,,CS1_USneg,None,1,,,,,,,,,,,,,,,,,,24,f,9,n,2019_Apr_05_1442,ec_RRR,3.0.5,75.025560302531,
moran hussey - pilot,"Voor deze taak, is de target figuur Shelmet:","Dus wanneer SHELMET (zijn naam of foto) verschijnt op het scherm, druk dan zo snel mogelijk op de spatiebalk. Druk op de spatiebalk telkens wanneer je een foto van Shelmet of het woord SHELMET ziet. 

Druk op de spatiebalk om de taak te starten.
",target3,stimuli/t3.jpg,9,42,stimuli/blank.jpg,blank,False,None,,,,,,,,,,,,,,0,0,0,0,,,,,0,0,0,2,0,41,41,41,,,,,,,,,,,,,,,,,,,,,,,,,,,,,,,,,,,,,,,,,,,,,,,,,,,,,CS1_USneg,None,1,,,,,,,,,,,,,,,,,,24,f,9,n,2019_Apr_05_1442,ec_RRR,3.0.5,75.025560302531,
moran hussey - pilot,"Voor deze taak, is de target figuur Shelmet:","Dus wanneer SHELMET (zijn naam of foto) verschijnt op het scherm, druk dan zo snel mogelijk op de spatiebalk. Druk op de spatiebalk telkens wanneer je een foto van Shelmet of het woord SHELMET ziet. 

Druk op de spatiebalk om de taak te starten.
",target3,stimuli/t3.jpg,9,43,stimuli/target3_10.jpg,target,True,space,,,,,,,,,,,,,,0,0,0,0,,,,,0,0,0,2,0,42,42,42,,,,,,,,,,,,,,,,,,,,,,,,,,,,,,,,,,,,,,,,,,,,,,,,,,,,,CS1_USneg,space,1,0.45347299613058567,,,,,,,,,,,,,,,,,24,f,9,n,2019_Apr_05_1442,ec_RRR,3.0.5,75.025560302531,
moran hussey - pilot,"Voor deze taak, is de target figuur Shelmet:","Dus wanneer SHELMET (zijn naam of foto) verschijnt op het scherm, druk dan zo snel mogelijk op de spatiebalk. Druk op de spatiebalk telkens wanneer je een foto van Shelmet of het woord SHELMET ziet. 

Druk op de spatiebalk om de taak te starten.
",target3,stimuli/t3.jpg,9,44,stimuli/filler50.jpg,filler,False,None,,,,,,,,,,,,,,0,0,0,0,,,,,0,0,0,2,0,43,43,43,,,,,,,,,,,,,,,,,,,,,,,,,,,,,,,,,,,,,,,,,,,,,,,,,,,,,CS1_USneg,None,1,,,,,,,,,,,,,,,,,,24,f,9,n,2019_Apr_05_1442,ec_RRR,3.0.5,75.025560302531,
moran hussey - pilot,"Voor deze taak, is de target figuur Shelmet:","Dus wanneer SHELMET (zijn naam of foto) verschijnt op het scherm, druk dan zo snel mogelijk op de spatiebalk. Druk op de spatiebalk telkens wanneer je een foto van Shelmet of het woord SHELMET ziet. 

Druk op de spatiebalk om de taak te starten.
",target3,stimuli/t3.jpg,9,45,stimuli/filler2.jpg,filler,False,None,,,,,,,,,,,,,,0,0,0,0,,,,,0,0,0,2,0,44,44,44,,,,,,,,,,,,,,,,,,,,,,,,,,,,,,,,,,,,,,,,,,,,,,,,,,,,,CS1_USneg,None,1,,,,,,,,,,,,,,,,,,24,f,9,n,2019_Apr_05_1442,ec_RRR,3.0.5,75.025560302531,
moran hussey - pilot,"Voor deze taak, is de target figuur Shelmet:","Dus wanneer SHELMET (zijn naam of foto) verschijnt op het scherm, druk dan zo snel mogelijk op de spatiebalk. Druk op de spatiebalk telkens wanneer je een foto van Shelmet of het woord SHELMET ziet. 

Druk op de spatiebalk om de taak te starten.
",target3,stimuli/t3.jpg,9,46,stimuli/filler37.jpg,filler,False,None,,,,,,,,,,,,,,0,0,0,0,,,,,0,0,0,2,0,45,45,45,,,,,,,,,,,,,,,,,,,,,,,,,,,,,,,,,,,,,,,,,,,,,,,,,,,,,CS1_USneg,None,1,,,,,,,,,,,,,,,,,,24,f,9,n,2019_Apr_05_1442,ec_RRR,3.0.5,75.025560302531,
moran hussey - pilot,"Voor deze taak, is de target figuur Shelmet:","Dus wanneer SHELMET (zijn naam of foto) verschijnt op het scherm, druk dan zo snel mogelijk op de spatiebalk. Druk op de spatiebalk telkens wanneer je een foto van Shelmet of het woord SHELMET ziet. 

Druk op de spatiebalk om de taak te starten.
",target3,stimuli/t3.jpg,9,47,stimuli/filler21.jpg,filler,False,None,,,,,,,,,,,,,,0,0,0,0,,,,,0,0,0,2,0,46,46,46,,,,,,,,,,,,,,,,,,,,,,,,,,,,,,,,,,,,,,,,,,,,,,,,,,,,,CS1_USneg,None,1,,,,,,,,,,,,,,,,,,24,f,9,n,2019_Apr_05_1442,ec_RRR,3.0.5,75.025560302531,
moran hussey - pilot,"Voor deze taak, is de target figuur Shelmet:","Dus wanneer SHELMET (zijn naam of foto) verschijnt op het scherm, druk dan zo snel mogelijk op de spatiebalk. Druk op de spatiebalk telkens wanneer je een foto van Shelmet of het woord SHELMET ziet. 

Druk op de spatiebalk om de taak te starten.
",target3,stimuli/t3.jpg,9,48,stimuli/filler34.jpg,filler,False,None,,,,,,,,,,,,,,0,0,0,0,,,,,0,0,0,2,0,47,47,47,,,,,,,,,,,,,,,,,,,,,,,,,,,,,,,,,,,,,,,,,,,,,,,,,,,,,CS1_USneg,None,1,,,,,,,,,,,,,,,,,,24,f,9,n,2019_Apr_05_1442,ec_RRR,3.0.5,75.025560302531,
moran hussey - pilot,"Voor deze taak, is de target figuur Shelmet:","Dus wanneer SHELMET (zijn naam of foto) verschijnt op het scherm, druk dan zo snel mogelijk op de spatiebalk. Druk op de spatiebalk telkens wanneer je een foto van Shelmet of het woord SHELMET ziet. 

Druk op de spatiebalk om de taak te starten.
",target3,stimuli/t3.jpg,9,49,stimuli/filler12.jpg,filler,False,None,,,,,,,,,,,,,,0,0,0,0,,,,,0,0,0,2,0,48,48,48,,,,,,,,,,,,,,,,,,,,,,,,,,,,,,,,,,,,,,,,,,,,,,,,,,,,,CS1_USneg,None,1,,,,,,,,,,,,,,,,,,24,f,9,n,2019_Apr_05_1442,ec_RRR,3.0.5,75.025560302531,
moran hussey - pilot,"Voor deze taak, is de target figuur Shelmet:","Dus wanneer SHELMET (zijn naam of foto) verschijnt op het scherm, druk dan zo snel mogelijk op de spatiebalk. Druk op de spatiebalk telkens wanneer je een foto van Shelmet of het woord SHELMET ziet. 

Druk op de spatiebalk om de taak te starten.
",target3,stimuli/t3.jpg,9,50,stimuli/blank.jpg,blank,False,None,,,,,,,,,,,,,,0,0,0,0,,,,,0,0,0,2,0,49,49,49,,,,,,,,,,,,,,,,,,,,,,,,,,,,,,,,,,,,,,,,,,,,,,,,,,,,,CS1_USneg,None,1,,,,,,,,,,,,,,,,,,24,f,9,n,2019_Apr_05_1442,ec_RRR,3.0.5,75.025560302531,
moran hussey - pilot,"Voor deze taak, is de target figuur Shelmet:","Dus wanneer SHELMET (zijn naam of foto) verschijnt op het scherm, druk dan zo snel mogelijk op de spatiebalk. Druk op de spatiebalk telkens wanneer je een foto van Shelmet of het woord SHELMET ziet. 

Druk op de spatiebalk om de taak te starten.
",target3,stimuli/t3.jpg,9,51,stimuli/cs1_neg11.jpg,CSUS,False,None,,,,,,,,,,,,,,0,0,0,0,,,,,0,0,0,2,0,50,50,50,,,,,,,,,,,,,,,,,,,,,,,,,,,,,,,,,,,,,,,,,,,,,,,,,,,,,CS1_USneg,None,1,,,,,,,,,,,,,,,,,,24,f,9,n,2019_Apr_05_1442,ec_RRR,3.0.5,75.025560302531,
moran hussey - pilot,"Voor deze taak, is de target figuur Shelmet:","Dus wanneer SHELMET (zijn naam of foto) verschijnt op het scherm, druk dan zo snel mogelijk op de spatiebalk. Druk op de spatiebalk telkens wanneer je een foto van Shelmet of het woord SHELMET ziet. 

Druk op de spatiebalk om de taak te starten.
",target3,stimuli/t3.jpg,9,52,stimuli/blank.jpg,blank,False,None,,,,,,,,,,,,,,0,0,0,0,,,,,0,0,0,2,0,51,51,51,,,,,,,,,,,,,,,,,,,,,,,,,,,,,,,,,,,,,,,,,,,,,,,,,,,,,CS1_USneg,None,1,,,,,,,,,,,,,,,,,,24,f,9,n,2019_Apr_05_1442,ec_RRR,3.0.5,75.025560302531,
moran hussey - pilot,"Voor deze taak, is de target figuur Shelmet:","Dus wanneer SHELMET (zijn naam of foto) verschijnt op het scherm, druk dan zo snel mogelijk op de spatiebalk. Druk op de spatiebalk telkens wanneer je een foto van Shelmet of het woord SHELMET ziet. 

Druk op de spatiebalk om de taak te starten.
",target3,stimuli/t3.jpg,9,53,stimuli/target3_5.jpg,target,True,space,,,,,,,,,,,,,,0,0,0,0,,,,,0,0,0,2,0,52,52,52,,,,,,,,,,,,,,,,,,,,,,,,,,,,,,,,,,,,,,,,,,,,,,,,,,,,,CS1_USneg,space,1,0.521308010793291,,,,,,,,,,,,,,,,,24,f,9,n,2019_Apr_05_1442,ec_RRR,3.0.5,75.025560302531,
moran hussey - pilot,"Voor deze taak, is de target figuur Shelmet:","Dus wanneer SHELMET (zijn naam of foto) verschijnt op het scherm, druk dan zo snel mogelijk op de spatiebalk. Druk op de spatiebalk telkens wanneer je een foto van Shelmet of het woord SHELMET ziet. 

Druk op de spatiebalk om de taak te starten.
",target3,stimuli/t3.jpg,9,54,stimuli/filler15.jpg,filler,False,None,,,,,,,,,,,,,,0,0,0,0,,,,,0,0,0,2,0,53,53,53,,,,,,,,,,,,,,,,,,,,,,,,,,,,,,,,,,,,,,,,,,,,,,,,,,,,,CS1_USneg,None,1,,,,,,,,,,,,,,,,,,24,f,9,n,2019_Apr_05_1442,ec_RRR,3.0.5,75.025560302531,
moran hussey - pilot,"Voor deze taak, is de target figuur Shelmet:","Dus wanneer SHELMET (zijn naam of foto) verschijnt op het scherm, druk dan zo snel mogelijk op de spatiebalk. Druk op de spatiebalk telkens wanneer je een foto van Shelmet of het woord SHELMET ziet. 

Druk op de spatiebalk om de taak te starten.
",target3,stimuli/t3.jpg,9,55,stimuli/filler14.jpg,filler,False,None,,,,,,,,,,,,,,0,0,0,0,,,,,0,0,0,2,0,54,54,54,,,,,,,,,,,,,,,,,,,,,,,,,,,,,,,,,,,,,,,,,,,,,,,,,,,,,CS1_USneg,None,1,,,,,,,,,,,,,,,,,,24,f,9,n,2019_Apr_05_1442,ec_RRR,3.0.5,75.025560302531,
moran hussey - pilot,"Voor deze taak, is de target figuur Shelmet:","Dus wanneer SHELMET (zijn naam of foto) verschijnt op het scherm, druk dan zo snel mogelijk op de spatiebalk. Druk op de spatiebalk telkens wanneer je een foto van Shelmet of het woord SHELMET ziet. 

Druk op de spatiebalk om de taak te starten.
",target3,stimuli/t3.jpg,9,56,stimuli/filler49.jpg,filler,False,None,,,,,,,,,,,,,,0,0,0,0,,,,,0,0,0,2,0,55,55,55,,,,,,,,,,,,,,,,,,,,,,,,,,,,,,,,,,,,,,,,,,,,,,,,,,,,,CS1_USneg,None,1,,,,,,,,,,,,,,,,,,24,f,9,n,2019_Apr_05_1442,ec_RRR,3.0.5,75.025560302531,
moran hussey - pilot,"Voor deze taak, is de target figuur Shelmet:","Dus wanneer SHELMET (zijn naam of foto) verschijnt op het scherm, druk dan zo snel mogelijk op de spatiebalk. Druk op de spatiebalk telkens wanneer je een foto van Shelmet of het woord SHELMET ziet. 

Druk op de spatiebalk om de taak te starten.
",target3,stimuli/t3.jpg,9,57,stimuli/target3_2.jpg,target,True,space,,,,,,,,,,,,,,0,0,0,0,,,,,0,0,0,2,0,56,56,56,,,,,,,,,,,,,,,,,,,,,,,,,,,,,,,,,,,,,,,,,,,,,,,,,,,,,CS1_USneg,space,1,0.491746689833235,,,,,,,,,,,,,,,,,24,f,9,n,2019_Apr_05_1442,ec_RRR,3.0.5,75.025560302531,
moran hussey - pilot,"Voor deze taak, is de target figuur Shelmet:","Dus wanneer SHELMET (zijn naam of foto) verschijnt op het scherm, druk dan zo snel mogelijk op de spatiebalk. Druk op de spatiebalk telkens wanneer je een foto van Shelmet of het woord SHELMET ziet. 

Druk op de spatiebalk om de taak te starten.
",target3,stimuli/t3.jpg,9,58,stimuli/filler9.jpg,filler,False,None,,,,,,,,,,,,,,0,0,0,0,,,,,0,0,0,2,0,57,57,57,,,,,,,,,,,,,,,,,,,,,,,,,,,,,,,,,,,,,,,,,,,,,,,,,,,,,CS1_USneg,None,1,,,,,,,,,,,,,,,,,,24,f,9,n,2019_Apr_05_1442,ec_RRR,3.0.5,75.025560302531,
moran hussey - pilot,"Voor deze taak, is de target figuur Shelmet:","Dus wanneer SHELMET (zijn naam of foto) verschijnt op het scherm, druk dan zo snel mogelijk op de spatiebalk. Druk op de spatiebalk telkens wanneer je een foto van Shelmet of het woord SHELMET ziet. 

Druk op de spatiebalk om de taak te starten.
",target3,stimuli/t3.jpg,9,59,stimuli/filler13.jpg,filler,False,None,,,,,,,,,,,,,,0,0,0,0,,,,,0,0,0,2,0,58,58,58,,,,,,,,,,,,,,,,,,,,,,,,,,,,,,,,,,,,,,,,,,,,,,,,,,,,,CS1_USneg,None,1,,,,,,,,,,,,,,,,,,24,f,9,n,2019_Apr_05_1442,ec_RRR,3.0.5,75.025560302531,
moran hussey - pilot,"Voor deze taak, is de target figuur Shelmet:","Dus wanneer SHELMET (zijn naam of foto) verschijnt op het scherm, druk dan zo snel mogelijk op de spatiebalk. Druk op de spatiebalk telkens wanneer je een foto van Shelmet of het woord SHELMET ziet. 

Druk op de spatiebalk om de taak te starten.
",target3,stimuli/t3.jpg,9,60,stimuli/blank.jpg,blank,False,None,,,,,,,,,,,,,,0,0,0,0,,,,,0,0,0,2,0,59,59,59,,,,,,,,,,,,,,,,,,,,,,,,,,,,,,,,,,,,,,,,,,,,,,,,,,,,,CS1_USneg,None,1,,,,,,,,,,,,,,,,,,24,f,9,n,2019_Apr_05_1442,ec_RRR,3.0.5,75.025560302531,
moran hussey - pilot,"Voor deze taak, is de target figuur Shelmet:","Dus wanneer SHELMET (zijn naam of foto) verschijnt op het scherm, druk dan zo snel mogelijk op de spatiebalk. Druk op de spatiebalk telkens wanneer je een foto van Shelmet of het woord SHELMET ziet. 

Druk op de spatiebalk om de taak te starten.
",target3,stimuli/t3.jpg,9,61,stimuli/cs2_pos13.jpg,CSUS,False,None,,,,,,,,,,,,,,0,0,0,0,,,,,0,0,0,2,0,60,60,60,,,,,,,,,,,,,,,,,,,,,,,,,,,,,,,,,,,,,,,,,,,,,,,,,,,,,CS1_USneg,None,1,,,,,,,,,,,,,,,,,,24,f,9,n,2019_Apr_05_1442,ec_RRR,3.0.5,75.025560302531,
moran hussey - pilot,"Voor deze taak, is de target figuur Shelmet:","Dus wanneer SHELMET (zijn naam of foto) verschijnt op het scherm, druk dan zo snel mogelijk op de spatiebalk. Druk op de spatiebalk telkens wanneer je een foto van Shelmet of het woord SHELMET ziet. 

Druk op de spatiebalk om de taak te starten.
",target3,stimuli/t3.jpg,9,62,stimuli/blank.jpg,blank,False,None,,,,,,,,,,,,,,0,0,0,0,,,,,0,0,0,2,0,61,61,61,,,,,,,,,,,,,,,,,,,,,,,,,,,,,,,,,,,,,,,,,,,,,,,,,,,,,CS1_USneg,None,1,,,,,,,,,,,,,,,,,,24,f,9,n,2019_Apr_05_1442,ec_RRR,3.0.5,75.025560302531,
moran hussey - pilot,"Voor deze taak, is de target figuur Shelmet:","Dus wanneer SHELMET (zijn naam of foto) verschijnt op het scherm, druk dan zo snel mogelijk op de spatiebalk. Druk op de spatiebalk telkens wanneer je een foto van Shelmet of het woord SHELMET ziet. 

Druk op de spatiebalk om de taak te starten.
",target3,stimuli/t3.jpg,9,63,stimuli/filler25.jpg,filler,False,None,,,,,,,,,,,,,,0,0,0,0,,,,,0,0,0,2,0,62,62,62,,,,,,,,,,,,,,,,,,,,,,,,,,,,,,,,,,,,,,,,,,,,,,,,,,,,,CS1_USneg,None,1,,,,,,,,,,,,,,,,,,24,f,9,n,2019_Apr_05_1442,ec_RRR,3.0.5,75.025560302531,
moran hussey - pilot,"Voor deze taak, is de target figuur Shelmet:","Dus wanneer SHELMET (zijn naam of foto) verschijnt op het scherm, druk dan zo snel mogelijk op de spatiebalk. Druk op de spatiebalk telkens wanneer je een foto van Shelmet of het woord SHELMET ziet. 

Druk op de spatiebalk om de taak te starten.
",target3,stimuli/t3.jpg,9,64,stimuli/filler40.jpg,filler,False,None,,,,,,,,,,,,,,0,0,0,0,,,,,0,0,0,2,0,63,63,63,,,,,,,,,,,,,,,,,,,,,,,,,,,,,,,,,,,,,,,,,,,,,,,,,,,,,CS1_USneg,None,1,,,,,,,,,,,,,,,,,,24,f,9,n,2019_Apr_05_1442,ec_RRR,3.0.5,75.025560302531,
moran hussey - pilot,"Voor deze taak, is de target figuur Shelmet:","Dus wanneer SHELMET (zijn naam of foto) verschijnt op het scherm, druk dan zo snel mogelijk op de spatiebalk. Druk op de spatiebalk telkens wanneer je een foto van Shelmet of het woord SHELMET ziet. 

Druk op de spatiebalk om de taak te starten.
",target3,stimuli/t3.jpg,9,65,stimuli/filler1.jpg,filler,False,None,,,,,,,,,,,,,,0,0,0,0,,,,,0,0,0,2,0,64,64,64,,,,,,,,,,,,,,,,,,,,,,,,,,,,,,,,,,,,,,,,,,,,,,,,,,,,,CS1_USneg,None,1,,,,,,,,,,,,,,,,,,24,f,9,n,2019_Apr_05_1442,ec_RRR,3.0.5,75.025560302531,
moran hussey - pilot,"Voor deze taak, is de target figuur Shelmet:","Dus wanneer SHELMET (zijn naam of foto) verschijnt op het scherm, druk dan zo snel mogelijk op de spatiebalk. Druk op de spatiebalk telkens wanneer je een foto van Shelmet of het woord SHELMET ziet. 

Druk op de spatiebalk om de taak te starten.
",target3,stimuli/t3.jpg,9,66,stimuli/filler43.jpg,filler,False,None,,,,,,,,,,,,,,0,0,0,0,,,,,0,0,0,2,0,65,65,65,,,,,,,,,,,,,,,,,,,,,,,,,,,,,,,,,,,,,,,,,,,,,,,,,,,,,CS1_USneg,None,1,,,,,,,,,,,,,,,,,,24,f,9,n,2019_Apr_05_1442,ec_RRR,3.0.5,75.025560302531,
moran hussey - pilot,"Voor deze taak, is de target figuur Shelmet:","Dus wanneer SHELMET (zijn naam of foto) verschijnt op het scherm, druk dan zo snel mogelijk op de spatiebalk. Druk op de spatiebalk telkens wanneer je een foto van Shelmet of het woord SHELMET ziet. 

Druk op de spatiebalk om de taak te starten.
",target3,stimuli/t3.jpg,9,67,stimuli/filler22.jpg,filler,False,None,,,,,,,,,,,,,,0,0,0,0,,,,,0,0,0,2,0,66,66,66,,,,,,,,,,,,,,,,,,,,,,,,,,,,,,,,,,,,,,,,,,,,,,,,,,,,,CS1_USneg,None,1,,,,,,,,,,,,,,,,,,24,f,9,n,2019_Apr_05_1442,ec_RRR,3.0.5,75.025560302531,
moran hussey - pilot,"Voor deze taak, is de target figuur Shelmet:","Dus wanneer SHELMET (zijn naam of foto) verschijnt op het scherm, druk dan zo snel mogelijk op de spatiebalk. Druk op de spatiebalk telkens wanneer je een foto van Shelmet of het woord SHELMET ziet. 

Druk op de spatiebalk om de taak te starten.
",target3,stimuli/t3.jpg,9,68,stimuli/filler17.jpg,filler,False,None,,,,,,,,,,,,,,0,0,0,0,,,,,0,0,0,2,0,67,67,67,,,,,,,,,,,,,,,,,,,,,,,,,,,,,,,,,,,,,,,,,,,,,,,,,,,,,CS1_USneg,None,1,,,,,,,,,,,,,,,,,,24,f,9,n,2019_Apr_05_1442,ec_RRR,3.0.5,75.025560302531,
moran hussey - pilot,"Voor deze taak, is de target figuur Shelmet:","Dus wanneer SHELMET (zijn naam of foto) verschijnt op het scherm, druk dan zo snel mogelijk op de spatiebalk. Druk op de spatiebalk telkens wanneer je een foto van Shelmet of het woord SHELMET ziet. 

Druk op de spatiebalk om de taak te starten.
",target3,stimuli/t3.jpg,9,69,stimuli/filler24.jpg,filler,False,None,,,,,,,,,,,,,,0,0,0,0,,,,,0,0,0,2,0,68,68,68,,,,,,,,,,,,,,,,,,,,,,,,,,,,,,,,,,,,,,,,,,,,,,,,,,,,,CS1_USneg,None,1,,,,,,,,,,,,,,,,,,24,f,9,n,2019_Apr_05_1442,ec_RRR,3.0.5,75.025560302531,
moran hussey - pilot,"Voor deze taak, is de target figuur Shelmet:","Dus wanneer SHELMET (zijn naam of foto) verschijnt op het scherm, druk dan zo snel mogelijk op de spatiebalk. Druk op de spatiebalk telkens wanneer je een foto van Shelmet of het woord SHELMET ziet. 

Druk op de spatiebalk om de taak te starten.
",target3,stimuli/t3.jpg,9,70,stimuli/blank.jpg,blank,False,None,,,,,,,,,,,,,,0,0,0,0,,,,,0,0,0,2,0,69,69,69,,,,,,,,,,,,,,,,,,,,,,,,,,,,,,,,,,,,,,,,,,,,,,,,,,,,,CS1_USneg,None,1,,,,,,,,,,,,,,,,,,24,f,9,n,2019_Apr_05_1442,ec_RRR,3.0.5,75.025560302531,
moran hussey - pilot,"Voor deze taak, is de target figuur Shelmet:","Dus wanneer SHELMET (zijn naam of foto) verschijnt op het scherm, druk dan zo snel mogelijk op de spatiebalk. Druk op de spatiebalk telkens wanneer je een foto van Shelmet of het woord SHELMET ziet. 

Druk op de spatiebalk om de taak te starten.
",target3,stimuli/t3.jpg,9,71,stimuli/cs1_neg14.jpg,CSUS,False,None,,,,,,,,,,,,,,0,0,0,0,,,,,0,0,0,2,0,70,70,70,,,,,,,,,,,,,,,,,,,,,,,,,,,,,,,,,,,,,,,,,,,,,,,,,,,,,CS1_USneg,None,1,,,,,,,,,,,,,,,,,,24,f,9,n,2019_Apr_05_1442,ec_RRR,3.0.5,75.025560302531,
moran hussey - pilot,"Voor deze taak, is de target figuur Shelmet:","Dus wanneer SHELMET (zijn naam of foto) verschijnt op het scherm, druk dan zo snel mogelijk op de spatiebalk. Druk op de spatiebalk telkens wanneer je een foto van Shelmet of het woord SHELMET ziet. 

Druk op de spatiebalk om de taak te starten.
",target3,stimuli/t3.jpg,9,72,stimuli/blank.jpg,blank,False,None,,,,,,,,,,,,,,0,0,0,0,,,,,0,0,0,2,0,71,71,71,,,,,,,,,,,,,,,,,,,,,,,,,,,,,,,,,,,,,,,,,,,,,,,,,,,,,CS1_USneg,None,1,,,,,,,,,,,,,,,,,,24,f,9,n,2019_Apr_05_1442,ec_RRR,3.0.5,75.025560302531,
moran hussey - pilot,"Voor deze taak, is de target figuur Shelmet:","Dus wanneer SHELMET (zijn naam of foto) verschijnt op het scherm, druk dan zo snel mogelijk op de spatiebalk. Druk op de spatiebalk telkens wanneer je een foto van Shelmet of het woord SHELMET ziet. 

Druk op de spatiebalk om de taak te starten.
",target3,stimuli/t3.jpg,9,73,stimuli/filler41.jpg,filler,False,None,,,,,,,,,,,,,,0,0,0,0,,,,,0,0,0,2,0,72,72,72,,,,,,,,,,,,,,,,,,,,,,,,,,,,,,,,,,,,,,,,,,,,,,,,,,,,,CS1_USneg,None,1,,,,,,,,,,,,,,,,,,24,f,9,n,2019_Apr_05_1442,ec_RRR,3.0.5,75.025560302531,
moran hussey - pilot,"Voor deze taak, is de target figuur Shelmet:","Dus wanneer SHELMET (zijn naam of foto) verschijnt op het scherm, druk dan zo snel mogelijk op de spatiebalk. Druk op de spatiebalk telkens wanneer je een foto van Shelmet of het woord SHELMET ziet. 

Druk op de spatiebalk om de taak te starten.
",target3,stimuli/t3.jpg,9,74,stimuli/filler30.jpg,filler,False,None,,,,,,,,,,,,,,0,0,0,0,,,,,0,0,0,2,0,73,73,73,,,,,,,,,,,,,,,,,,,,,,,,,,,,,,,,,,,,,,,,,,,,,,,,,,,,,CS1_USneg,None,1,,,,,,,,,,,,,,,,,,24,f,9,n,2019_Apr_05_1442,ec_RRR,3.0.5,75.025560302531,
moran hussey - pilot,"Voor deze taak, is de target figuur Shelmet:","Dus wanneer SHELMET (zijn naam of foto) verschijnt op het scherm, druk dan zo snel mogelijk op de spatiebalk. Druk op de spatiebalk telkens wanneer je een foto van Shelmet of het woord SHELMET ziet. 

Druk op de spatiebalk om de taak te starten.
",target3,stimuli/t3.jpg,9,75,stimuli/filler5.jpg,filler,False,None,,,,,,,,,,,,,,0,0,0,0,,,,,0,0,0,2,0,74,74,74,,,,,,,,,,,,,,,,,,,,,,,,,,,,,,,,,,,,,,,,,,,,,,,,,,,,,CS1_USneg,None,1,,,,,,,,,,,,,,,,,,24,f,9,n,2019_Apr_05_1442,ec_RRR,3.0.5,75.025560302531,
moran hussey - pilot,"Voor deze taak, is de target figuur Shelmet:","Dus wanneer SHELMET (zijn naam of foto) verschijnt op het scherm, druk dan zo snel mogelijk op de spatiebalk. Druk op de spatiebalk telkens wanneer je een foto van Shelmet of het woord SHELMET ziet. 

Druk op de spatiebalk om de taak te starten.
",target3,stimuli/t3.jpg,9,76,stimuli/filler4.jpg,filler,False,None,,,,,,,,,,,,,,0,0,0,0,,,,,0,0,0,2,0,75,75,75,,,,,,,,,,,,,,,,,,,,,,,,,,,,,,,,,,,,,,,,,,,,,,,,,,,,,CS1_USneg,None,1,,,,,,,,,,,,,,,,,,24,f,9,n,2019_Apr_05_1442,ec_RRR,3.0.5,75.025560302531,
moran hussey - pilot,"Voor deze taak, is de target figuur Shelmet:","Dus wanneer SHELMET (zijn naam of foto) verschijnt op het scherm, druk dan zo snel mogelijk op de spatiebalk. Druk op de spatiebalk telkens wanneer je een foto van Shelmet of het woord SHELMET ziet. 

Druk op de spatiebalk om de taak te starten.
",target3,stimuli/t3.jpg,9,77,stimuli/filler7.jpg,filler,False,None,,,,,,,,,,,,,,0,0,0,0,,,,,0,0,0,2,0,76,76,76,,,,,,,,,,,,,,,,,,,,,,,,,,,,,,,,,,,,,,,,,,,,,,,,,,,,,CS1_USneg,None,1,,,,,,,,,,,,,,,,,,24,f,9,n,2019_Apr_05_1442,ec_RRR,3.0.5,75.025560302531,
moran hussey - pilot,"Voor deze taak, is de target figuur Shelmet:","Dus wanneer SHELMET (zijn naam of foto) verschijnt op het scherm, druk dan zo snel mogelijk op de spatiebalk. Druk op de spatiebalk telkens wanneer je een foto van Shelmet of het woord SHELMET ziet. 

Druk op de spatiebalk om de taak te starten.
",target3,stimuli/t3.jpg,9,78,stimuli/filler16.jpg,filler,False,None,,,,,,,,,,,,,,0,0,0,0,,,,,0,0,0,2,0,77,77,77,,,,,,,,,,,,,,,,,,,,,,,,,,,,,,,,,,,,,,,,,,,,,,,,,,,,,CS1_USneg,None,1,,,,,,,,,,,,,,,,,,24,f,9,n,2019_Apr_05_1442,ec_RRR,3.0.5,75.025560302531,
moran hussey - pilot,"Voor deze taak, is de target figuur Shelmet:","Dus wanneer SHELMET (zijn naam of foto) verschijnt op het scherm, druk dan zo snel mogelijk op de spatiebalk. Druk op de spatiebalk telkens wanneer je een foto van Shelmet of het woord SHELMET ziet. 

Druk op de spatiebalk om de taak te starten.
",target3,stimuli/t3.jpg,9,79,stimuli/target3_9.jpg,target,True,space,,,,,,,,,,,,,,0,0,0,0,,,,,0,0,0,2,0,78,78,78,,,,,,,,,,,,,,,,,,,,,,,,,,,,,,,,,,,,,,,,,,,,,,,,,,,,,CS1_USneg,space,1,0.6264231421519071,,,,,,,,,,,,,,,,,24,f,9,n,2019_Apr_05_1442,ec_RRR,3.0.5,75.025560302531,
moran hussey - pilot,"Voor deze taak, is de target figuur Shelmet:","Dus wanneer SHELMET (zijn naam of foto) verschijnt op het scherm, druk dan zo snel mogelijk op de spatiebalk. Druk op de spatiebalk telkens wanneer je een foto van Shelmet of het woord SHELMET ziet. 

Druk op de spatiebalk om de taak te starten.
",target3,stimuli/t3.jpg,9,80,stimuli/blank.jpg,blank,False,None,,,,,,,,,,,,,,0,0,0,0,,,,,0,0,0,2,0,79,79,79,,,,,,,,,,,,,,,,,,,,,,,,,,,,,,,,,,,,,,,,,,,,,,,,,,,,,CS1_USneg,None,1,,,,,,,,,,,,,,,,,,24,f,9,n,2019_Apr_05_1442,ec_RRR,3.0.5,75.025560302531,
moran hussey - pilot,"Voor deze taak, is de target figuur Shelmet:","Dus wanneer SHELMET (zijn naam of foto) verschijnt op het scherm, druk dan zo snel mogelijk op de spatiebalk. Druk op de spatiebalk telkens wanneer je een foto van Shelmet of het woord SHELMET ziet. 

Druk op de spatiebalk om de taak te starten.
",target3,stimuli/t3.jpg,9,81,stimuli/cs2_pos6.jpg,CSUS,False,None,,,,,,,,,,,,,,0,0,0,0,,,,,0,0,0,2,0,80,80,80,,,,,,,,,,,,,,,,,,,,,,,,,,,,,,,,,,,,,,,,,,,,,,,,,,,,,CS1_USneg,None,1,,,,,,,,,,,,,,,,,,24,f,9,n,2019_Apr_05_1442,ec_RRR,3.0.5,75.025560302531,
moran hussey - pilot,"Voor deze taak, is de target figuur Shelmet:","Dus wanneer SHELMET (zijn naam of foto) verschijnt op het scherm, druk dan zo snel mogelijk op de spatiebalk. Druk op de spatiebalk telkens wanneer je een foto van Shelmet of het woord SHELMET ziet. 

Druk op de spatiebalk om de taak te starten.
",target3,stimuli/t3.jpg,9,82,stimuli/blank.jpg,blank,False,None,,,,,,,,,,,,,,0,0,0,0,,,,,0,0,0,2,0,81,81,81,,,,,,,,,,,,,,,,,,,,,,,,,,,,,,,,,,,,,,,,,,,,,,,,,,,,,CS1_USneg,None,1,,,,,,,,,,,,,,,,,,24,f,9,n,2019_Apr_05_1442,ec_RRR,3.0.5,75.025560302531,
moran hussey - pilot,"Voor deze taak, is de target figuur Shelmet:","Dus wanneer SHELMET (zijn naam of foto) verschijnt op het scherm, druk dan zo snel mogelijk op de spatiebalk. Druk op de spatiebalk telkens wanneer je een foto van Shelmet of het woord SHELMET ziet. 

Druk op de spatiebalk om de taak te starten.
",target3,stimuli/t3.jpg,9,83,stimuli/filler36.jpg,filler,False,None,,,,,,,,,,,,,,0,0,0,0,,,,,0,0,0,2,0,82,82,82,,,,,,,,,,,,,,,,,,,,,,,,,,,,,,,,,,,,,,,,,,,,,,,,,,,,,CS1_USneg,None,1,,,,,,,,,,,,,,,,,,24,f,9,n,2019_Apr_05_1442,ec_RRR,3.0.5,75.025560302531,
moran hussey - pilot,"Voor deze taak, is de target figuur Shelmet:","Dus wanneer SHELMET (zijn naam of foto) verschijnt op het scherm, druk dan zo snel mogelijk op de spatiebalk. Druk op de spatiebalk telkens wanneer je een foto van Shelmet of het woord SHELMET ziet. 

Druk op de spatiebalk om de taak te starten.
",target3,stimuli/t3.jpg,9,84,stimuli/filler19.jpg,filler,False,None,,,,,,,,,,,,,,0,0,0,0,,,,,0,0,0,2,0,83,83,83,,,,,,,,,,,,,,,,,,,,,,,,,,,,,,,,,,,,,,,,,,,,,,,,,,,,,CS1_USneg,None,1,,,,,,,,,,,,,,,,,,24,f,9,n,2019_Apr_05_1442,ec_RRR,3.0.5,75.025560302531,
moran hussey - pilot,"Voor deze taak, is de target figuur Shelmet:","Dus wanneer SHELMET (zijn naam of foto) verschijnt op het scherm, druk dan zo snel mogelijk op de spatiebalk. Druk op de spatiebalk telkens wanneer je een foto van Shelmet of het woord SHELMET ziet. 

Druk op de spatiebalk om de taak te starten.
",target3,stimuli/t3.jpg,9,85,stimuli/filler35.jpg,filler,False,None,,,,,,,,,,,,,,0,0,0,0,,,,,0,0,0,2,0,84,84,84,,,,,,,,,,,,,,,,,,,,,,,,,,,,,,,,,,,,,,,,,,,,,,,,,,,,,CS1_USneg,None,1,,,,,,,,,,,,,,,,,,24,f,9,n,2019_Apr_05_1442,ec_RRR,3.0.5,75.025560302531,
moran hussey - pilot,"Voor deze taak, is de target figuur Shelmet:","Dus wanneer SHELMET (zijn naam of foto) verschijnt op het scherm, druk dan zo snel mogelijk op de spatiebalk. Druk op de spatiebalk telkens wanneer je een foto van Shelmet of het woord SHELMET ziet. 

Druk op de spatiebalk om de taak te starten.
",target3,stimuli/t3.jpg,9,86,stimuli/target3_7.jpg,target,True,space,,,,,,,,,,,,,,0,0,0,0,,,,,0,0,0,2,0,85,85,85,,,,,,,,,,,,,,,,,,,,,,,,,,,,,,,,,,,,,,,,,,,,,,,,,,,,,CS1_USneg,space,1,0.506101779115852,,,,,,,,,,,,,,,,,24,f,9,n,2019_Apr_05_1442,ec_RRR,3.0.5,75.025560302531,
moran hussey - pilot,"Voor deze taak, is de target figuur Golett: ","Dus wanneer GOLETT (zijn naam of foto) verschijnt op het scherm, druk dan zo snel mogelijk op de spatiebalk. Druk op de spatiebalk telkens wanneer je een foto van Golett of het woord GOLETT ziet. 

Druk op de spatiebalk om de taak te starten.
",target4,stimuli/t4.jpg,9,1,stimuli/filler22.jpg,filler,False,None,,,,,,,,,,,,,,0,0,0,0,,,,,0,1,1,3,0,0,0,0,,,,,,,,,,,,,,,,,,,,,,,,,,,,,,,,,,,,,,,,,,,,,,,,,,,,,CS1_USneg,None,1,,,,,,,,,,,,,,,,,,24,f,9,n,2019_Apr_05_1442,ec_RRR,3.0.5,75.025560302531,
moran hussey - pilot,"Voor deze taak, is de target figuur Golett: ","Dus wanneer GOLETT (zijn naam of foto) verschijnt op het scherm, druk dan zo snel mogelijk op de spatiebalk. Druk op de spatiebalk telkens wanneer je een foto van Golett of het woord GOLETT ziet. 

Druk op de spatiebalk om de taak te starten.
",target4,stimuli/t4.jpg,9,2,stimuli/target4_9.jpg,target,True,space,,,,,,,,,,,,,,0,0,0,0,,,,,0,1,1,3,0,1,1,1,,,,,,,,,,,,,,,,,,,,,,,,,,,,,,,,,,,,,,,,,,,,,,,,,,,,,CS1_USneg,space,1,0.6780398701666854,,,,,,,,,,,,,,,,,24,f,9,n,2019_Apr_05_1442,ec_RRR,3.0.5,75.025560302531,
moran hussey - pilot,"Voor deze taak, is de target figuur Golett: ","Dus wanneer GOLETT (zijn naam of foto) verschijnt op het scherm, druk dan zo snel mogelijk op de spatiebalk. Druk op de spatiebalk telkens wanneer je een foto van Golett of het woord GOLETT ziet. 

Druk op de spatiebalk om de taak te starten.
",target4,stimuli/t4.jpg,9,3,stimuli/filler47.jpg,filler,False,None,,,,,,,,,,,,,,0,0,0,0,,,,,0,1,1,3,0,2,2,2,,,,,,,,,,,,,,,,,,,,,,,,,,,,,,,,,,,,,,,,,,,,,,,,,,,,,CS1_USneg,None,1,,,,,,,,,,,,,,,,,,24,f,9,n,2019_Apr_05_1442,ec_RRR,3.0.5,75.025560302531,
moran hussey - pilot,"Voor deze taak, is de target figuur Golett: ","Dus wanneer GOLETT (zijn naam of foto) verschijnt op het scherm, druk dan zo snel mogelijk op de spatiebalk. Druk op de spatiebalk telkens wanneer je een foto van Golett of het woord GOLETT ziet. 

Druk op de spatiebalk om de taak te starten.
",target4,stimuli/t4.jpg,9,4,stimuli/filler15.jpg,filler,False,None,,,,,,,,,,,,,,0,0,0,0,,,,,0,1,1,3,0,3,3,3,,,,,,,,,,,,,,,,,,,,,,,,,,,,,,,,,,,,,,,,,,,,,,,,,,,,,CS1_USneg,None,1,,,,,,,,,,,,,,,,,,24,f,9,n,2019_Apr_05_1442,ec_RRR,3.0.5,75.025560302531,
moran hussey - pilot,"Voor deze taak, is de target figuur Golett: ","Dus wanneer GOLETT (zijn naam of foto) verschijnt op het scherm, druk dan zo snel mogelijk op de spatiebalk. Druk op de spatiebalk telkens wanneer je een foto van Golett of het woord GOLETT ziet. 

Druk op de spatiebalk om de taak te starten.
",target4,stimuli/t4.jpg,9,5,stimuli/target4_7.jpg,target,True,space,,,,,,,,,,,,,,0,0,0,0,,,,,0,1,1,3,0,4,4,4,,,,,,,,,,,,,,,,,,,,,,,,,,,,,,,,,,,,,,,,,,,,,,,,,,,,,CS1_USneg,space,1,0.733057318313513,,,,,,,,,,,,,,,,,24,f,9,n,2019_Apr_05_1442,ec_RRR,3.0.5,75.025560302531,
moran hussey - pilot,"Voor deze taak, is de target figuur Golett: ","Dus wanneer GOLETT (zijn naam of foto) verschijnt op het scherm, druk dan zo snel mogelijk op de spatiebalk. Druk op de spatiebalk telkens wanneer je een foto van Golett of het woord GOLETT ziet. 

Druk op de spatiebalk om de taak te starten.
",target4,stimuli/t4.jpg,9,6,stimuli/filler30.jpg,filler,False,None,,,,,,,,,,,,,,0,0,0,0,,,,,0,1,1,3,0,5,5,5,,,,,,,,,,,,,,,,,,,,,,,,,,,,,,,,,,,,,,,,,,,,,,,,,,,,,CS1_USneg,None,1,,,,,,,,,,,,,,,,,,24,f,9,n,2019_Apr_05_1442,ec_RRR,3.0.5,75.025560302531,
moran hussey - pilot,"Voor deze taak, is de target figuur Golett: ","Dus wanneer GOLETT (zijn naam of foto) verschijnt op het scherm, druk dan zo snel mogelijk op de spatiebalk. Druk op de spatiebalk telkens wanneer je een foto van Golett of het woord GOLETT ziet. 

Druk op de spatiebalk om de taak te starten.
",target4,stimuli/t4.jpg,9,7,stimuli/filler6.jpg,filler,False,None,,,,,,,,,,,,,,0,0,0,0,,,,,0,1,1,3,0,6,6,6,,,,,,,,,,,,,,,,,,,,,,,,,,,,,,,,,,,,,,,,,,,,,,,,,,,,,CS1_USneg,None,1,,,,,,,,,,,,,,,,,,24,f,9,n,2019_Apr_05_1442,ec_RRR,3.0.5,75.025560302531,
moran hussey - pilot,"Voor deze taak, is de target figuur Golett: ","Dus wanneer GOLETT (zijn naam of foto) verschijnt op het scherm, druk dan zo snel mogelijk op de spatiebalk. Druk op de spatiebalk telkens wanneer je een foto van Golett of het woord GOLETT ziet. 

Druk op de spatiebalk om de taak te starten.
",target4,stimuli/t4.jpg,9,8,stimuli/filler33.jpg,filler,False,None,,,,,,,,,,,,,,0,0,0,0,,,,,0,1,1,3,0,7,7,7,,,,,,,,,,,,,,,,,,,,,,,,,,,,,,,,,,,,,,,,,,,,,,,,,,,,,CS1_USneg,None,1,,,,,,,,,,,,,,,,,,24,f,9,n,2019_Apr_05_1442,ec_RRR,3.0.5,75.025560302531,
moran hussey - pilot,"Voor deze taak, is de target figuur Golett: ","Dus wanneer GOLETT (zijn naam of foto) verschijnt op het scherm, druk dan zo snel mogelijk op de spatiebalk. Druk op de spatiebalk telkens wanneer je een foto van Golett of het woord GOLETT ziet. 

Druk op de spatiebalk om de taak te starten.
",target4,stimuli/t4.jpg,9,9,stimuli/target4_1.jpg,target,True,space,,,,,,,,,,,,,,0,0,0,0,,,,,0,1,1,3,0,8,8,8,,,,,,,,,,,,,,,,,,,,,,,,,,,,,,,,,,,,,,,,,,,,,,,,,,,,,CS1_USneg,space,1,0.5861549802939408,,,,,,,,,,,,,,,,,24,f,9,n,2019_Apr_05_1442,ec_RRR,3.0.5,75.025560302531,
moran hussey - pilot,"Voor deze taak, is de target figuur Golett: ","Dus wanneer GOLETT (zijn naam of foto) verschijnt op het scherm, druk dan zo snel mogelijk op de spatiebalk. Druk op de spatiebalk telkens wanneer je een foto van Golett of het woord GOLETT ziet. 

Druk op de spatiebalk om de taak te starten.
",target4,stimuli/t4.jpg,9,10,stimuli/blank.jpg,blank,False,None,,,,,,,,,,,,,,0,0,0,0,,,,,0,1,1,3,0,9,9,9,,,,,,,,,,,,,,,,,,,,,,,,,,,,,,,,,,,,,,,,,,,,,,,,,,,,,CS1_USneg,None,1,,,,,,,,,,,,,,,,,,24,f,9,n,2019_Apr_05_1442,ec_RRR,3.0.5,75.025560302531,
moran hussey - pilot,"Voor deze taak, is de target figuur Golett: ","Dus wanneer GOLETT (zijn naam of foto) verschijnt op het scherm, druk dan zo snel mogelijk op de spatiebalk. Druk op de spatiebalk telkens wanneer je een foto van Golett of het woord GOLETT ziet. 

Druk op de spatiebalk om de taak te starten.
",target4,stimuli/t4.jpg,9,11,stimuli/cs1_neg6.jpg,CSUS,False,None,,,,,,,,,,,,,,0,0,0,0,,,,,0,1,1,3,0,10,10,10,,,,,,,,,,,,,,,,,,,,,,,,,,,,,,,,,,,,,,,,,,,,,,,,,,,,,CS1_USneg,None,1,,,,,,,,,,,,,,,,,,24,f,9,n,2019_Apr_05_1442,ec_RRR,3.0.5,75.025560302531,
moran hussey - pilot,"Voor deze taak, is de target figuur Golett: ","Dus wanneer GOLETT (zijn naam of foto) verschijnt op het scherm, druk dan zo snel mogelijk op de spatiebalk. Druk op de spatiebalk telkens wanneer je een foto van Golett of het woord GOLETT ziet. 

Druk op de spatiebalk om de taak te starten.
",target4,stimuli/t4.jpg,9,12,stimuli/blank.jpg,blank,False,None,,,,,,,,,,,,,,0,0,0,0,,,,,0,1,1,3,0,11,11,11,,,,,,,,,,,,,,,,,,,,,,,,,,,,,,,,,,,,,,,,,,,,,,,,,,,,,CS1_USneg,None,1,,,,,,,,,,,,,,,,,,24,f,9,n,2019_Apr_05_1442,ec_RRR,3.0.5,75.025560302531,
moran hussey - pilot,"Voor deze taak, is de target figuur Golett: ","Dus wanneer GOLETT (zijn naam of foto) verschijnt op het scherm, druk dan zo snel mogelijk op de spatiebalk. Druk op de spatiebalk telkens wanneer je een foto van Golett of het woord GOLETT ziet. 

Druk op de spatiebalk om de taak te starten.
",target4,stimuli/t4.jpg,9,13,stimuli/filler34.jpg,filler,False,None,,,,,,,,,,,,,,0,0,0,0,,,,,0,1,1,3,0,12,12,12,,,,,,,,,,,,,,,,,,,,,,,,,,,,,,,,,,,,,,,,,,,,,,,,,,,,,CS1_USneg,None,1,,,,,,,,,,,,,,,,,,24,f,9,n,2019_Apr_05_1442,ec_RRR,3.0.5,75.025560302531,
moran hussey - pilot,"Voor deze taak, is de target figuur Golett: ","Dus wanneer GOLETT (zijn naam of foto) verschijnt op het scherm, druk dan zo snel mogelijk op de spatiebalk. Druk op de spatiebalk telkens wanneer je een foto van Golett of het woord GOLETT ziet. 

Druk op de spatiebalk om de taak te starten.
",target4,stimuli/t4.jpg,9,14,stimuli/filler20.jpg,filler,False,None,,,,,,,,,,,,,,0,0,0,0,,,,,0,1,1,3,0,13,13,13,,,,,,,,,,,,,,,,,,,,,,,,,,,,,,,,,,,,,,,,,,,,,,,,,,,,,CS1_USneg,None,1,,,,,,,,,,,,,,,,,,24,f,9,n,2019_Apr_05_1442,ec_RRR,3.0.5,75.025560302531,
moran hussey - pilot,"Voor deze taak, is de target figuur Golett: ","Dus wanneer GOLETT (zijn naam of foto) verschijnt op het scherm, druk dan zo snel mogelijk op de spatiebalk. Druk op de spatiebalk telkens wanneer je een foto van Golett of het woord GOLETT ziet. 

Druk op de spatiebalk om de taak te starten.
",target4,stimuli/t4.jpg,9,15,stimuli/target4_5.jpg,target,True,space,,,,,,,,,,,,,,0,0,0,0,,,,,0,1,1,3,0,14,14,14,,,,,,,,,,,,,,,,,,,,,,,,,,,,,,,,,,,,,,,,,,,,,,,,,,,,,CS1_USneg,space,1,0.5070360725512728,,,,,,,,,,,,,,,,,24,f,9,n,2019_Apr_05_1442,ec_RRR,3.0.5,75.025560302531,
moran hussey - pilot,"Voor deze taak, is de target figuur Golett: ","Dus wanneer GOLETT (zijn naam of foto) verschijnt op het scherm, druk dan zo snel mogelijk op de spatiebalk. Druk op de spatiebalk telkens wanneer je een foto van Golett of het woord GOLETT ziet. 

Druk op de spatiebalk om de taak te starten.
",target4,stimuli/t4.jpg,9,16,stimuli/filler12.jpg,filler,False,None,,,,,,,,,,,,,,0,0,0,0,,,,,0,1,1,3,0,15,15,15,,,,,,,,,,,,,,,,,,,,,,,,,,,,,,,,,,,,,,,,,,,,,,,,,,,,,CS1_USneg,None,1,,,,,,,,,,,,,,,,,,24,f,9,n,2019_Apr_05_1442,ec_RRR,3.0.5,75.025560302531,
moran hussey - pilot,"Voor deze taak, is de target figuur Golett: ","Dus wanneer GOLETT (zijn naam of foto) verschijnt op het scherm, druk dan zo snel mogelijk op de spatiebalk. Druk op de spatiebalk telkens wanneer je een foto van Golett of het woord GOLETT ziet. 

Druk op de spatiebalk om de taak te starten.
",target4,stimuli/t4.jpg,9,17,stimuli/filler19.jpg,filler,False,None,,,,,,,,,,,,,,0,0,0,0,,,,,0,1,1,3,0,16,16,16,,,,,,,,,,,,,,,,,,,,,,,,,,,,,,,,,,,,,,,,,,,,,,,,,,,,,CS1_USneg,None,1,,,,,,,,,,,,,,,,,,24,f,9,n,2019_Apr_05_1442,ec_RRR,3.0.5,75.025560302531,
moran hussey - pilot,"Voor deze taak, is de target figuur Golett: ","Dus wanneer GOLETT (zijn naam of foto) verschijnt op het scherm, druk dan zo snel mogelijk op de spatiebalk. Druk op de spatiebalk telkens wanneer je een foto van Golett of het woord GOLETT ziet. 

Druk op de spatiebalk om de taak te starten.
",target4,stimuli/t4.jpg,9,18,stimuli/filler37.jpg,filler,False,None,,,,,,,,,,,,,,0,0,0,0,,,,,0,1,1,3,0,17,17,17,,,,,,,,,,,,,,,,,,,,,,,,,,,,,,,,,,,,,,,,,,,,,,,,,,,,,CS1_USneg,None,1,,,,,,,,,,,,,,,,,,24,f,9,n,2019_Apr_05_1442,ec_RRR,3.0.5,75.025560302531,
moran hussey - pilot,"Voor deze taak, is de target figuur Golett: ","Dus wanneer GOLETT (zijn naam of foto) verschijnt op het scherm, druk dan zo snel mogelijk op de spatiebalk. Druk op de spatiebalk telkens wanneer je een foto van Golett of het woord GOLETT ziet. 

Druk op de spatiebalk om de taak te starten.
",target4,stimuli/t4.jpg,9,19,stimuli/filler41.jpg,filler,False,None,,,,,,,,,,,,,,0,0,0,0,,,,,0,1,1,3,0,18,18,18,,,,,,,,,,,,,,,,,,,,,,,,,,,,,,,,,,,,,,,,,,,,,,,,,,,,,CS1_USneg,None,1,,,,,,,,,,,,,,,,,,24,f,9,n,2019_Apr_05_1442,ec_RRR,3.0.5,75.025560302531,
moran hussey - pilot,"Voor deze taak, is de target figuur Golett: ","Dus wanneer GOLETT (zijn naam of foto) verschijnt op het scherm, druk dan zo snel mogelijk op de spatiebalk. Druk op de spatiebalk telkens wanneer je een foto van Golett of het woord GOLETT ziet. 

Druk op de spatiebalk om de taak te starten.
",target4,stimuli/t4.jpg,9,20,stimuli/blank.jpg,blank,False,None,,,,,,,,,,,,,,0,0,0,0,,,,,0,1,1,3,0,19,19,19,,,,,,,,,,,,,,,,,,,,,,,,,,,,,,,,,,,,,,,,,,,,,,,,,,,,,CS1_USneg,None,1,,,,,,,,,,,,,,,,,,24,f,9,n,2019_Apr_05_1442,ec_RRR,3.0.5,75.025560302531,
moran hussey - pilot,"Voor deze taak, is de target figuur Golett: ","Dus wanneer GOLETT (zijn naam of foto) verschijnt op het scherm, druk dan zo snel mogelijk op de spatiebalk. Druk op de spatiebalk telkens wanneer je een foto van Golett of het woord GOLETT ziet. 

Druk op de spatiebalk om de taak te starten.
",target4,stimuli/t4.jpg,9,21,stimuli/cs2_pos7.jpg,CSUS,False,None,,,,,,,,,,,,,,0,0,0,0,,,,,0,1,1,3,0,20,20,20,,,,,,,,,,,,,,,,,,,,,,,,,,,,,,,,,,,,,,,,,,,,,,,,,,,,,CS1_USneg,None,1,,,,,,,,,,,,,,,,,,24,f,9,n,2019_Apr_05_1442,ec_RRR,3.0.5,75.025560302531,
moran hussey - pilot,"Voor deze taak, is de target figuur Golett: ","Dus wanneer GOLETT (zijn naam of foto) verschijnt op het scherm, druk dan zo snel mogelijk op de spatiebalk. Druk op de spatiebalk telkens wanneer je een foto van Golett of het woord GOLETT ziet. 

Druk op de spatiebalk om de taak te starten.
",target4,stimuli/t4.jpg,9,22,stimuli/blank.jpg,blank,False,None,,,,,,,,,,,,,,0,0,0,0,,,,,0,1,1,3,0,21,21,21,,,,,,,,,,,,,,,,,,,,,,,,,,,,,,,,,,,,,,,,,,,,,,,,,,,,,CS1_USneg,None,1,,,,,,,,,,,,,,,,,,24,f,9,n,2019_Apr_05_1442,ec_RRR,3.0.5,75.025560302531,
moran hussey - pilot,"Voor deze taak, is de target figuur Golett: ","Dus wanneer GOLETT (zijn naam of foto) verschijnt op het scherm, druk dan zo snel mogelijk op de spatiebalk. Druk op de spatiebalk telkens wanneer je een foto van Golett of het woord GOLETT ziet. 

Druk op de spatiebalk om de taak te starten.
",target4,stimuli/t4.jpg,9,23,stimuli/filler10.jpg,filler,False,None,,,,,,,,,,,,,,0,0,0,0,,,,,0,1,1,3,0,22,22,22,,,,,,,,,,,,,,,,,,,,,,,,,,,,,,,,,,,,,,,,,,,,,,,,,,,,,CS1_USneg,None,1,,,,,,,,,,,,,,,,,,24,f,9,n,2019_Apr_05_1442,ec_RRR,3.0.5,75.025560302531,
moran hussey - pilot,"Voor deze taak, is de target figuur Golett: ","Dus wanneer GOLETT (zijn naam of foto) verschijnt op het scherm, druk dan zo snel mogelijk op de spatiebalk. Druk op de spatiebalk telkens wanneer je een foto van Golett of het woord GOLETT ziet. 

Druk op de spatiebalk om de taak te starten.
",target4,stimuli/t4.jpg,9,24,stimuli/filler16.jpg,filler,False,None,,,,,,,,,,,,,,0,0,0,0,,,,,0,1,1,3,0,23,23,23,,,,,,,,,,,,,,,,,,,,,,,,,,,,,,,,,,,,,,,,,,,,,,,,,,,,,CS1_USneg,None,1,,,,,,,,,,,,,,,,,,24,f,9,n,2019_Apr_05_1442,ec_RRR,3.0.5,75.025560302531,
moran hussey - pilot,"Voor deze taak, is de target figuur Golett: ","Dus wanneer GOLETT (zijn naam of foto) verschijnt op het scherm, druk dan zo snel mogelijk op de spatiebalk. Druk op de spatiebalk telkens wanneer je een foto van Golett of het woord GOLETT ziet. 

Druk op de spatiebalk om de taak te starten.
",target4,stimuli/t4.jpg,9,25,stimuli/filler14.jpg,filler,False,None,,,,,,,,,,,,,,0,0,0,0,,,,,0,1,1,3,0,24,24,24,,,,,,,,,,,,,,,,,,,,,,,,,,,,,,,,,,,,,,,,,,,,,,,,,,,,,CS1_USneg,None,1,,,,,,,,,,,,,,,,,,24,f,9,n,2019_Apr_05_1442,ec_RRR,3.0.5,75.025560302531,
moran hussey - pilot,"Voor deze taak, is de target figuur Golett: ","Dus wanneer GOLETT (zijn naam of foto) verschijnt op het scherm, druk dan zo snel mogelijk op de spatiebalk. Druk op de spatiebalk telkens wanneer je een foto van Golett of het woord GOLETT ziet. 

Druk op de spatiebalk om de taak te starten.
",target4,stimuli/t4.jpg,9,26,stimuli/filler46.jpg,filler,False,None,,,,,,,,,,,,,,0,0,0,0,,,,,0,1,1,3,0,25,25,25,,,,,,,,,,,,,,,,,,,,,,,,,,,,,,,,,,,,,,,,,,,,,,,,,,,,,CS1_USneg,None,1,,,,,,,,,,,,,,,,,,24,f,9,n,2019_Apr_05_1442,ec_RRR,3.0.5,75.025560302531,
moran hussey - pilot,"Voor deze taak, is de target figuur Golett: ","Dus wanneer GOLETT (zijn naam of foto) verschijnt op het scherm, druk dan zo snel mogelijk op de spatiebalk. Druk op de spatiebalk telkens wanneer je een foto van Golett of het woord GOLETT ziet. 

Druk op de spatiebalk om de taak te starten.
",target4,stimuli/t4.jpg,9,27,stimuli/target4_2.jpg,target,True,space,,,,,,,,,,,,,,0,0,0,0,,,,,0,1,1,3,0,26,26,26,,,,,,,,,,,,,,,,,,,,,,,,,,,,,,,,,,,,,,,,,,,,,,,,,,,,,CS1_USneg,space,1,0.4537713386816904,,,,,,,,,,,,,,,,,24,f,9,n,2019_Apr_05_1442,ec_RRR,3.0.5,75.025560302531,
moran hussey - pilot,"Voor deze taak, is de target figuur Golett: ","Dus wanneer GOLETT (zijn naam of foto) verschijnt op het scherm, druk dan zo snel mogelijk op de spatiebalk. Druk op de spatiebalk telkens wanneer je een foto van Golett of het woord GOLETT ziet. 

Druk op de spatiebalk om de taak te starten.
",target4,stimuli/t4.jpg,9,28,stimuli/filler36.jpg,filler,False,None,,,,,,,,,,,,,,0,0,0,0,,,,,0,1,1,3,0,27,27,27,,,,,,,,,,,,,,,,,,,,,,,,,,,,,,,,,,,,,,,,,,,,,,,,,,,,,CS1_USneg,None,1,,,,,,,,,,,,,,,,,,24,f,9,n,2019_Apr_05_1442,ec_RRR,3.0.5,75.025560302531,
moran hussey - pilot,"Voor deze taak, is de target figuur Golett: ","Dus wanneer GOLETT (zijn naam of foto) verschijnt op het scherm, druk dan zo snel mogelijk op de spatiebalk. Druk op de spatiebalk telkens wanneer je een foto van Golett of het woord GOLETT ziet. 

Druk op de spatiebalk om de taak te starten.
",target4,stimuli/t4.jpg,9,29,stimuli/filler23.jpg,filler,False,None,,,,,,,,,,,,,,0,0,0,0,,,,,0,1,1,3,0,28,28,28,,,,,,,,,,,,,,,,,,,,,,,,,,,,,,,,,,,,,,,,,,,,,,,,,,,,,CS1_USneg,None,1,,,,,,,,,,,,,,,,,,24,f,9,n,2019_Apr_05_1442,ec_RRR,3.0.5,75.025560302531,
moran hussey - pilot,"Voor deze taak, is de target figuur Golett: ","Dus wanneer GOLETT (zijn naam of foto) verschijnt op het scherm, druk dan zo snel mogelijk op de spatiebalk. Druk op de spatiebalk telkens wanneer je een foto van Golett of het woord GOLETT ziet. 

Druk op de spatiebalk om de taak te starten.
",target4,stimuli/t4.jpg,9,30,stimuli/blank.jpg,blank,False,None,,,,,,,,,,,,,,0,0,0,0,,,,,0,1,1,3,0,29,29,29,,,,,,,,,,,,,,,,,,,,,,,,,,,,,,,,,,,,,,,,,,,,,,,,,,,,,CS1_USneg,None,1,,,,,,,,,,,,,,,,,,24,f,9,n,2019_Apr_05_1442,ec_RRR,3.0.5,75.025560302531,
moran hussey - pilot,"Voor deze taak, is de target figuur Golett: ","Dus wanneer GOLETT (zijn naam of foto) verschijnt op het scherm, druk dan zo snel mogelijk op de spatiebalk. Druk op de spatiebalk telkens wanneer je een foto van Golett of het woord GOLETT ziet. 

Druk op de spatiebalk om de taak te starten.
",target4,stimuli/t4.jpg,9,31,stimuli/cs1_neg19.jpg,CSUS,False,None,,,,,,,,,,,,,,0,0,0,0,,,,,0,1,1,3,0,30,30,30,,,,,,,,,,,,,,,,,,,,,,,,,,,,,,,,,,,,,,,,,,,,,,,,,,,,,CS1_USneg,None,1,,,,,,,,,,,,,,,,,,24,f,9,n,2019_Apr_05_1442,ec_RRR,3.0.5,75.025560302531,
moran hussey - pilot,"Voor deze taak, is de target figuur Golett: ","Dus wanneer GOLETT (zijn naam of foto) verschijnt op het scherm, druk dan zo snel mogelijk op de spatiebalk. Druk op de spatiebalk telkens wanneer je een foto van Golett of het woord GOLETT ziet. 

Druk op de spatiebalk om de taak te starten.
",target4,stimuli/t4.jpg,9,32,stimuli/blank.jpg,blank,False,None,,,,,,,,,,,,,,0,0,0,0,,,,,0,1,1,3,0,31,31,31,,,,,,,,,,,,,,,,,,,,,,,,,,,,,,,,,,,,,,,,,,,,,,,,,,,,,CS1_USneg,None,1,,,,,,,,,,,,,,,,,,24,f,9,n,2019_Apr_05_1442,ec_RRR,3.0.5,75.025560302531,
moran hussey - pilot,"Voor deze taak, is de target figuur Golett: ","Dus wanneer GOLETT (zijn naam of foto) verschijnt op het scherm, druk dan zo snel mogelijk op de spatiebalk. Druk op de spatiebalk telkens wanneer je een foto van Golett of het woord GOLETT ziet. 

Druk op de spatiebalk om de taak te starten.
",target4,stimuli/t4.jpg,9,33,stimuli/filler45.jpg,filler,False,None,,,,,,,,,,,,,,0,0,0,0,,,,,0,1,1,3,0,32,32,32,,,,,,,,,,,,,,,,,,,,,,,,,,,,,,,,,,,,,,,,,,,,,,,,,,,,,CS1_USneg,None,1,,,,,,,,,,,,,,,,,,24,f,9,n,2019_Apr_05_1442,ec_RRR,3.0.5,75.025560302531,
moran hussey - pilot,"Voor deze taak, is de target figuur Golett: ","Dus wanneer GOLETT (zijn naam of foto) verschijnt op het scherm, druk dan zo snel mogelijk op de spatiebalk. Druk op de spatiebalk telkens wanneer je een foto van Golett of het woord GOLETT ziet. 

Druk op de spatiebalk om de taak te starten.
",target4,stimuli/t4.jpg,9,34,stimuli/filler49.jpg,filler,False,None,,,,,,,,,,,,,,0,0,0,0,,,,,0,1,1,3,0,33,33,33,,,,,,,,,,,,,,,,,,,,,,,,,,,,,,,,,,,,,,,,,,,,,,,,,,,,,CS1_USneg,None,1,,,,,,,,,,,,,,,,,,24,f,9,n,2019_Apr_05_1442,ec_RRR,3.0.5,75.025560302531,
moran hussey - pilot,"Voor deze taak, is de target figuur Golett: ","Dus wanneer GOLETT (zijn naam of foto) verschijnt op het scherm, druk dan zo snel mogelijk op de spatiebalk. Druk op de spatiebalk telkens wanneer je een foto van Golett of het woord GOLETT ziet. 

Druk op de spatiebalk om de taak te starten.
",target4,stimuli/t4.jpg,9,35,stimuli/filler31.jpg,filler,False,None,,,,,,,,,,,,,,0,0,0,0,,,,,0,1,1,3,0,34,34,34,,,,,,,,,,,,,,,,,,,,,,,,,,,,,,,,,,,,,,,,,,,,,,,,,,,,,CS1_USneg,None,1,,,,,,,,,,,,,,,,,,24,f,9,n,2019_Apr_05_1442,ec_RRR,3.0.5,75.025560302531,
moran hussey - pilot,"Voor deze taak, is de target figuur Golett: ","Dus wanneer GOLETT (zijn naam of foto) verschijnt op het scherm, druk dan zo snel mogelijk op de spatiebalk. Druk op de spatiebalk telkens wanneer je een foto van Golett of het woord GOLETT ziet. 

Druk op de spatiebalk om de taak te starten.
",target4,stimuli/t4.jpg,9,36,stimuli/filler48.jpg,filler,False,None,,,,,,,,,,,,,,0,0,0,0,,,,,0,1,1,3,0,35,35,35,,,,,,,,,,,,,,,,,,,,,,,,,,,,,,,,,,,,,,,,,,,,,,,,,,,,,CS1_USneg,None,1,,,,,,,,,,,,,,,,,,24,f,9,n,2019_Apr_05_1442,ec_RRR,3.0.5,75.025560302531,
moran hussey - pilot,"Voor deze taak, is de target figuur Golett: ","Dus wanneer GOLETT (zijn naam of foto) verschijnt op het scherm, druk dan zo snel mogelijk op de spatiebalk. Druk op de spatiebalk telkens wanneer je een foto van Golett of het woord GOLETT ziet. 

Druk op de spatiebalk om de taak te starten.
",target4,stimuli/t4.jpg,9,37,stimuli/filler17.jpg,filler,False,None,,,,,,,,,,,,,,0,0,0,0,,,,,0,1,1,3,0,36,36,36,,,,,,,,,,,,,,,,,,,,,,,,,,,,,,,,,,,,,,,,,,,,,,,,,,,,,CS1_USneg,None,1,,,,,,,,,,,,,,,,,,24,f,9,n,2019_Apr_05_1442,ec_RRR,3.0.5,75.025560302531,
moran hussey - pilot,"Voor deze taak, is de target figuur Golett: ","Dus wanneer GOLETT (zijn naam of foto) verschijnt op het scherm, druk dan zo snel mogelijk op de spatiebalk. Druk op de spatiebalk telkens wanneer je een foto van Golett of het woord GOLETT ziet. 

Druk op de spatiebalk om de taak te starten.
",target4,stimuli/t4.jpg,9,38,stimuli/filler35.jpg,filler,False,None,,,,,,,,,,,,,,0,0,0,0,,,,,0,1,1,3,0,37,37,37,,,,,,,,,,,,,,,,,,,,,,,,,,,,,,,,,,,,,,,,,,,,,,,,,,,,,CS1_USneg,None,1,,,,,,,,,,,,,,,,,,24,f,9,n,2019_Apr_05_1442,ec_RRR,3.0.5,75.025560302531,
moran hussey - pilot,"Voor deze taak, is de target figuur Golett: ","Dus wanneer GOLETT (zijn naam of foto) verschijnt op het scherm, druk dan zo snel mogelijk op de spatiebalk. Druk op de spatiebalk telkens wanneer je een foto van Golett of het woord GOLETT ziet. 

Druk op de spatiebalk om de taak te starten.
",target4,stimuli/t4.jpg,9,39,stimuli/target4_10.jpg,target,True,space,,,,,,,,,,,,,,0,0,0,0,,,,,0,1,1,3,0,38,38,38,,,,,,,,,,,,,,,,,,,,,,,,,,,,,,,,,,,,,,,,,,,,,,,,,,,,,CS1_USneg,space,1,0.4660372600774281,,,,,,,,,,,,,,,,,24,f,9,n,2019_Apr_05_1442,ec_RRR,3.0.5,75.025560302531,
moran hussey - pilot,"Voor deze taak, is de target figuur Golett: ","Dus wanneer GOLETT (zijn naam of foto) verschijnt op het scherm, druk dan zo snel mogelijk op de spatiebalk. Druk op de spatiebalk telkens wanneer je een foto van Golett of het woord GOLETT ziet. 

Druk op de spatiebalk om de taak te starten.
",target4,stimuli/t4.jpg,9,40,stimuli/blank.jpg,blank,False,None,,,,,,,,,,,,,,0,0,0,0,,,,,0,1,1,3,0,39,39,39,,,,,,,,,,,,,,,,,,,,,,,,,,,,,,,,,,,,,,,,,,,,,,,,,,,,,CS1_USneg,None,1,,,,,,,,,,,,,,,,,,24,f,9,n,2019_Apr_05_1442,ec_RRR,3.0.5,75.025560302531,
moran hussey - pilot,"Voor deze taak, is de target figuur Golett: ","Dus wanneer GOLETT (zijn naam of foto) verschijnt op het scherm, druk dan zo snel mogelijk op de spatiebalk. Druk op de spatiebalk telkens wanneer je een foto van Golett of het woord GOLETT ziet. 

Druk op de spatiebalk om de taak te starten.
",target4,stimuli/t4.jpg,9,41,stimuli/cs2_pos15.jpg,CSUS,False,None,,,,,,,,,,,,,,0,0,0,0,,,,,0,1,1,3,0,40,40,40,,,,,,,,,,,,,,,,,,,,,,,,,,,,,,,,,,,,,,,,,,,,,,,,,,,,,CS1_USneg,None,1,,,,,,,,,,,,,,,,,,24,f,9,n,2019_Apr_05_1442,ec_RRR,3.0.5,75.025560302531,
moran hussey - pilot,"Voor deze taak, is de target figuur Golett: ","Dus wanneer GOLETT (zijn naam of foto) verschijnt op het scherm, druk dan zo snel mogelijk op de spatiebalk. Druk op de spatiebalk telkens wanneer je een foto van Golett of het woord GOLETT ziet. 

Druk op de spatiebalk om de taak te starten.
",target4,stimuli/t4.jpg,9,42,stimuli/blank.jpg,blank,False,None,,,,,,,,,,,,,,0,0,0,0,,,,,0,1,1,3,0,41,41,41,,,,,,,,,,,,,,,,,,,,,,,,,,,,,,,,,,,,,,,,,,,,,,,,,,,,,CS1_USneg,None,1,,,,,,,,,,,,,,,,,,24,f,9,n,2019_Apr_05_1442,ec_RRR,3.0.5,75.025560302531,
moran hussey - pilot,"Voor deze taak, is de target figuur Golett: ","Dus wanneer GOLETT (zijn naam of foto) verschijnt op het scherm, druk dan zo snel mogelijk op de spatiebalk. Druk op de spatiebalk telkens wanneer je een foto van Golett of het woord GOLETT ziet. 

Druk op de spatiebalk om de taak te starten.
",target4,stimuli/t4.jpg,9,43,stimuli/filler2.jpg,filler,False,None,,,,,,,,,,,,,,0,0,0,0,,,,,0,1,1,3,0,42,42,42,,,,,,,,,,,,,,,,,,,,,,,,,,,,,,,,,,,,,,,,,,,,,,,,,,,,,CS1_USneg,None,1,,,,,,,,,,,,,,,,,,24,f,9,n,2019_Apr_05_1442,ec_RRR,3.0.5,75.025560302531,
moran hussey - pilot,"Voor deze taak, is de target figuur Golett: ","Dus wanneer GOLETT (zijn naam of foto) verschijnt op het scherm, druk dan zo snel mogelijk op de spatiebalk. Druk op de spatiebalk telkens wanneer je een foto van Golett of het woord GOLETT ziet. 

Druk op de spatiebalk om de taak te starten.
",target4,stimuli/t4.jpg,9,44,stimuli/filler18.jpg,filler,False,None,,,,,,,,,,,,,,0,0,0,0,,,,,0,1,1,3,0,43,43,43,,,,,,,,,,,,,,,,,,,,,,,,,,,,,,,,,,,,,,,,,,,,,,,,,,,,,CS1_USneg,None,1,,,,,,,,,,,,,,,,,,24,f,9,n,2019_Apr_05_1442,ec_RRR,3.0.5,75.025560302531,
moran hussey - pilot,"Voor deze taak, is de target figuur Golett: ","Dus wanneer GOLETT (zijn naam of foto) verschijnt op het scherm, druk dan zo snel mogelijk op de spatiebalk. Druk op de spatiebalk telkens wanneer je een foto van Golett of het woord GOLETT ziet. 

Druk op de spatiebalk om de taak te starten.
",target4,stimuli/t4.jpg,9,45,stimuli/filler28.jpg,filler,False,None,,,,,,,,,,,,,,0,0,0,0,,,,,0,1,1,3,0,44,44,44,,,,,,,,,,,,,,,,,,,,,,,,,,,,,,,,,,,,,,,,,,,,,,,,,,,,,CS1_USneg,None,1,,,,,,,,,,,,,,,,,,24,f,9,n,2019_Apr_05_1442,ec_RRR,3.0.5,75.025560302531,
moran hussey - pilot,"Voor deze taak, is de target figuur Golett: ","Dus wanneer GOLETT (zijn naam of foto) verschijnt op het scherm, druk dan zo snel mogelijk op de spatiebalk. Druk op de spatiebalk telkens wanneer je een foto van Golett of het woord GOLETT ziet. 

Druk op de spatiebalk om de taak te starten.
",target4,stimuli/t4.jpg,9,46,stimuli/filler27.jpg,filler,False,None,,,,,,,,,,,,,,0,0,0,0,,,,,0,1,1,3,0,45,45,45,,,,,,,,,,,,,,,,,,,,,,,,,,,,,,,,,,,,,,,,,,,,,,,,,,,,,CS1_USneg,None,1,,,,,,,,,,,,,,,,,,24,f,9,n,2019_Apr_05_1442,ec_RRR,3.0.5,75.025560302531,
moran hussey - pilot,"Voor deze taak, is de target figuur Golett: ","Dus wanneer GOLETT (zijn naam of foto) verschijnt op het scherm, druk dan zo snel mogelijk op de spatiebalk. Druk op de spatiebalk telkens wanneer je een foto van Golett of het woord GOLETT ziet. 

Druk op de spatiebalk om de taak te starten.
",target4,stimuli/t4.jpg,9,47,stimuli/filler8.jpg,filler,False,None,,,,,,,,,,,,,,0,0,0,0,,,,,0,1,1,3,0,46,46,46,,,,,,,,,,,,,,,,,,,,,,,,,,,,,,,,,,,,,,,,,,,,,,,,,,,,,CS1_USneg,None,1,,,,,,,,,,,,,,,,,,24,f,9,n,2019_Apr_05_1442,ec_RRR,3.0.5,75.025560302531,
moran hussey - pilot,"Voor deze taak, is de target figuur Golett: ","Dus wanneer GOLETT (zijn naam of foto) verschijnt op het scherm, druk dan zo snel mogelijk op de spatiebalk. Druk op de spatiebalk telkens wanneer je een foto van Golett of het woord GOLETT ziet. 

Druk op de spatiebalk om de taak te starten.
",target4,stimuli/t4.jpg,9,48,stimuli/filler39.jpg,filler,False,None,,,,,,,,,,,,,,0,0,0,0,,,,,0,1,1,3,0,47,47,47,,,,,,,,,,,,,,,,,,,,,,,,,,,,,,,,,,,,,,,,,,,,,,,,,,,,,CS1_USneg,None,1,,,,,,,,,,,,,,,,,,24,f,9,n,2019_Apr_05_1442,ec_RRR,3.0.5,75.025560302531,
moran hussey - pilot,"Voor deze taak, is de target figuur Golett: ","Dus wanneer GOLETT (zijn naam of foto) verschijnt op het scherm, druk dan zo snel mogelijk op de spatiebalk. Druk op de spatiebalk telkens wanneer je een foto van Golett of het woord GOLETT ziet. 

Druk op de spatiebalk om de taak te starten.
",target4,stimuli/t4.jpg,9,49,stimuli/filler9.jpg,filler,False,None,,,,,,,,,,,,,,0,0,0,0,,,,,0,1,1,3,0,48,48,48,,,,,,,,,,,,,,,,,,,,,,,,,,,,,,,,,,,,,,,,,,,,,,,,,,,,,CS1_USneg,None,1,,,,,,,,,,,,,,,,,,24,f,9,n,2019_Apr_05_1442,ec_RRR,3.0.5,75.025560302531,
moran hussey - pilot,"Voor deze taak, is de target figuur Golett: ","Dus wanneer GOLETT (zijn naam of foto) verschijnt op het scherm, druk dan zo snel mogelijk op de spatiebalk. Druk op de spatiebalk telkens wanneer je een foto van Golett of het woord GOLETT ziet. 

Druk op de spatiebalk om de taak te starten.
",target4,stimuli/t4.jpg,9,50,stimuli/blank.jpg,blank,False,None,,,,,,,,,,,,,,0,0,0,0,,,,,0,1,1,3,0,49,49,49,,,,,,,,,,,,,,,,,,,,,,,,,,,,,,,,,,,,,,,,,,,,,,,,,,,,,CS1_USneg,None,1,,,,,,,,,,,,,,,,,,24,f,9,n,2019_Apr_05_1442,ec_RRR,3.0.5,75.025560302531,
moran hussey - pilot,"Voor deze taak, is de target figuur Golett: ","Dus wanneer GOLETT (zijn naam of foto) verschijnt op het scherm, druk dan zo snel mogelijk op de spatiebalk. Druk op de spatiebalk telkens wanneer je een foto van Golett of het woord GOLETT ziet. 

Druk op de spatiebalk om de taak te starten.
",target4,stimuli/t4.jpg,9,51,stimuli/cs1_neg10.jpg,CSUS,False,None,,,,,,,,,,,,,,0,0,0,0,,,,,0,1,1,3,0,50,50,50,,,,,,,,,,,,,,,,,,,,,,,,,,,,,,,,,,,,,,,,,,,,,,,,,,,,,CS1_USneg,None,1,,,,,,,,,,,,,,,,,,24,f,9,n,2019_Apr_05_1442,ec_RRR,3.0.5,75.025560302531,
moran hussey - pilot,"Voor deze taak, is de target figuur Golett: ","Dus wanneer GOLETT (zijn naam of foto) verschijnt op het scherm, druk dan zo snel mogelijk op de spatiebalk. Druk op de spatiebalk telkens wanneer je een foto van Golett of het woord GOLETT ziet. 

Druk op de spatiebalk om de taak te starten.
",target4,stimuli/t4.jpg,9,52,stimuli/blank.jpg,blank,False,None,,,,,,,,,,,,,,0,0,0,0,,,,,0,1,1,3,0,51,51,51,,,,,,,,,,,,,,,,,,,,,,,,,,,,,,,,,,,,,,,,,,,,,,,,,,,,,CS1_USneg,None,1,,,,,,,,,,,,,,,,,,24,f,9,n,2019_Apr_05_1442,ec_RRR,3.0.5,75.025560302531,
moran hussey - pilot,"Voor deze taak, is de target figuur Golett: ","Dus wanneer GOLETT (zijn naam of foto) verschijnt op het scherm, druk dan zo snel mogelijk op de spatiebalk. Druk op de spatiebalk telkens wanneer je een foto van Golett of het woord GOLETT ziet. 

Druk op de spatiebalk om de taak te starten.
",target4,stimuli/t4.jpg,9,53,stimuli/filler29.jpg,filler,False,None,,,,,,,,,,,,,,0,0,0,0,,,,,0,1,1,3,0,52,52,52,,,,,,,,,,,,,,,,,,,,,,,,,,,,,,,,,,,,,,,,,,,,,,,,,,,,,CS1_USneg,None,1,,,,,,,,,,,,,,,,,,24,f,9,n,2019_Apr_05_1442,ec_RRR,3.0.5,75.025560302531,
moran hussey - pilot,"Voor deze taak, is de target figuur Golett: ","Dus wanneer GOLETT (zijn naam of foto) verschijnt op het scherm, druk dan zo snel mogelijk op de spatiebalk. Druk op de spatiebalk telkens wanneer je een foto van Golett of het woord GOLETT ziet. 

Druk op de spatiebalk om de taak te starten.
",target4,stimuli/t4.jpg,9,54,stimuli/target4_3.jpg,target,True,space,,,,,,,,,,,,,,0,0,0,0,,,,,0,1,1,3,0,53,53,53,,,,,,,,,,,,,,,,,,,,,,,,,,,,,,,,,,,,,,,,,,,,,,,,,,,,,CS1_USneg,space,1,0.5211701957741752,,,,,,,,,,,,,,,,,24,f,9,n,2019_Apr_05_1442,ec_RRR,3.0.5,75.025560302531,
moran hussey - pilot,"Voor deze taak, is de target figuur Golett: ","Dus wanneer GOLETT (zijn naam of foto) verschijnt op het scherm, druk dan zo snel mogelijk op de spatiebalk. Druk op de spatiebalk telkens wanneer je een foto van Golett of het woord GOLETT ziet. 

Druk op de spatiebalk om de taak te starten.
",target4,stimuli/t4.jpg,9,55,stimuli/filler11.jpg,filler,False,None,,,,,,,,,,,,,,0,0,0,0,,,,,0,1,1,3,0,54,54,54,,,,,,,,,,,,,,,,,,,,,,,,,,,,,,,,,,,,,,,,,,,,,,,,,,,,,CS1_USneg,None,1,,,,,,,,,,,,,,,,,,24,f,9,n,2019_Apr_05_1442,ec_RRR,3.0.5,75.025560302531,
moran hussey - pilot,"Voor deze taak, is de target figuur Golett: ","Dus wanneer GOLETT (zijn naam of foto) verschijnt op het scherm, druk dan zo snel mogelijk op de spatiebalk. Druk op de spatiebalk telkens wanneer je een foto van Golett of het woord GOLETT ziet. 

Druk op de spatiebalk om de taak te starten.
",target4,stimuli/t4.jpg,9,56,stimuli/filler51.jpg,filler,False,None,,,,,,,,,,,,,,0,0,0,0,,,,,0,1,1,3,0,55,55,55,,,,,,,,,,,,,,,,,,,,,,,,,,,,,,,,,,,,,,,,,,,,,,,,,,,,,CS1_USneg,None,1,,,,,,,,,,,,,,,,,,24,f,9,n,2019_Apr_05_1442,ec_RRR,3.0.5,75.025560302531,
moran hussey - pilot,"Voor deze taak, is de target figuur Golett: ","Dus wanneer GOLETT (zijn naam of foto) verschijnt op het scherm, druk dan zo snel mogelijk op de spatiebalk. Druk op de spatiebalk telkens wanneer je een foto van Golett of het woord GOLETT ziet. 

Druk op de spatiebalk om de taak te starten.
",target4,stimuli/t4.jpg,9,57,stimuli/filler50.jpg,filler,False,None,,,,,,,,,,,,,,0,0,0,0,,,,,0,1,1,3,0,56,56,56,,,,,,,,,,,,,,,,,,,,,,,,,,,,,,,,,,,,,,,,,,,,,,,,,,,,,CS1_USneg,None,1,,,,,,,,,,,,,,,,,,24,f,9,n,2019_Apr_05_1442,ec_RRR,3.0.5,75.025560302531,
moran hussey - pilot,"Voor deze taak, is de target figuur Golett: ","Dus wanneer GOLETT (zijn naam of foto) verschijnt op het scherm, druk dan zo snel mogelijk op de spatiebalk. Druk op de spatiebalk telkens wanneer je een foto van Golett of het woord GOLETT ziet. 

Druk op de spatiebalk om de taak te starten.
",target4,stimuli/t4.jpg,9,58,stimuli/filler43.jpg,filler,False,None,,,,,,,,,,,,,,0,0,0,0,,,,,0,1,1,3,0,57,57,57,,,,,,,,,,,,,,,,,,,,,,,,,,,,,,,,,,,,,,,,,,,,,,,,,,,,,CS1_USneg,None,1,,,,,,,,,,,,,,,,,,24,f,9,n,2019_Apr_05_1442,ec_RRR,3.0.5,75.025560302531,
moran hussey - pilot,"Voor deze taak, is de target figuur Golett: ","Dus wanneer GOLETT (zijn naam of foto) verschijnt op het scherm, druk dan zo snel mogelijk op de spatiebalk. Druk op de spatiebalk telkens wanneer je een foto van Golett of het woord GOLETT ziet. 

Druk op de spatiebalk om de taak te starten.
",target4,stimuli/t4.jpg,9,59,stimuli/filler24.jpg,filler,False,None,,,,,,,,,,,,,,0,0,0,0,,,,,0,1,1,3,0,58,58,58,,,,,,,,,,,,,,,,,,,,,,,,,,,,,,,,,,,,,,,,,,,,,,,,,,,,,CS1_USneg,None,1,,,,,,,,,,,,,,,,,,24,f,9,n,2019_Apr_05_1442,ec_RRR,3.0.5,75.025560302531,
moran hussey - pilot,"Voor deze taak, is de target figuur Golett: ","Dus wanneer GOLETT (zijn naam of foto) verschijnt op het scherm, druk dan zo snel mogelijk op de spatiebalk. Druk op de spatiebalk telkens wanneer je een foto van Golett of het woord GOLETT ziet. 

Druk op de spatiebalk om de taak te starten.
",target4,stimuli/t4.jpg,9,60,stimuli/blank.jpg,blank,False,None,,,,,,,,,,,,,,0,0,0,0,,,,,0,1,1,3,0,59,59,59,,,,,,,,,,,,,,,,,,,,,,,,,,,,,,,,,,,,,,,,,,,,,,,,,,,,,CS1_USneg,None,1,,,,,,,,,,,,,,,,,,24,f,9,n,2019_Apr_05_1442,ec_RRR,3.0.5,75.025560302531,
moran hussey - pilot,"Voor deze taak, is de target figuur Golett: ","Dus wanneer GOLETT (zijn naam of foto) verschijnt op het scherm, druk dan zo snel mogelijk op de spatiebalk. Druk op de spatiebalk telkens wanneer je een foto van Golett of het woord GOLETT ziet. 

Druk op de spatiebalk om de taak te starten.
",target4,stimuli/t4.jpg,9,61,stimuli/cs2_pos18.jpg,CSUS,False,None,,,,,,,,,,,,,,0,0,0,0,,,,,0,1,1,3,0,60,60,60,,,,,,,,,,,,,,,,,,,,,,,,,,,,,,,,,,,,,,,,,,,,,,,,,,,,,CS1_USneg,None,1,,,,,,,,,,,,,,,,,,24,f,9,n,2019_Apr_05_1442,ec_RRR,3.0.5,75.025560302531,
moran hussey - pilot,"Voor deze taak, is de target figuur Golett: ","Dus wanneer GOLETT (zijn naam of foto) verschijnt op het scherm, druk dan zo snel mogelijk op de spatiebalk. Druk op de spatiebalk telkens wanneer je een foto van Golett of het woord GOLETT ziet. 

Druk op de spatiebalk om de taak te starten.
",target4,stimuli/t4.jpg,9,62,stimuli/blank.jpg,blank,False,None,,,,,,,,,,,,,,0,0,0,0,,,,,0,1,1,3,0,61,61,61,,,,,,,,,,,,,,,,,,,,,,,,,,,,,,,,,,,,,,,,,,,,,,,,,,,,,CS1_USneg,None,1,,,,,,,,,,,,,,,,,,24,f,9,n,2019_Apr_05_1442,ec_RRR,3.0.5,75.025560302531,
moran hussey - pilot,"Voor deze taak, is de target figuur Golett: ","Dus wanneer GOLETT (zijn naam of foto) verschijnt op het scherm, druk dan zo snel mogelijk op de spatiebalk. Druk op de spatiebalk telkens wanneer je een foto van Golett of het woord GOLETT ziet. 

Druk op de spatiebalk om de taak te starten.
",target4,stimuli/t4.jpg,9,63,stimuli/filler32.jpg,filler,False,None,,,,,,,,,,,,,,0,0,0,0,,,,,0,1,1,3,0,62,62,62,,,,,,,,,,,,,,,,,,,,,,,,,,,,,,,,,,,,,,,,,,,,,,,,,,,,,CS1_USneg,None,1,,,,,,,,,,,,,,,,,,24,f,9,n,2019_Apr_05_1442,ec_RRR,3.0.5,75.025560302531,
moran hussey - pilot,"Voor deze taak, is de target figuur Golett: ","Dus wanneer GOLETT (zijn naam of foto) verschijnt op het scherm, druk dan zo snel mogelijk op de spatiebalk. Druk op de spatiebalk telkens wanneer je een foto van Golett of het woord GOLETT ziet. 

Druk op de spatiebalk om de taak te starten.
",target4,stimuli/t4.jpg,9,64,stimuli/filler38.jpg,filler,False,None,,,,,,,,,,,,,,0,0,0,0,,,,,0,1,1,3,0,63,63,63,,,,,,,,,,,,,,,,,,,,,,,,,,,,,,,,,,,,,,,,,,,,,,,,,,,,,CS1_USneg,None,1,,,,,,,,,,,,,,,,,,24,f,9,n,2019_Apr_05_1442,ec_RRR,3.0.5,75.025560302531,
moran hussey - pilot,"Voor deze taak, is de target figuur Golett: ","Dus wanneer GOLETT (zijn naam of foto) verschijnt op het scherm, druk dan zo snel mogelijk op de spatiebalk. Druk op de spatiebalk telkens wanneer je een foto van Golett of het woord GOLETT ziet. 

Druk op de spatiebalk om de taak te starten.
",target4,stimuli/t4.jpg,9,65,stimuli/target4_8.jpg,target,True,space,,,,,,,,,,,,,,0,0,0,0,,,,,0,1,1,3,0,64,64,64,,,,,,,,,,,,,,,,,,,,,,,,,,,,,,,,,,,,,,,,,,,,,,,,,,,,,CS1_USneg,space,1,0.5734459720551968,,,,,,,,,,,,,,,,,24,f,9,n,2019_Apr_05_1442,ec_RRR,3.0.5,75.025560302531,
moran hussey - pilot,"Voor deze taak, is de target figuur Golett: ","Dus wanneer GOLETT (zijn naam of foto) verschijnt op het scherm, druk dan zo snel mogelijk op de spatiebalk. Druk op de spatiebalk telkens wanneer je een foto van Golett of het woord GOLETT ziet. 

Druk op de spatiebalk om de taak te starten.
",target4,stimuli/t4.jpg,9,66,stimuli/filler44.jpg,filler,False,None,,,,,,,,,,,,,,0,0,0,0,,,,,0,1,1,3,0,65,65,65,,,,,,,,,,,,,,,,,,,,,,,,,,,,,,,,,,,,,,,,,,,,,,,,,,,,,CS1_USneg,None,1,,,,,,,,,,,,,,,,,,24,f,9,n,2019_Apr_05_1442,ec_RRR,3.0.5,75.025560302531,
moran hussey - pilot,"Voor deze taak, is de target figuur Golett: ","Dus wanneer GOLETT (zijn naam of foto) verschijnt op het scherm, druk dan zo snel mogelijk op de spatiebalk. Druk op de spatiebalk telkens wanneer je een foto van Golett of het woord GOLETT ziet. 

Druk op de spatiebalk om de taak te starten.
",target4,stimuli/t4.jpg,9,67,stimuli/filler40.jpg,filler,False,None,,,,,,,,,,,,,,0,0,0,0,,,,,0,1,1,3,0,66,66,66,,,,,,,,,,,,,,,,,,,,,,,,,,,,,,,,,,,,,,,,,,,,,,,,,,,,,CS1_USneg,None,1,,,,,,,,,,,,,,,,,,24,f,9,n,2019_Apr_05_1442,ec_RRR,3.0.5,75.025560302531,
moran hussey - pilot,"Voor deze taak, is de target figuur Golett: ","Dus wanneer GOLETT (zijn naam of foto) verschijnt op het scherm, druk dan zo snel mogelijk op de spatiebalk. Druk op de spatiebalk telkens wanneer je een foto van Golett of het woord GOLETT ziet. 

Druk op de spatiebalk om de taak te starten.
",target4,stimuli/t4.jpg,9,68,stimuli/target4_6.jpg,target,True,space,,,,,,,,,,,,,,0,0,0,0,,,,,0,1,1,3,0,67,67,67,,,,,,,,,,,,,,,,,,,,,,,,,,,,,,,,,,,,,,,,,,,,,,,,,,,,,CS1_USneg,space,1,0.8803088134154677,,,,,,,,,,,,,,,,,24,f,9,n,2019_Apr_05_1442,ec_RRR,3.0.5,75.025560302531,
moran hussey - pilot,"Voor deze taak, is de target figuur Golett: ","Dus wanneer GOLETT (zijn naam of foto) verschijnt op het scherm, druk dan zo snel mogelijk op de spatiebalk. Druk op de spatiebalk telkens wanneer je een foto van Golett of het woord GOLETT ziet. 

Druk op de spatiebalk om de taak te starten.
",target4,stimuli/t4.jpg,9,69,stimuli/filler21.jpg,filler,False,None,,,,,,,,,,,,,,0,0,0,0,,,,,0,1,1,3,0,68,68,68,,,,,,,,,,,,,,,,,,,,,,,,,,,,,,,,,,,,,,,,,,,,,,,,,,,,,CS1_USneg,None,1,,,,,,,,,,,,,,,,,,24,f,9,n,2019_Apr_05_1442,ec_RRR,3.0.5,75.025560302531,
moran hussey - pilot,"Voor deze taak, is de target figuur Golett: ","Dus wanneer GOLETT (zijn naam of foto) verschijnt op het scherm, druk dan zo snel mogelijk op de spatiebalk. Druk op de spatiebalk telkens wanneer je een foto van Golett of het woord GOLETT ziet. 

Druk op de spatiebalk om de taak te starten.
",target4,stimuli/t4.jpg,9,70,stimuli/blank.jpg,blank,False,None,,,,,,,,,,,,,,0,0,0,0,,,,,0,1,1,3,0,69,69,69,,,,,,,,,,,,,,,,,,,,,,,,,,,,,,,,,,,,,,,,,,,,,,,,,,,,,CS1_USneg,None,1,,,,,,,,,,,,,,,,,,24,f,9,n,2019_Apr_05_1442,ec_RRR,3.0.5,75.025560302531,
moran hussey - pilot,"Voor deze taak, is de target figuur Golett: ","Dus wanneer GOLETT (zijn naam of foto) verschijnt op het scherm, druk dan zo snel mogelijk op de spatiebalk. Druk op de spatiebalk telkens wanneer je een foto van Golett of het woord GOLETT ziet. 

Druk op de spatiebalk om de taak te starten.
",target4,stimuli/t4.jpg,9,71,stimuli/cs1_neg20.jpg,CSUS,False,None,,,,,,,,,,,,,,0,0,0,0,,,,,0,1,1,3,0,70,70,70,,,,,,,,,,,,,,,,,,,,,,,,,,,,,,,,,,,,,,,,,,,,,,,,,,,,,CS1_USneg,None,1,,,,,,,,,,,,,,,,,,24,f,9,n,2019_Apr_05_1442,ec_RRR,3.0.5,75.025560302531,
moran hussey - pilot,"Voor deze taak, is de target figuur Golett: ","Dus wanneer GOLETT (zijn naam of foto) verschijnt op het scherm, druk dan zo snel mogelijk op de spatiebalk. Druk op de spatiebalk telkens wanneer je een foto van Golett of het woord GOLETT ziet. 

Druk op de spatiebalk om de taak te starten.
",target4,stimuli/t4.jpg,9,72,stimuli/blank.jpg,blank,False,None,,,,,,,,,,,,,,0,0,0,0,,,,,0,1,1,3,0,71,71,71,,,,,,,,,,,,,,,,,,,,,,,,,,,,,,,,,,,,,,,,,,,,,,,,,,,,,CS1_USneg,None,1,,,,,,,,,,,,,,,,,,24,f,9,n,2019_Apr_05_1442,ec_RRR,3.0.5,75.025560302531,
moran hussey - pilot,"Voor deze taak, is de target figuur Golett: ","Dus wanneer GOLETT (zijn naam of foto) verschijnt op het scherm, druk dan zo snel mogelijk op de spatiebalk. Druk op de spatiebalk telkens wanneer je een foto van Golett of het woord GOLETT ziet. 

Druk op de spatiebalk om de taak te starten.
",target4,stimuli/t4.jpg,9,73,stimuli/filler3.jpg,filler,False,None,,,,,,,,,,,,,,0,0,0,0,,,,,0,1,1,3,0,72,72,72,,,,,,,,,,,,,,,,,,,,,,,,,,,,,,,,,,,,,,,,,,,,,,,,,,,,,CS1_USneg,None,1,,,,,,,,,,,,,,,,,,24,f,9,n,2019_Apr_05_1442,ec_RRR,3.0.5,75.025560302531,
moran hussey - pilot,"Voor deze taak, is de target figuur Golett: ","Dus wanneer GOLETT (zijn naam of foto) verschijnt op het scherm, druk dan zo snel mogelijk op de spatiebalk. Druk op de spatiebalk telkens wanneer je een foto van Golett of het woord GOLETT ziet. 

Druk op de spatiebalk om de taak te starten.
",target4,stimuli/t4.jpg,9,74,stimuli/target4_4.jpg,target,True,space,,,,,,,,,,,,,,0,0,0,0,,,,,0,1,1,3,0,73,73,73,,,,,,,,,,,,,,,,,,,,,,,,,,,,,,,,,,,,,,,,,,,,,,,,,,,,,CS1_USneg,space,1,0.5605032942839898,,,,,,,,,,,,,,,,,24,f,9,n,2019_Apr_05_1442,ec_RRR,3.0.5,75.025560302531,
moran hussey - pilot,"Voor deze taak, is de target figuur Golett: ","Dus wanneer GOLETT (zijn naam of foto) verschijnt op het scherm, druk dan zo snel mogelijk op de spatiebalk. Druk op de spatiebalk telkens wanneer je een foto van Golett of het woord GOLETT ziet. 

Druk op de spatiebalk om de taak te starten.
",target4,stimuli/t4.jpg,9,75,stimuli/filler4.jpg,filler,False,None,,,,,,,,,,,,,,0,0,0,0,,,,,0,1,1,3,0,74,74,74,,,,,,,,,,,,,,,,,,,,,,,,,,,,,,,,,,,,,,,,,,,,,,,,,,,,,CS1_USneg,None,1,,,,,,,,,,,,,,,,,,24,f,9,n,2019_Apr_05_1442,ec_RRR,3.0.5,75.025560302531,
moran hussey - pilot,"Voor deze taak, is de target figuur Golett: ","Dus wanneer GOLETT (zijn naam of foto) verschijnt op het scherm, druk dan zo snel mogelijk op de spatiebalk. Druk op de spatiebalk telkens wanneer je een foto van Golett of het woord GOLETT ziet. 

Druk op de spatiebalk om de taak te starten.
",target4,stimuli/t4.jpg,9,76,stimuli/filler5.jpg,filler,False,None,,,,,,,,,,,,,,0,0,0,0,,,,,0,1,1,3,0,75,75,75,,,,,,,,,,,,,,,,,,,,,,,,,,,,,,,,,,,,,,,,,,,,,,,,,,,,,CS1_USneg,None,1,,,,,,,,,,,,,,,,,,24,f,9,n,2019_Apr_05_1442,ec_RRR,3.0.5,75.025560302531,
moran hussey - pilot,"Voor deze taak, is de target figuur Golett: ","Dus wanneer GOLETT (zijn naam of foto) verschijnt op het scherm, druk dan zo snel mogelijk op de spatiebalk. Druk op de spatiebalk telkens wanneer je een foto van Golett of het woord GOLETT ziet. 

Druk op de spatiebalk om de taak te starten.
",target4,stimuli/t4.jpg,9,77,stimuli/filler1.jpg,filler,False,None,,,,,,,,,,,,,,0,0,0,0,,,,,0,1,1,3,0,76,76,76,,,,,,,,,,,,,,,,,,,,,,,,,,,,,,,,,,,,,,,,,,,,,,,,,,,,,CS1_USneg,None,1,,,,,,,,,,,,,,,,,,24,f,9,n,2019_Apr_05_1442,ec_RRR,3.0.5,75.025560302531,
moran hussey - pilot,"Voor deze taak, is de target figuur Golett: ","Dus wanneer GOLETT (zijn naam of foto) verschijnt op het scherm, druk dan zo snel mogelijk op de spatiebalk. Druk op de spatiebalk telkens wanneer je een foto van Golett of het woord GOLETT ziet. 

Druk op de spatiebalk om de taak te starten.
",target4,stimuli/t4.jpg,9,78,stimuli/filler42.jpg,filler,False,None,,,,,,,,,,,,,,0,0,0,0,,,,,0,1,1,3,0,77,77,77,,,,,,,,,,,,,,,,,,,,,,,,,,,,,,,,,,,,,,,,,,,,,,,,,,,,,CS1_USneg,None,1,,,,,,,,,,,,,,,,,,24,f,9,n,2019_Apr_05_1442,ec_RRR,3.0.5,75.025560302531,
moran hussey - pilot,"Voor deze taak, is de target figuur Golett: ","Dus wanneer GOLETT (zijn naam of foto) verschijnt op het scherm, druk dan zo snel mogelijk op de spatiebalk. Druk op de spatiebalk telkens wanneer je een foto van Golett of het woord GOLETT ziet. 

Druk op de spatiebalk om de taak te starten.
",target4,stimuli/t4.jpg,9,79,stimuli/filler25.jpg,filler,False,None,,,,,,,,,,,,,,0,0,0,0,,,,,0,1,1,3,0,78,78,78,,,,,,,,,,,,,,,,,,,,,,,,,,,,,,,,,,,,,,,,,,,,,,,,,,,,,CS1_USneg,None,1,,,,,,,,,,,,,,,,,,24,f,9,n,2019_Apr_05_1442,ec_RRR,3.0.5,75.025560302531,
moran hussey - pilot,"Voor deze taak, is de target figuur Golett: ","Dus wanneer GOLETT (zijn naam of foto) verschijnt op het scherm, druk dan zo snel mogelijk op de spatiebalk. Druk op de spatiebalk telkens wanneer je een foto van Golett of het woord GOLETT ziet. 

Druk op de spatiebalk om de taak te starten.
",target4,stimuli/t4.jpg,9,80,stimuli/blank.jpg,blank,False,None,,,,,,,,,,,,,,0,0,0,0,,,,,0,1,1,3,0,79,79,79,,,,,,,,,,,,,,,,,,,,,,,,,,,,,,,,,,,,,,,,,,,,,,,,,,,,,CS1_USneg,None,1,,,,,,,,,,,,,,,,,,24,f,9,n,2019_Apr_05_1442,ec_RRR,3.0.5,75.025560302531,
moran hussey - pilot,"Voor deze taak, is de target figuur Golett: ","Dus wanneer GOLETT (zijn naam of foto) verschijnt op het scherm, druk dan zo snel mogelijk op de spatiebalk. Druk op de spatiebalk telkens wanneer je een foto van Golett of het woord GOLETT ziet. 

Druk op de spatiebalk om de taak te starten.
",target4,stimuli/t4.jpg,9,81,stimuli/cs2_pos2.jpg,CSUS,False,None,,,,,,,,,,,,,,0,0,0,0,,,,,0,1,1,3,0,80,80,80,,,,,,,,,,,,,,,,,,,,,,,,,,,,,,,,,,,,,,,,,,,,,,,,,,,,,CS1_USneg,None,1,,,,,,,,,,,,,,,,,,24,f,9,n,2019_Apr_05_1442,ec_RRR,3.0.5,75.025560302531,
moran hussey - pilot,"Voor deze taak, is de target figuur Golett: ","Dus wanneer GOLETT (zijn naam of foto) verschijnt op het scherm, druk dan zo snel mogelijk op de spatiebalk. Druk op de spatiebalk telkens wanneer je een foto van Golett of het woord GOLETT ziet. 

Druk op de spatiebalk om de taak te starten.
",target4,stimuli/t4.jpg,9,82,stimuli/blank.jpg,blank,False,None,,,,,,,,,,,,,,0,0,0,0,,,,,0,1,1,3,0,81,81,81,,,,,,,,,,,,,,,,,,,,,,,,,,,,,,,,,,,,,,,,,,,,,,,,,,,,,CS1_USneg,None,1,,,,,,,,,,,,,,,,,,24,f,9,n,2019_Apr_05_1442,ec_RRR,3.0.5,75.025560302531,
moran hussey - pilot,"Voor deze taak, is de target figuur Golett: ","Dus wanneer GOLETT (zijn naam of foto) verschijnt op het scherm, druk dan zo snel mogelijk op de spatiebalk. Druk op de spatiebalk telkens wanneer je een foto van Golett of het woord GOLETT ziet. 

Druk op de spatiebalk om de taak te starten.
",target4,stimuli/t4.jpg,9,83,stimuli/filler7.jpg,filler,False,None,,,,,,,,,,,,,,0,0,0,0,,,,,0,1,1,3,0,82,82,82,,,,,,,,,,,,,,,,,,,,,,,,,,,,,,,,,,,,,,,,,,,,,,,,,,,,,CS1_USneg,None,1,,,,,,,,,,,,,,,,,,24,f,9,n,2019_Apr_05_1442,ec_RRR,3.0.5,75.025560302531,
moran hussey - pilot,"Voor deze taak, is de target figuur Golett: ","Dus wanneer GOLETT (zijn naam of foto) verschijnt op het scherm, druk dan zo snel mogelijk op de spatiebalk. Druk op de spatiebalk telkens wanneer je een foto van Golett of het woord GOLETT ziet. 

Druk op de spatiebalk om de taak te starten.
