data_collection_site,instructions_text_top,instructions_text_bottom,block_id,example_image,trial_number,stimulus,trial_type,target_trial,surveillance_correct_response,filler_1_items,filler_2_items,middle_text,left_text,right_text,evaluation_stimulus,left_stimulus,right_stimulus,evaluation_response_indicating_CS1_preferred,awareness_1_question_text,awareness_2_question_text,awareness_2_response_max,record_data_collection_site_variable.thisRepN,record_data_collection_site_variable.thisTrialN,record_data_collection_site_variable.thisN,record_data_collection_site_variable.thisIndex,surveillance_instructions_loop.thisRepN,surveillance_instructions_loop.thisTrialN,surveillance_instructions_loop.thisN,surveillance_instructions_loop.thisIndex,surveillance_blocks_loop.thisRepN,surveillance_blocks_loop.thisTrialN,surveillance_blocks_loop.thisN,surveillance_blocks_loop.thisIndex,surveillance_trials_loop.thisRepN,surveillance_trials_loop.thisTrialN,surveillance_trials_loop.thisN,surveillance_trials_loop.thisIndex,filler_1_instructions_loop.thisRepN,filler_1_instructions_loop.thisTrialN,filler_1_instructions_loop.thisN,filler_1_instructions_loop.thisIndex,filler_1_loop.thisRepN,filler_1_loop.thisTrialN,filler_1_loop.thisN,filler_1_loop.thisIndex,filler_2_instructions_loop.thisRepN,filler_2_instructions_loop.thisTrialN,filler_2_instructions_loop.thisN,filler_2_instructions_loop.thisIndex,filler_2_loop.thisRepN,filler_2_loop.thisTrialN,filler_2_loop.thisN,filler_2_loop.thisIndex,evaluation_instructions_loop.thisRepN,evaluation_instructions_loop.thisTrialN,evaluation_instructions_loop.thisN,evaluation_instructions_loop.thisIndex,evaluation_loop.thisRepN,evaluation_loop.thisTrialN,evaluation_loop.thisN,evaluation_loop.thisIndex,evaluation_trials.thisRepN,evaluation_trials.thisTrialN,evaluation_trials.thisN,evaluation_trials.thisIndex,awareness_instructions_loop.thisRepN,awareness_instructions_loop.thisTrialN,awareness_instructions_loop.thisN,awareness_instructions_loop.thisIndex,awareness_1_trials_loop.thisRepN,awareness_1_trials_loop.thisTrialN,awareness_1_trials_loop.thisN,awareness_1_trials_loop.thisIndex,awareness_2_trials_loop.thisRepN,awareness_2_trials_loop.thisTrialN,awareness_2_trials_loop.thisN,awareness_2_trials_loop.thisIndex,end_message_loop.thisRepN,end_message_loop.thisTrialN,end_message_loop.thisN,end_message_loop.thisIndex,condition,surveillance_response.keys,surveillance_response.corr,filler_1_rating.response,filler_1_rating.rt,filler_2_rating.response,filler_2_rating.rt,evaluation_response.keys,evaluation_response.corr,evaluation_response.rt,inputText,awareness_1_response.keys,awareness_1_response.rt,awareness_type_2_rating.response,awareness_type_2_rating.rt,age,gender,participant,UseMonkey,date,expName,psychopyVersion,frameRate
gast,"For this task, the target creature is Crandios:","So whenever Crandios (his name or his picture) appears on the screen, hit the spacebar as quickly as possible. Hit the spacebar whenever you see an image of Crandio or the word CRANDIOS. 

Press the spacebar to start the task",target1,stimuli/t1.jpg,1,stimuli/filler29.jpg,filler,FALSE,None,,,,,,,,,,,,,0,0,0,0,,,,,0,0,0,0,0,0,0,0,,,,,,,,,,,,,,,,,,,,,,,,,,,,,,,,,,,,,,,,,,,,,CS1_USpos,None,1,,,,,,,,,,,,,,,1,y,2019_Mar_01_1352,ec_RRR,3.0.4,59.99160478
gast,"For this task, the target creature is Crandios:","So whenever Crandios (his name or his picture) appears on the screen, hit the spacebar as quickly as possible. Hit the spacebar whenever you see an image of Crandio or the word CRANDIOS. 

Press the spacebar to start the task",target1,stimuli/t1.jpg,2,stimuli/filler50.jpg,filler,FALSE,None,,,,,,,,,,,,,0,0,0,0,,,,,0,0,0,0,0,1,1,1,,,,,,,,,,,,,,,,,,,,,,,,,,,,,,,,,,,,,,,,,,,,,CS1_USpos,None,1,,,,,,,,,,,,,,,1,y,2019_Mar_01_1352,ec_RRR,3.0.4,59.99160478
gast,"For this task, the target creature is Crandios:","So whenever Crandios (his name or his picture) appears on the screen, hit the spacebar as quickly as possible. Hit the spacebar whenever you see an image of Crandio or the word CRANDIOS. 

Press the spacebar to start the task",target1,stimuli/t1.jpg,3,stimuli/filler30.jpg,filler,FALSE,None,,,,,,,,,,,,,0,0,0,0,,,,,0,0,0,0,0,2,2,2,,,,,,,,,,,,,,,,,,,,,,,,,,,,,,,,,,,,,,,,,,,,,CS1_USpos,None,1,,,,,,,,,,,,,,,1,y,2019_Mar_01_1352,ec_RRR,3.0.4,59.99160478
gast,"For this task, the target creature is Crandios:","So whenever Crandios (his name or his picture) appears on the screen, hit the spacebar as quickly as possible. Hit the spacebar whenever you see an image of Crandio or the word CRANDIOS. 

Press the spacebar to start the task",target1,stimuli/t1.jpg,4,stimuli/target1_3.jpg,target,TRUE,space,,,,,,,,,,,,,0,0,0,0,,,,,0,0,0,0,0,3,3,3,,,,,,,,,,,,,,,,,,,,,,,,,,,,,,,,,,,,,,,,,,,,,CS1_USpos,None,0,,,,,,,,,,,,,,,1,y,2019_Mar_01_1352,ec_RRR,3.0.4,59.99160478
gast,"For this task, the target creature is Crandios:","So whenever Crandios (his name or his picture) appears on the screen, hit the spacebar as quickly as possible. Hit the spacebar whenever you see an image of Crandio or the word CRANDIOS. 

Press the spacebar to start the task",target1,stimuli/t1.jpg,5,stimuli/filler45.jpg,filler,FALSE,None,,,,,,,,,,,,,0,0,0,0,,,,,0,0,0,0,0,4,4,4,,,,,,,,,,,,,,,,,,,,,,,,,,,,,,,,,,,,,,,,,,,,,CS1_USpos,None,1,,,,,,,,,,,,,,,1,y,2019_Mar_01_1352,ec_RRR,3.0.4,59.99160478
gast,"For this task, the target creature is Crandios:","So whenever Crandios (his name or his picture) appears on the screen, hit the spacebar as quickly as possible. Hit the spacebar whenever you see an image of Crandio or the word CRANDIOS. 

Press the spacebar to start the task",target1,stimuli/t1.jpg,6,stimuli/filler32.jpg,filler,FALSE,None,,,,,,,,,,,,,0,0,0,0,,,,,0,0,0,0,0,5,5,5,,,,,,,,,,,,,,,,,,,,,,,,,,,,,,,,,,,,,,,,,,,,,CS1_USpos,None,1,,,,,,,,,,,,,,,1,y,2019_Mar_01_1352,ec_RRR,3.0.4,59.99160478
gast,"For this task, the target creature is Crandios:","So whenever Crandios (his name or his picture) appears on the screen, hit the spacebar as quickly as possible. Hit the spacebar whenever you see an image of Crandio or the word CRANDIOS. 

Press the spacebar to start the task",target1,stimuli/t1.jpg,7,stimuli/filler48.jpg,filler,FALSE,None,,,,,,,,,,,,,0,0,0,0,,,,,0,0,0,0,0,6,6,6,,,,,,,,,,,,,,,,,,,,,,,,,,,,,,,,,,,,,,,,,,,,,CS1_USpos,None,1,,,,,,,,,,,,,,,1,y,2019_Mar_01_1352,ec_RRR,3.0.4,59.99160478
gast,"For this task, the target creature is Crandios:","So whenever Crandios (his name or his picture) appears on the screen, hit the spacebar as quickly as possible. Hit the spacebar whenever you see an image of Crandio or the word CRANDIOS. 

Press the spacebar to start the task",target1,stimuli/t1.jpg,8,stimuli/filler35.jpg,filler,FALSE,None,,,,,,,,,,,,,0,0,0,0,,,,,0,0,0,0,0,7,7,7,,,,,,,,,,,,,,,,,,,,,,,,,,,,,,,,,,,,,,,,,,,,,CS1_USpos,None,1,,,,,,,,,,,,,,,1,y,2019_Mar_01_1352,ec_RRR,3.0.4,59.99160478
gast,"For this task, the target creature is Crandios:","So whenever Crandios (his name or his picture) appears on the screen, hit the spacebar as quickly as possible. Hit the spacebar whenever you see an image of Crandio or the word CRANDIOS. 

Press the spacebar to start the task",target1,stimuli/t1.jpg,9,stimuli/filler52.jpg,filler,FALSE,None,,,,,,,,,,,,,0,0,0,0,,,,,0,0,0,0,0,8,8,8,,,,,,,,,,,,,,,,,,,,,,,,,,,,,,,,,,,,,,,,,,,,,CS1_USpos,None,1,,,,,,,,,,,,,,,1,y,2019_Mar_01_1352,ec_RRR,3.0.4,59.99160478
gast,"For this task, the target creature is Crandios:","So whenever Crandios (his name or his picture) appears on the screen, hit the spacebar as quickly as possible. Hit the spacebar whenever you see an image of Crandio or the word CRANDIOS. 

Press the spacebar to start the task",target1,stimuli/t1.jpg,10,stimuli/blank.jpg,blank,FALSE,None,,,,,,,,,,,,,0,0,0,0,,,,,0,0,0,0,0,9,9,9,,,,,,,,,,,,,,,,,,,,,,,,,,,,,,,,,,,,,,,,,,,,,CS1_USpos,None,1,,,,,,,,,,,,,,,1,y,2019_Mar_01_1352,ec_RRR,3.0.4,59.99160478
gast,"For this task, the target creature is Crandios:","So whenever Crandios (his name or his picture) appears on the screen, hit the spacebar as quickly as possible. Hit the spacebar whenever you see an image of Crandio or the word CRANDIOS. 

Press the spacebar to start the task",target1,stimuli/t1.jpg,11,stimuli/cs1_pos16.jpg,CSUS,FALSE,None,,,,,,,,,,,,,0,0,0,0,,,,,0,0,0,0,0,10,10,10,,,,,,,,,,,,,,,,,,,,,,,,,,,,,,,,,,,,,,,,,,,,,CS1_USpos,None,1,,,,,,,,,,,,,,,1,y,2019_Mar_01_1352,ec_RRR,3.0.4,59.99160478
gast,"For this task, the target creature is Crandios:","So whenever Crandios (his name or his picture) appears on the screen, hit the spacebar as quickly as possible. Hit the spacebar whenever you see an image of Crandio or the word CRANDIOS. 

Press the spacebar to start the task",target1,stimuli/t1.jpg,12,stimuli/blank.jpg,blank,FALSE,None,,,,,,,,,,,,,0,0,0,0,,,,,0,0,0,0,0,11,11,11,,,,,,,,,,,,,,,,,,,,,,,,,,,,,,,,,,,,,,,,,,,,,CS1_USpos,None,1,,,,,,,,,,,,,,,1,y,2019_Mar_01_1352,ec_RRR,3.0.4,59.99160478
gast,"For this task, the target creature is Crandios:","So whenever Crandios (his name or his picture) appears on the screen, hit the spacebar as quickly as possible. Hit the spacebar whenever you see an image of Crandio or the word CRANDIOS. 

Press the spacebar to start the task",target1,stimuli/t1.jpg,13,stimuli/filler2.jpg,filler,FALSE,None,,,,,,,,,,,,,0,0,0,0,,,,,0,0,0,0,0,12,12,12,,,,,,,,,,,,,,,,,,,,,,,,,,,,,,,,,,,,,,,,,,,,,CS1_USpos,None,1,,,,,,,,,,,,,,,1,y,2019_Mar_01_1352,ec_RRR,3.0.4,59.99160478
gast,"For this task, the target creature is Crandios:","So whenever Crandios (his name or his picture) appears on the screen, hit the spacebar as quickly as possible. Hit the spacebar whenever you see an image of Crandio or the word CRANDIOS. 

Press the spacebar to start the task",target1,stimuli/t1.jpg,14,stimuli/filler12.jpg,filler,FALSE,None,,,,,,,,,,,,,0,0,0,0,,,,,0,0,0,0,0,13,13,13,,,,,,,,,,,,,,,,,,,,,,,,,,,,,,,,,,,,,,,,,,,,,CS1_USpos,None,1,,,,,,,,,,,,,,,1,y,2019_Mar_01_1352,ec_RRR,3.0.4,59.99160478
gast,"For this task, the target creature is Crandios:","So whenever Crandios (his name or his picture) appears on the screen, hit the spacebar as quickly as possible. Hit the spacebar whenever you see an image of Crandio or the word CRANDIOS. 

Press the spacebar to start the task",target1,stimuli/t1.jpg,15,stimuli/filler46.jpg,filler,FALSE,None,,,,,,,,,,,,,0,0,0,0,,,,,0,0,0,0,0,14,14,14,,,,,,,,,,,,,,,,,,,,,,,,,,,,,,,,,,,,,,,,,,,,,CS1_USpos,None,1,,,,,,,,,,,,,,,1,y,2019_Mar_01_1352,ec_RRR,3.0.4,59.99160478
gast,"For this task, the target creature is Crandios:","So whenever Crandios (his name or his picture) appears on the screen, hit the spacebar as quickly as possible. Hit the spacebar whenever you see an image of Crandio or the word CRANDIOS. 

Press the spacebar to start the task",target1,stimuli/t1.jpg,16,stimuli/filler33.jpg,filler,FALSE,None,,,,,,,,,,,,,0,0,0,0,,,,,0,0,0,0,0,15,15,15,,,,,,,,,,,,,,,,,,,,,,,,,,,,,,,,,,,,,,,,,,,,,CS1_USpos,None,1,,,,,,,,,,,,,,,1,y,2019_Mar_01_1352,ec_RRR,3.0.4,59.99160478
gast,"For this task, the target creature is Crandios:","So whenever Crandios (his name or his picture) appears on the screen, hit the spacebar as quickly as possible. Hit the spacebar whenever you see an image of Crandio or the word CRANDIOS. 

Press the spacebar to start the task",target1,stimuli/t1.jpg,17,stimuli/filler31.jpg,filler,FALSE,None,,,,,,,,,,,,,0,0,0,0,,,,,0,0,0,0,0,16,16,16,,,,,,,,,,,,,,,,,,,,,,,,,,,,,,,,,,,,,,,,,,,,,CS1_USpos,None,1,,,,,,,,,,,,,,,1,y,2019_Mar_01_1352,ec_RRR,3.0.4,59.99160478
gast,"For this task, the target creature is Crandios:","So whenever Crandios (his name or his picture) appears on the screen, hit the spacebar as quickly as possible. Hit the spacebar whenever you see an image of Crandio or the word CRANDIOS. 

Press the spacebar to start the task",target1,stimuli/t1.jpg,18,stimuli/filler14.jpg,filler,FALSE,None,,,,,,,,,,,,,0,0,0,0,,,,,0,0,0,0,0,17,17,17,,,,,,,,,,,,,,,,,,,,,,,,,,,,,,,,,,,,,,,,,,,,,CS1_USpos,None,1,,,,,,,,,,,,,,,1,y,2019_Mar_01_1352,ec_RRR,3.0.4,59.99160478
gast,"For this task, the target creature is Crandios:","So whenever Crandios (his name or his picture) appears on the screen, hit the spacebar as quickly as possible. Hit the spacebar whenever you see an image of Crandio or the word CRANDIOS. 

Press the spacebar to start the task",target1,stimuli/t1.jpg,19,stimuli/filler23.jpg,filler,FALSE,None,,,,,,,,,,,,,0,0,0,0,,,,,0,0,0,0,0,18,18,18,,,,,,,,,,,,,,,,,,,,,,,,,,,,,,,,,,,,,,,,,,,,,CS1_USpos,None,1,,,,,,,,,,,,,,,1,y,2019_Mar_01_1352,ec_RRR,3.0.4,59.99160478
gast,"For this task, the target creature is Crandios:","So whenever Crandios (his name or his picture) appears on the screen, hit the spacebar as quickly as possible. Hit the spacebar whenever you see an image of Crandio or the word CRANDIOS. 

Press the spacebar to start the task",target1,stimuli/t1.jpg,20,stimuli/blank.jpg,blank,FALSE,None,,,,,,,,,,,,,0,0,0,0,,,,,0,0,0,0,0,19,19,19,,,,,,,,,,,,,,,,,,,,,,,,,,,,,,,,,,,,,,,,,,,,,CS1_USpos,None,1,,,,,,,,,,,,,,,1,y,2019_Mar_01_1352,ec_RRR,3.0.4,59.99160478
gast,"For this task, the target creature is Crandios:","So whenever Crandios (his name or his picture) appears on the screen, hit the spacebar as quickly as possible. Hit the spacebar whenever you see an image of Crandio or the word CRANDIOS. 

Press the spacebar to start the task",target1,stimuli/t1.jpg,21,stimuli/cs2_neg10.jpg,CSUS,FALSE,None,,,,,,,,,,,,,0,0,0,0,,,,,0,0,0,0,0,20,20,20,,,,,,,,,,,,,,,,,,,,,,,,,,,,,,,,,,,,,,,,,,,,,CS1_USpos,None,1,,,,,,,,,,,,,,,1,y,2019_Mar_01_1352,ec_RRR,3.0.4,59.99160478
gast,"For this task, the target creature is Crandios:","So whenever Crandios (his name or his picture) appears on the screen, hit the spacebar as quickly as possible. Hit the spacebar whenever you see an image of Crandio or the word CRANDIOS. 

Press the spacebar to start the task",target1,stimuli/t1.jpg,22,stimuli/blank.jpg,blank,FALSE,None,,,,,,,,,,,,,0,0,0,0,,,,,0,0,0,0,0,21,21,21,,,,,,,,,,,,,,,,,,,,,,,,,,,,,,,,,,,,,,,,,,,,,CS1_USpos,None,1,,,,,,,,,,,,,,,1,y,2019_Mar_01_1352,ec_RRR,3.0.4,59.99160478
gast,"For this task, the target creature is Crandios:","So whenever Crandios (his name or his picture) appears on the screen, hit the spacebar as quickly as possible. Hit the spacebar whenever you see an image of Crandio or the word CRANDIOS. 

Press the spacebar to start the task",target1,stimuli/t1.jpg,23,stimuli/filler27.jpg,filler,FALSE,None,,,,,,,,,,,,,0,0,0,0,,,,,0,0,0,0,0,22,22,22,,,,,,,,,,,,,,,,,,,,,,,,,,,,,,,,,,,,,,,,,,,,,CS1_USpos,None,1,,,,,,,,,,,,,,,1,y,2019_Mar_01_1352,ec_RRR,3.0.4,59.99160478
gast,"For this task, the target creature is Crandios:","So whenever Crandios (his name or his picture) appears on the screen, hit the spacebar as quickly as possible. Hit the spacebar whenever you see an image of Crandio or the word CRANDIOS. 

Press the spacebar to start the task",target1,stimuli/t1.jpg,24,stimuli/target1_5.jpg,target,TRUE,space,,,,,,,,,,,,,0,0,0,0,,,,,0,0,0,0,0,23,23,23,,,,,,,,,,,,,,,,,,,,,,,,,,,,,,,,,,,,,,,,,,,,,CS1_USpos,None,0,,,,,,,,,,,,,,,1,y,2019_Mar_01_1352,ec_RRR,3.0.4,59.99160478
gast,"For this task, the target creature is Crandios:","So whenever Crandios (his name or his picture) appears on the screen, hit the spacebar as quickly as possible. Hit the spacebar whenever you see an image of Crandio or the word CRANDIOS. 

Press the spacebar to start the task",target1,stimuli/t1.jpg,25,stimuli/target1_6.jpg,target,TRUE,space,,,,,,,,,,,,,0,0,0,0,,,,,0,0,0,0,0,24,24,24,,,,,,,,,,,,,,,,,,,,,,,,,,,,,,,,,,,,,,,,,,,,,CS1_USpos,None,0,,,,,,,,,,,,,,,1,y,2019_Mar_01_1352,ec_RRR,3.0.4,59.99160478
gast,"For this task, the target creature is Crandios:","So whenever Crandios (his name or his picture) appears on the screen, hit the spacebar as quickly as possible. Hit the spacebar whenever you see an image of Crandio or the word CRANDIOS. 

Press the spacebar to start the task",target1,stimuli/t1.jpg,26,stimuli/filler38.jpg,filler,FALSE,None,,,,,,,,,,,,,0,0,0,0,,,,,0,0,0,0,0,25,25,25,,,,,,,,,,,,,,,,,,,,,,,,,,,,,,,,,,,,,,,,,,,,,CS1_USpos,None,1,,,,,,,,,,,,,,,1,y,2019_Mar_01_1352,ec_RRR,3.0.4,59.99160478
gast,"For this task, the target creature is Crandios:","So whenever Crandios (his name or his picture) appears on the screen, hit the spacebar as quickly as possible. Hit the spacebar whenever you see an image of Crandio or the word CRANDIOS. 

Press the spacebar to start the task",target1,stimuli/t1.jpg,27,stimuli/filler34.jpg,filler,FALSE,None,,,,,,,,,,,,,0,0,0,0,,,,,0,0,0,0,0,26,26,26,,,,,,,,,,,,,,,,,,,,,,,,,,,,,,,,,,,,,,,,,,,,,CS1_USpos,None,1,,,,,,,,,,,,,,,1,y,2019_Mar_01_1352,ec_RRR,3.0.4,59.99160478
gast,"For this task, the target creature is Crandios:","So whenever Crandios (his name or his picture) appears on the screen, hit the spacebar as quickly as possible. Hit the spacebar whenever you see an image of Crandio or the word CRANDIOS. 

Press the spacebar to start the task",target1,stimuli/t1.jpg,28,stimuli/filler13.jpg,filler,FALSE,None,,,,,,,,,,,,,0,0,0,0,,,,,0,0,0,0,0,27,27,27,,,,,,,,,,,,,,,,,,,,,,,,,,,,,,,,,,,,,,,,,,,,,CS1_USpos,None,1,,,,,,,,,,,,,,,1,y,2019_Mar_01_1352,ec_RRR,3.0.4,59.99160478
gast,"For this task, the target creature is Crandios:","So whenever Crandios (his name or his picture) appears on the screen, hit the spacebar as quickly as possible. Hit the spacebar whenever you see an image of Crandio or the word CRANDIOS. 

Press the spacebar to start the task",target1,stimuli/t1.jpg,29,stimuli/filler47.jpg,filler,FALSE,None,,,,,,,,,,,,,0,0,0,0,,,,,0,0,0,0,0,28,28,28,,,,,,,,,,,,,,,,,,,,,,,,,,,,,,,,,,,,,,,,,,,,,CS1_USpos,None,1,,,,,,,,,,,,,,,1,y,2019_Mar_01_1352,ec_RRR,3.0.4,59.99160478
gast,"For this task, the target creature is Crandios:","So whenever Crandios (his name or his picture) appears on the screen, hit the spacebar as quickly as possible. Hit the spacebar whenever you see an image of Crandio or the word CRANDIOS. 

Press the spacebar to start the task",target1,stimuli/t1.jpg,30,stimuli/blank.jpg,blank,FALSE,None,,,,,,,,,,,,,0,0,0,0,,,,,0,0,0,0,0,29,29,29,,,,,,,,,,,,,,,,,,,,,,,,,,,,,,,,,,,,,,,,,,,,,CS1_USpos,None,1,,,,,,,,,,,,,,,1,y,2019_Mar_01_1352,ec_RRR,3.0.4,59.99160478
gast,"For this task, the target creature is Crandios:","So whenever Crandios (his name or his picture) appears on the screen, hit the spacebar as quickly as possible. Hit the spacebar whenever you see an image of Crandio or the word CRANDIOS. 

Press the spacebar to start the task",target1,stimuli/t1.jpg,31,stimuli/cs1_pos8.jpg,CSUS,FALSE,None,,,,,,,,,,,,,0,0,0,0,,,,,0,0,0,0,0,30,30,30,,,,,,,,,,,,,,,,,,,,,,,,,,,,,,,,,,,,,,,,,,,,,CS1_USpos,None,1,,,,,,,,,,,,,,,1,y,2019_Mar_01_1352,ec_RRR,3.0.4,59.99160478
gast,"For this task, the target creature is Crandios:","So whenever Crandios (his name or his picture) appears on the screen, hit the spacebar as quickly as possible. Hit the spacebar whenever you see an image of Crandio or the word CRANDIOS. 

Press the spacebar to start the task",target1,stimuli/t1.jpg,32,stimuli/blank.jpg,blank,FALSE,None,,,,,,,,,,,,,0,0,0,0,,,,,0,0,0,0,0,31,31,31,,,,,,,,,,,,,,,,,,,,,,,,,,,,,,,,,,,,,,,,,,,,,CS1_USpos,None,1,,,,,,,,,,,,,,,1,y,2019_Mar_01_1352,ec_RRR,3.0.4,59.99160478
gast,"For this task, the target creature is Crandios:","So whenever Crandios (his name or his picture) appears on the screen, hit the spacebar as quickly as possible. Hit the spacebar whenever you see an image of Crandio or the word CRANDIOS. 

Press the spacebar to start the task",target1,stimuli/t1.jpg,33,stimuli/filler4.jpg,filler,FALSE,None,,,,,,,,,,,,,0,0,0,0,,,,,0,0,0,0,0,32,32,32,,,,,,,,,,,,,,,,,,,,,,,,,,,,,,,,,,,,,,,,,,,,,CS1_USpos,None,1,,,,,,,,,,,,,,,1,y,2019_Mar_01_1352,ec_RRR,3.0.4,59.99160478
gast,"For this task, the target creature is Crandios:","So whenever Crandios (his name or his picture) appears on the screen, hit the spacebar as quickly as possible. Hit the spacebar whenever you see an image of Crandio or the word CRANDIOS. 

Press the spacebar to start the task",target1,stimuli/t1.jpg,34,stimuli/filler15.jpg,filler,FALSE,None,,,,,,,,,,,,,0,0,0,0,,,,,0,0,0,0,0,33,33,33,,,,,,,,,,,,,,,,,,,,,,,,,,,,,,,,,,,,,,,,,,,,,CS1_USpos,None,1,,,,,,,,,,,,,,,1,y,2019_Mar_01_1352,ec_RRR,3.0.4,59.99160478
gast,"For this task, the target creature is Crandios:","So whenever Crandios (his name or his picture) appears on the screen, hit the spacebar as quickly as possible. Hit the spacebar whenever you see an image of Crandio or the word CRANDIOS. 

Press the spacebar to start the task",target1,stimuli/t1.jpg,35,stimuli/target1_10.jpg,target,TRUE,space,,,,,,,,,,,,,0,0,0,0,,,,,0,0,0,0,0,34,34,34,,,,,,,,,,,,,,,,,,,,,,,,,,,,,,,,,,,,,,,,,,,,,CS1_USpos,None,0,,,,,,,,,,,,,,,1,y,2019_Mar_01_1352,ec_RRR,3.0.4,59.99160478
gast,"For this task, the target creature is Crandios:","So whenever Crandios (his name or his picture) appears on the screen, hit the spacebar as quickly as possible. Hit the spacebar whenever you see an image of Crandio or the word CRANDIOS. 

Press the spacebar to start the task",target1,stimuli/t1.jpg,36,stimuli/target1_4.jpg,target,TRUE,space,,,,,,,,,,,,,0,0,0,0,,,,,0,0,0,0,0,35,35,35,,,,,,,,,,,,,,,,,,,,,,,,,,,,,,,,,,,,,,,,,,,,,CS1_USpos,None,0,,,,,,,,,,,,,,,1,y,2019_Mar_01_1352,ec_RRR,3.0.4,59.99160478
gast,"For this task, the target creature is Crandios:","So whenever Crandios (his name or his picture) appears on the screen, hit the spacebar as quickly as possible. Hit the spacebar whenever you see an image of Crandio or the word CRANDIOS. 

Press the spacebar to start the task",target1,stimuli/t1.jpg,37,stimuli/filler19.jpg,filler,FALSE,None,,,,,,,,,,,,,0,0,0,0,,,,,0,0,0,0,0,36,36,36,,,,,,,,,,,,,,,,,,,,,,,,,,,,,,,,,,,,,,,,,,,,,CS1_USpos,None,1,,,,,,,,,,,,,,,1,y,2019_Mar_01_1352,ec_RRR,3.0.4,59.99160478
gast,"For this task, the target creature is Crandios:","So whenever Crandios (his name or his picture) appears on the screen, hit the spacebar as quickly as possible. Hit the spacebar whenever you see an image of Crandio or the word CRANDIOS. 

Press the spacebar to start the task",target1,stimuli/t1.jpg,38,stimuli/filler20.jpg,filler,FALSE,None,,,,,,,,,,,,,0,0,0,0,,,,,0,0,0,0,0,37,37,37,,,,,,,,,,,,,,,,,,,,,,,,,,,,,,,,,,,,,,,,,,,,,CS1_USpos,None,1,,,,,,,,,,,,,,,1,y,2019_Mar_01_1352,ec_RRR,3.0.4,59.99160478
gast,"For this task, the target creature is Crandios:","So whenever Crandios (his name or his picture) appears on the screen, hit the spacebar as quickly as possible. Hit the spacebar whenever you see an image of Crandio or the word CRANDIOS. 

Press the spacebar to start the task",target1,stimuli/t1.jpg,39,stimuli/filler40.jpg,filler,FALSE,None,,,,,,,,,,,,,0,0,0,0,,,,,0,0,0,0,0,38,38,38,,,,,,,,,,,,,,,,,,,,,,,,,,,,,,,,,,,,,,,,,,,,,CS1_USpos,None,1,,,,,,,,,,,,,,,1,y,2019_Mar_01_1352,ec_RRR,3.0.4,59.99160478
gast,"For this task, the target creature is Crandios:","So whenever Crandios (his name or his picture) appears on the screen, hit the spacebar as quickly as possible. Hit the spacebar whenever you see an image of Crandio or the word CRANDIOS. 

Press the spacebar to start the task",target1,stimuli/t1.jpg,40,stimuli/blank.jpg,blank,FALSE,None,,,,,,,,,,,,,0,0,0,0,,,,,0,0,0,0,0,39,39,39,,,,,,,,,,,,,,,,,,,,,,,,,,,,,,,,,,,,,,,,,,,,,CS1_USpos,None,1,,,,,,,,,,,,,,,1,y,2019_Mar_01_1352,ec_RRR,3.0.4,59.99160478
gast,"For this task, the target creature is Crandios:","So whenever Crandios (his name or his picture) appears on the screen, hit the spacebar as quickly as possible. Hit the spacebar whenever you see an image of Crandio or the word CRANDIOS. 

Press the spacebar to start the task",target1,stimuli/t1.jpg,41,stimuli/cs2_neg7.jpg,CSUS,FALSE,None,,,,,,,,,,,,,0,0,0,0,,,,,0,0,0,0,0,40,40,40,,,,,,,,,,,,,,,,,,,,,,,,,,,,,,,,,,,,,,,,,,,,,CS1_USpos,None,1,,,,,,,,,,,,,,,1,y,2019_Mar_01_1352,ec_RRR,3.0.4,59.99160478
gast,"For this task, the target creature is Crandios:","So whenever Crandios (his name or his picture) appears on the screen, hit the spacebar as quickly as possible. Hit the spacebar whenever you see an image of Crandio or the word CRANDIOS. 

Press the spacebar to start the task",target1,stimuli/t1.jpg,42,stimuli/blank.jpg,blank,FALSE,None,,,,,,,,,,,,,0,0,0,0,,,,,0,0,0,0,0,41,41,41,,,,,,,,,,,,,,,,,,,,,,,,,,,,,,,,,,,,,,,,,,,,,CS1_USpos,None,1,,,,,,,,,,,,,,,1,y,2019_Mar_01_1352,ec_RRR,3.0.4,59.99160478
gast,"For this task, the target creature is Crandios:","So whenever Crandios (his name or his picture) appears on the screen, hit the spacebar as quickly as possible. Hit the spacebar whenever you see an image of Crandio or the word CRANDIOS. 

Press the spacebar to start the task",target1,stimuli/t1.jpg,43,stimuli/target1_9.jpg,target,TRUE,space,,,,,,,,,,,,,0,0,0,0,,,,,0,0,0,0,0,42,42,42,,,,,,,,,,,,,,,,,,,,,,,,,,,,,,,,,,,,,,,,,,,,,CS1_USpos,None,0,,,,,,,,,,,,,,,1,y,2019_Mar_01_1352,ec_RRR,3.0.4,59.99160478
gast,"For this task, the target creature is Crandios:","So whenever Crandios (his name or his picture) appears on the screen, hit the spacebar as quickly as possible. Hit the spacebar whenever you see an image of Crandio or the word CRANDIOS. 

Press the spacebar to start the task",target1,stimuli/t1.jpg,44,stimuli/filler28.jpg,filler,FALSE,None,,,,,,,,,,,,,0,0,0,0,,,,,0,0,0,0,0,43,43,43,,,,,,,,,,,,,,,,,,,,,,,,,,,,,,,,,,,,,,,,,,,,,CS1_USpos,None,1,,,,,,,,,,,,,,,1,y,2019_Mar_01_1352,ec_RRR,3.0.4,59.99160478
gast,"For this task, the target creature is Crandios:","So whenever Crandios (his name or his picture) appears on the screen, hit the spacebar as quickly as possible. Hit the spacebar whenever you see an image of Crandio or the word CRANDIOS. 

Press the spacebar to start the task",target1,stimuli/t1.jpg,45,stimuli/filler26.jpg,filler,FALSE,None,,,,,,,,,,,,,0,0,0,0,,,,,0,0,0,0,0,44,44,44,,,,,,,,,,,,,,,,,,,,,,,,,,,,,,,,,,,,,,,,,,,,,CS1_USpos,None,1,,,,,,,,,,,,,,,1,y,2019_Mar_01_1352,ec_RRR,3.0.4,59.99160478
gast,"For this task, the target creature is Crandios:","So whenever Crandios (his name or his picture) appears on the screen, hit the spacebar as quickly as possible. Hit the spacebar whenever you see an image of Crandio or the word CRANDIOS. 

Press the spacebar to start the task",target1,stimuli/t1.jpg,46,stimuli/filler44.jpg,filler,FALSE,None,,,,,,,,,,,,,0,0,0,0,,,,,0,0,0,0,0,45,45,45,,,,,,,,,,,,,,,,,,,,,,,,,,,,,,,,,,,,,,,,,,,,,CS1_USpos,None,1,,,,,,,,,,,,,,,1,y,2019_Mar_01_1352,ec_RRR,3.0.4,59.99160478
gast,"For this task, the target creature is Crandios:","So whenever Crandios (his name or his picture) appears on the screen, hit the spacebar as quickly as possible. Hit the spacebar whenever you see an image of Crandio or the word CRANDIOS. 

Press the spacebar to start the task",target1,stimuli/t1.jpg,47,stimuli/filler25.jpg,filler,FALSE,None,,,,,,,,,,,,,0,0,0,0,,,,,0,0,0,0,0,46,46,46,,,,,,,,,,,,,,,,,,,,,,,,,,,,,,,,,,,,,,,,,,,,,CS1_USpos,None,1,,,,,,,,,,,,,,,1,y,2019_Mar_01_1352,ec_RRR,3.0.4,59.99160478
gast,"For this task, the target creature is Crandios:","So whenever Crandios (his name or his picture) appears on the screen, hit the spacebar as quickly as possible. Hit the spacebar whenever you see an image of Crandio or the word CRANDIOS. 

Press the spacebar to start the task",target1,stimuli/t1.jpg,48,stimuli/target1_2.jpg,target,TRUE,space,,,,,,,,,,,,,0,0,0,0,,,,,0,0,0,0,0,47,47,47,,,,,,,,,,,,,,,,,,,,,,,,,,,,,,,,,,,,,,,,,,,,,CS1_USpos,None,0,,,,,,,,,,,,,,,1,y,2019_Mar_01_1352,ec_RRR,3.0.4,59.99160478
gast,"For this task, the target creature is Crandios:","So whenever Crandios (his name or his picture) appears on the screen, hit the spacebar as quickly as possible. Hit the spacebar whenever you see an image of Crandio or the word CRANDIOS. 

Press the spacebar to start the task",target1,stimuli/t1.jpg,49,stimuli/filler49.jpg,filler,FALSE,None,,,,,,,,,,,,,0,0,0,0,,,,,0,0,0,0,0,48,48,48,,,,,,,,,,,,,,,,,,,,,,,,,,,,,,,,,,,,,,,,,,,,,CS1_USpos,None,1,,,,,,,,,,,,,,,1,y,2019_Mar_01_1352,ec_RRR,3.0.4,59.99160478
gast,"For this task, the target creature is Crandios:","So whenever Crandios (his name or his picture) appears on the screen, hit the spacebar as quickly as possible. Hit the spacebar whenever you see an image of Crandio or the word CRANDIOS. 

Press the spacebar to start the task",target1,stimuli/t1.jpg,50,stimuli/blank.jpg,blank,FALSE,None,,,,,,,,,,,,,0,0,0,0,,,,,0,0,0,0,0,49,49,49,,,,,,,,,,,,,,,,,,,,,,,,,,,,,,,,,,,,,,,,,,,,,CS1_USpos,None,1,,,,,,,,,,,,,,,1,y,2019_Mar_01_1352,ec_RRR,3.0.4,59.99160478
gast,"For this task, the target creature is Crandios:","So whenever Crandios (his name or his picture) appears on the screen, hit the spacebar as quickly as possible. Hit the spacebar whenever you see an image of Crandio or the word CRANDIOS. 

Press the spacebar to start the task",target1,stimuli/t1.jpg,51,stimuli/cs1_pos13.jpg,CSUS,FALSE,None,,,,,,,,,,,,,0,0,0,0,,,,,0,0,0,0,0,50,50,50,,,,,,,,,,,,,,,,,,,,,,,,,,,,,,,,,,,,,,,,,,,,,CS1_USpos,None,1,,,,,,,,,,,,,,,1,y,2019_Mar_01_1352,ec_RRR,3.0.4,59.99160478
gast,"For this task, the target creature is Crandios:","So whenever Crandios (his name or his picture) appears on the screen, hit the spacebar as quickly as possible. Hit the spacebar whenever you see an image of Crandio or the word CRANDIOS. 

Press the spacebar to start the task",target1,stimuli/t1.jpg,52,stimuli/blank.jpg,blank,FALSE,None,,,,,,,,,,,,,0,0,0,0,,,,,0,0,0,0,0,51,51,51,,,,,,,,,,,,,,,,,,,,,,,,,,,,,,,,,,,,,,,,,,,,,CS1_USpos,None,1,,,,,,,,,,,,,,,1,y,2019_Mar_01_1352,ec_RRR,3.0.4,59.99160478
gast,"For this task, the target creature is Crandios:","So whenever Crandios (his name or his picture) appears on the screen, hit the spacebar as quickly as possible. Hit the spacebar whenever you see an image of Crandio or the word CRANDIOS. 

Press the spacebar to start the task",target1,stimuli/t1.jpg,53,stimuli/filler5.jpg,filler,FALSE,None,,,,,,,,,,,,,0,0,0,0,,,,,0,0,0,0,0,52,52,52,,,,,,,,,,,,,,,,,,,,,,,,,,,,,,,,,,,,,,,,,,,,,CS1_USpos,None,1,,,,,,,,,,,,,,,1,y,2019_Mar_01_1352,ec_RRR,3.0.4,59.99160478
gast,"For this task, the target creature is Crandios:","So whenever Crandios (his name or his picture) appears on the screen, hit the spacebar as quickly as possible. Hit the spacebar whenever you see an image of Crandio or the word CRANDIOS. 

Press the spacebar to start the task",target1,stimuli/t1.jpg,54,stimuli/target1_8.jpg,target,TRUE,space,,,,,,,,,,,,,0,0,0,0,,,,,0,0,0,0,0,53,53,53,,,,,,,,,,,,,,,,,,,,,,,,,,,,,,,,,,,,,,,,,,,,,CS1_USpos,None,0,,,,,,,,,,,,,,,1,y,2019_Mar_01_1352,ec_RRR,3.0.4,59.99160478
gast,"For this task, the target creature is Crandios:","So whenever Crandios (his name or his picture) appears on the screen, hit the spacebar as quickly as possible. Hit the spacebar whenever you see an image of Crandio or the word CRANDIOS. 

Press the spacebar to start the task",target1,stimuli/t1.jpg,55,stimuli/filler18.jpg,filler,FALSE,None,,,,,,,,,,,,,0,0,0,0,,,,,0,0,0,0,0,54,54,54,,,,,,,,,,,,,,,,,,,,,,,,,,,,,,,,,,,,,,,,,,,,,CS1_USpos,None,1,,,,,,,,,,,,,,,1,y,2019_Mar_01_1352,ec_RRR,3.0.4,59.99160478
gast,"For this task, the target creature is Crandios:","So whenever Crandios (his name or his picture) appears on the screen, hit the spacebar as quickly as possible. Hit the spacebar whenever you see an image of Crandio or the word CRANDIOS. 

Press the spacebar to start the task",target1,stimuli/t1.jpg,56,stimuli/filler51.jpg,filler,FALSE,None,,,,,,,,,,,,,0,0,0,0,,,,,0,0,0,0,0,55,55,55,,,,,,,,,,,,,,,,,,,,,,,,,,,,,,,,,,,,,,,,,,,,,CS1_USpos,None,1,,,,,,,,,,,,,,,1,y,2019_Mar_01_1352,ec_RRR,3.0.4,59.99160478
gast,"For this task, the target creature is Crandios:","So whenever Crandios (his name or his picture) appears on the screen, hit the spacebar as quickly as possible. Hit the spacebar whenever you see an image of Crandio or the word CRANDIOS. 

Press the spacebar to start the task",target1,stimuli/t1.jpg,57,stimuli/filler9.jpg,filler,FALSE,None,,,,,,,,,,,,,0,0,0,0,,,,,0,0,0,0,0,56,56,56,,,,,,,,,,,,,,,,,,,,,,,,,,,,,,,,,,,,,,,,,,,,,CS1_USpos,None,1,,,,,,,,,,,,,,,1,y,2019_Mar_01_1352,ec_RRR,3.0.4,59.99160478
gast,"For this task, the target creature is Crandios:","So whenever Crandios (his name or his picture) appears on the screen, hit the spacebar as quickly as possible. Hit the spacebar whenever you see an image of Crandio or the word CRANDIOS. 

Press the spacebar to start the task",target1,stimuli/t1.jpg,58,stimuli/filler8.jpg,filler,FALSE,None,,,,,,,,,,,,,0,0,0,0,,,,,0,0,0,0,0,57,57,57,,,,,,,,,,,,,,,,,,,,,,,,,,,,,,,,,,,,,,,,,,,,,CS1_USpos,None,1,,,,,,,,,,,,,,,1,y,2019_Mar_01_1352,ec_RRR,3.0.4,59.99160478
gast,"For this task, the target creature is Crandios:","So whenever Crandios (his name or his picture) appears on the screen, hit the spacebar as quickly as possible. Hit the spacebar whenever you see an image of Crandio or the word CRANDIOS. 

Press the spacebar to start the task",target1,stimuli/t1.jpg,59,stimuli/filler3.jpg,filler,FALSE,None,,,,,,,,,,,,,0,0,0,0,,,,,0,0,0,0,0,58,58,58,,,,,,,,,,,,,,,,,,,,,,,,,,,,,,,,,,,,,,,,,,,,,CS1_USpos,None,1,,,,,,,,,,,,,,,1,y,2019_Mar_01_1352,ec_RRR,3.0.4,59.99160478
gast,"For this task, the target creature is Crandios:","So whenever Crandios (his name or his picture) appears on the screen, hit the spacebar as quickly as possible. Hit the spacebar whenever you see an image of Crandio or the word CRANDIOS. 

Press the spacebar to start the task",target1,stimuli/t1.jpg,60,stimuli/blank.jpg,blank,FALSE,None,,,,,,,,,,,,,0,0,0,0,,,,,0,0,0,0,0,59,59,59,,,,,,,,,,,,,,,,,,,,,,,,,,,,,,,,,,,,,,,,,,,,,CS1_USpos,None,1,,,,,,,,,,,,,,,1,y,2019_Mar_01_1352,ec_RRR,3.0.4,59.99160478
gast,"For this task, the target creature is Crandios:","So whenever Crandios (his name or his picture) appears on the screen, hit the spacebar as quickly as possible. Hit the spacebar whenever you see an image of Crandio or the word CRANDIOS. 

Press the spacebar to start the task",target1,stimuli/t1.jpg,61,stimuli/cs2_neg7.jpg,CSUS,FALSE,None,,,,,,,,,,,,,0,0,0,0,,,,,0,0,0,0,0,60,60,60,,,,,,,,,,,,,,,,,,,,,,,,,,,,,,,,,,,,,,,,,,,,,CS1_USpos,None,1,,,,,,,,,,,,,,,1,y,2019_Mar_01_1352,ec_RRR,3.0.4,59.99160478
gast,"For this task, the target creature is Crandios:","So whenever Crandios (his name or his picture) appears on the screen, hit the spacebar as quickly as possible. Hit the spacebar whenever you see an image of Crandio or the word CRANDIOS. 

Press the spacebar to start the task",target1,stimuli/t1.jpg,62,stimuli/blank.jpg,blank,FALSE,None,,,,,,,,,,,,,0,0,0,0,,,,,0,0,0,0,0,61,61,61,,,,,,,,,,,,,,,,,,,,,,,,,,,,,,,,,,,,,,,,,,,,,CS1_USpos,None,1,,,,,,,,,,,,,,,1,y,2019_Mar_01_1352,ec_RRR,3.0.4,59.99160478
gast,"For this task, the target creature is Crandios:","So whenever Crandios (his name or his picture) appears on the screen, hit the spacebar as quickly as possible. Hit the spacebar whenever you see an image of Crandio or the word CRANDIOS. 

Press the spacebar to start the task",target1,stimuli/t1.jpg,63,stimuli/filler7.jpg,filler,FALSE,None,,,,,,,,,,,,,0,0,0,0,,,,,0,0,0,0,0,62,62,62,,,,,,,,,,,,,,,,,,,,,,,,,,,,,,,,,,,,,,,,,,,,,CS1_USpos,None,1,,,,,,,,,,,,,,,1,y,2019_Mar_01_1352,ec_RRR,3.0.4,59.99160478
gast,"For this task, the target creature is Crandios:","So whenever Crandios (his name or his picture) appears on the screen, hit the spacebar as quickly as possible. Hit the spacebar whenever you see an image of Crandio or the word CRANDIOS. 

Press the spacebar to start the task",target1,stimuli/t1.jpg,64,stimuli/filler10.jpg,filler,FALSE,None,,,,,,,,,,,,,0,0,0,0,,,,,0,0,0,0,0,63,63,63,,,,,,,,,,,,,,,,,,,,,,,,,,,,,,,,,,,,,,,,,,,,,CS1_USpos,None,1,,,,,,,,,,,,,,,1,y,2019_Mar_01_1352,ec_RRR,3.0.4,59.99160478
gast,"For this task, the target creature is Crandios:","So whenever Crandios (his name or his picture) appears on the screen, hit the spacebar as quickly as possible. Hit the spacebar whenever you see an image of Crandio or the word CRANDIOS. 

Press the spacebar to start the task",target1,stimuli/t1.jpg,65,stimuli/filler39.jpg,filler,FALSE,None,,,,,,,,,,,,,0,0,0,0,,,,,0,0,0,0,0,64,64,64,,,,,,,,,,,,,,,,,,,,,,,,,,,,,,,,,,,,,,,,,,,,,CS1_USpos,None,1,,,,,,,,,,,,,,,1,y,2019_Mar_01_1352,ec_RRR,3.0.4,59.99160478
gast,"For this task, the target creature is Crandios:","So whenever Crandios (his name or his picture) appears on the screen, hit the spacebar as quickly as possible. Hit the spacebar whenever you see an image of Crandio or the word CRANDIOS. 

Press the spacebar to start the task",target1,stimuli/t1.jpg,66,stimuli/filler16.jpg,filler,FALSE,None,,,,,,,,,,,,,0,0,0,0,,,,,0,0,0,0,0,65,65,65,,,,,,,,,,,,,,,,,,,,,,,,,,,,,,,,,,,,,,,,,,,,,CS1_USpos,None,1,,,,,,,,,,,,,,,1,y,2019_Mar_01_1352,ec_RRR,3.0.4,59.99160478
gast,"For this task, the target creature is Crandios:","So whenever Crandios (his name or his picture) appears on the screen, hit the spacebar as quickly as possible. Hit the spacebar whenever you see an image of Crandio or the word CRANDIOS. 

Press the spacebar to start the task",target1,stimuli/t1.jpg,67,stimuli/target1_1.jpg,target,TRUE,space,,,,,,,,,,,,,0,0,0,0,,,,,0,0,0,0,0,66,66,66,,,,,,,,,,,,,,,,,,,,,,,,,,,,,,,,,,,,,,,,,,,,,CS1_USpos,None,0,,,,,,,,,,,,,,,1,y,2019_Mar_01_1352,ec_RRR,3.0.4,59.99160478
gast,"For this task, the target creature is Crandios:","So whenever Crandios (his name or his picture) appears on the screen, hit the spacebar as quickly as possible. Hit the spacebar whenever you see an image of Crandio or the word CRANDIOS. 

Press the spacebar to start the task",target1,stimuli/t1.jpg,68,stimuli/filler42.jpg,filler,FALSE,None,,,,,,,,,,,,,0,0,0,0,,,,,0,0,0,0,0,67,67,67,,,,,,,,,,,,,,,,,,,,,,,,,,,,,,,,,,,,,,,,,,,,,CS1_USpos,None,1,,,,,,,,,,,,,,,1,y,2019_Mar_01_1352,ec_RRR,3.0.4,59.99160478
gast,"For this task, the target creature is Crandios:","So whenever Crandios (his name or his picture) appears on the screen, hit the spacebar as quickly as possible. Hit the spacebar whenever you see an image of Crandio or the word CRANDIOS. 

Press the spacebar to start the task",target1,stimuli/t1.jpg,69,stimuli/filler22.jpg,filler,FALSE,None,,,,,,,,,,,,,0,0,0,0,,,,,0,0,0,0,0,68,68,68,,,,,,,,,,,,,,,,,,,,,,,,,,,,,,,,,,,,,,,,,,,,,CS1_USpos,None,1,,,,,,,,,,,,,,,1,y,2019_Mar_01_1352,ec_RRR,3.0.4,59.99160478
gast,"For this task, the target creature is Crandios:","So whenever Crandios (his name or his picture) appears on the screen, hit the spacebar as quickly as possible. Hit the spacebar whenever you see an image of Crandio or the word CRANDIOS. 

Press the spacebar to start the task",target1,stimuli/t1.jpg,70,stimuli/blank.jpg,blank,FALSE,None,,,,,,,,,,,,,0,0,0,0,,,,,0,0,0,0,0,69,69,69,,,,,,,,,,,,,,,,,,,,,,,,,,,,,,,,,,,,,,,,,,,,,CS1_USpos,None,1,,,,,,,,,,,,,,,1,y,2019_Mar_01_1352,ec_RRR,3.0.4,59.99160478
gast,"For this task, the target creature is Crandios:","So whenever Crandios (his name or his picture) appears on the screen, hit the spacebar as quickly as possible. Hit the spacebar whenever you see an image of Crandio or the word CRANDIOS. 

Press the spacebar to start the task",target1,stimuli/t1.jpg,71,stimuli/cs1_pos18.jpg,CSUS,FALSE,None,,,,,,,,,,,,,0,0,0,0,,,,,0,0,0,0,0,70,70,70,,,,,,,,,,,,,,,,,,,,,,,,,,,,,,,,,,,,,,,,,,,,,CS1_USpos,None,1,,,,,,,,,,,,,,,1,y,2019_Mar_01_1352,ec_RRR,3.0.4,59.99160478
gast,"For this task, the target creature is Crandios:","So whenever Crandios (his name or his picture) appears on the screen, hit the spacebar as quickly as possible. Hit the spacebar whenever you see an image of Crandio or the word CRANDIOS. 

Press the spacebar to start the task",target1,stimuli/t1.jpg,72,stimuli/blank.jpg,blank,FALSE,None,,,,,,,,,,,,,0,0,0,0,,,,,0,0,0,0,0,71,71,71,,,,,,,,,,,,,,,,,,,,,,,,,,,,,,,,,,,,,,,,,,,,,CS1_USpos,None,1,,,,,,,,,,,,,,,1,y,2019_Mar_01_1352,ec_RRR,3.0.4,59.99160478
gast,"For this task, the target creature is Crandios:","So whenever Crandios (his name or his picture) appears on the screen, hit the spacebar as quickly as possible. Hit the spacebar whenever you see an image of Crandio or the word CRANDIOS. 

Press the spacebar to start the task",target1,stimuli/t1.jpg,73,stimuli/filler1.jpg,filler,FALSE,None,,,,,,,,,,,,,0,0,0,0,,,,,0,0,0,0,0,72,72,72,,,,,,,,,,,,,,,,,,,,,,,,,,,,,,,,,,,,,,,,,,,,,CS1_USpos,None,1,,,,,,,,,,,,,,,1,y,2019_Mar_01_1352,ec_RRR,3.0.4,59.99160478
gast,"For this task, the target creature is Crandios:","So whenever Crandios (his name or his picture) appears on the screen, hit the spacebar as quickly as possible. Hit the spacebar whenever you see an image of Crandio or the word CRANDIOS. 

Press the spacebar to start the task",target1,stimuli/t1.jpg,74,stimuli/filler17.jpg,filler,FALSE,None,,,,,,,,,,,,,0,0,0,0,,,,,0,0,0,0,0,73,73,73,,,,,,,,,,,,,,,,,,,,,,,,,,,,,,,,,,,,,,,,,,,,,CS1_USpos,None,1,,,,,,,,,,,,,,,1,y,2019_Mar_01_1352,ec_RRR,3.0.4,59.99160478
gast,"For this task, the target creature is Crandios:","So whenever Crandios (his name or his picture) appears on the screen, hit the spacebar as quickly as possible. Hit the spacebar whenever you see an image of Crandio or the word CRANDIOS. 

Press the spacebar to start the task",target1,stimuli/t1.jpg,75,stimuli/filler41.jpg,filler,FALSE,None,,,,,,,,,,,,,0,0,0,0,,,,,0,0,0,0,0,74,74,74,,,,,,,,,,,,,,,,,,,,,,,,,,,,,,,,,,,,,,,,,,,,,CS1_USpos,None,1,,,,,,,,,,,,,,,1,y,2019_Mar_01_1352,ec_RRR,3.0.4,59.99160478
gast,"For this task, the target creature is Crandios:","So whenever Crandios (his name or his picture) appears on the screen, hit the spacebar as quickly as possible. Hit the spacebar whenever you see an image of Crandio or the word CRANDIOS. 

Press the spacebar to start the task",target1,stimuli/t1.jpg,76,stimuli/filler11.jpg,filler,FALSE,None,,,,,,,,,,,,,0,0,0,0,,,,,0,0,0,0,0,75,75,75,,,,,,,,,,,,,,,,,,,,,,,,,,,,,,,,,,,,,,,,,,,,,CS1_USpos,None,1,,,,,,,,,,,,,,,1,y,2019_Mar_01_1352,ec_RRR,3.0.4,59.99160478
gast,"For this task, the target creature is Crandios:","So whenever Crandios (his name or his picture) appears on the screen, hit the spacebar as quickly as possible. Hit the spacebar whenever you see an image of Crandio or the word CRANDIOS. 

Press the spacebar to start the task",target1,stimuli/t1.jpg,77,stimuli/filler43.jpg,filler,FALSE,None,,,,,,,,,,,,,0,0,0,0,,,,,0,0,0,0,0,76,76,76,,,,,,,,,,,,,,,,,,,,,,,,,,,,,,,,,,,,,,,,,,,,,CS1_USpos,None,1,,,,,,,,,,,,,,,1,y,2019_Mar_01_1352,ec_RRR,3.0.4,59.99160478
gast,"For this task, the target creature is Crandios:","So whenever Crandios (his name or his picture) appears on the screen, hit the spacebar as quickly as possible. Hit the spacebar whenever you see an image of Crandio or the word CRANDIOS. 

Press the spacebar to start the task",target1,stimuli/t1.jpg,78,stimuli/filler36.jpg,filler,FALSE,None,,,,,,,,,,,,,0,0,0,0,,,,,0,0,0,0,0,77,77,77,,,,,,,,,,,,,,,,,,,,,,,,,,,,,,,,,,,,,,,,,,,,,CS1_USpos,None,1,,,,,,,,,,,,,,,1,y,2019_Mar_01_1352,ec_RRR,3.0.4,59.99160478
gast,"For this task, the target creature is Crandios:","So whenever Crandios (his name or his picture) appears on the screen, hit the spacebar as quickly as possible. Hit the spacebar whenever you see an image of Crandio or the word CRANDIOS. 

Press the spacebar to start the task",target1,stimuli/t1.jpg,79,stimuli/filler37.jpg,filler,FALSE,None,,,,,,,,,,,,,0,0,0,0,,,,,0,0,0,0,0,78,78,78,,,,,,,,,,,,,,,,,,,,,,,,,,,,,,,,,,,,,,,,,,,,,CS1_USpos,None,1,,,,,,,,,,,,,,,1,y,2019_Mar_01_1352,ec_RRR,3.0.4,59.99160478
gast,"For this task, the target creature is Crandios:","So whenever Crandios (his name or his picture) appears on the screen, hit the spacebar as quickly as possible. Hit the spacebar whenever you see an image of Crandio or the word CRANDIOS. 

Press the spacebar to start the task",target1,stimuli/t1.jpg,80,stimuli/blank.jpg,blank,FALSE,None,,,,,,,,,,,,,0,0,0,0,,,,,0,0,0,0,0,79,79,79,,,,,,,,,,,,,,,,,,,,,,,,,,,,,,,,,,,,,,,,,,,,,CS1_USpos,None,1,,,,,,,,,,,,,,,1,y,2019_Mar_01_1352,ec_RRR,3.0.4,59.99160478
gast,"For this task, the target creature is Crandios:","So whenever Crandios (his name or his picture) appears on the screen, hit the spacebar as quickly as possible. Hit the spacebar whenever you see an image of Crandio or the word CRANDIOS. 

Press the spacebar to start the task",target1,stimuli/t1.jpg,81,stimuli/cs2_neg11.jpg,CSUS,FALSE,None,,,,,,,,,,,,,0,0,0,0,,,,,0,0,0,0,0,80,80,80,,,,,,,,,,,,,,,,,,,,,,,,,,,,,,,,,,,,,,,,,,,,,CS1_USpos,None,1,,,,,,,,,,,,,,,1,y,2019_Mar_01_1352,ec_RRR,3.0.4,59.99160478
gast,"For this task, the target creature is Crandios:","So whenever Crandios (his name or his picture) appears on the screen, hit the spacebar as quickly as possible. Hit the spacebar whenever you see an image of Crandio or the word CRANDIOS. 

Press the spacebar to start the task",target1,stimuli/t1.jpg,82,stimuli/blank.jpg,blank,FALSE,None,,,,,,,,,,,,,0,0,0,0,,,,,0,0,0,0,0,81,81,81,,,,,,,,,,,,,,,,,,,,,,,,,,,,,,,,,,,,,,,,,,,,,CS1_USpos,None,1,,,,,,,,,,,,,,,1,y,2019_Mar_01_1352,ec_RRR,3.0.4,59.99160478
gast,"For this task, the target creature is Crandios:","So whenever Crandios (his name or his picture) appears on the screen, hit the spacebar as quickly as possible. Hit the spacebar whenever you see an image of Crandio or the word CRANDIOS. 

Press the spacebar to start the task",target1,stimuli/t1.jpg,83,stimuli/filler24.jpg,filler,FALSE,None,,,,,,,,,,,,,0,0,0,0,,,,,0,0,0,0,0,82,82,82,,,,,,,,,,,,,,,,,,,,,,,,,,,,,,,,,,,,,,,,,,,,,CS1_USpos,None,1,,,,,,,,,,,,,,,1,y,2019_Mar_01_1352,ec_RRR,3.0.4,59.99160478
gast,"For this task, the target creature is Crandios:","So whenever Crandios (his name or his picture) appears on the screen, hit the spacebar as quickly as possible. Hit the spacebar whenever you see an image of Crandio or the word CRANDIOS. 

Press the spacebar to start the task",target1,stimuli/t1.jpg,84,stimuli/target1_7.jpg,target,TRUE,space,,,,,,,,,,,,,0,0,0,0,,,,,0,0,0,0,0,83,83,83,,,,,,,,,,,,,,,,,,,,,,,,,,,,,,,,,,,,,,,,,,,,,CS1_USpos,None,0,,,,,,,,,,,,,,,1,y,2019_Mar_01_1352,ec_RRR,3.0.4,59.99160478
gast,"For this task, the target creature is Crandios:","So whenever Crandios (his name or his picture) appears on the screen, hit the spacebar as quickly as possible. Hit the spacebar whenever you see an image of Crandio or the word CRANDIOS. 

Press the spacebar to start the task",target1,stimuli/t1.jpg,85,stimuli/filler21.jpg,filler,FALSE,None,,,,,,,,,,,,,0,0,0,0,,,,,0,0,0,0,0,84,84,84,,,,,,,,,,,,,,,,,,,,,,,,,,,,,,,,,,,,,,,,,,,,,CS1_USpos,None,1,,,,,,,,,,,,,,,1,y,2019_Mar_01_1352,ec_RRR,3.0.4,59.99160478
gast,"For this task, the target creature is Crandios:","So whenever Crandios (his name or his picture) appears on the screen, hit the spacebar as quickly as possible. Hit the spacebar whenever you see an image of Crandio or the word CRANDIOS. 

Press the spacebar to start the task",target1,stimuli/t1.jpg,86,stimuli/filler6.jpg,filler,FALSE,None,,,,,,,,,,,,,0,0,0,0,,,,,0,0,0,0,0,85,85,85,,,,,,,,,,,,,,,,,,,,,,,,,,,,,,,,,,,,,,,,,,,,,CS1_USpos,None,1,,,,,,,,,,,,,,,1,y,2019_Mar_01_1352,ec_RRR,3.0.4,59.99160478
gast,"For this task, the target creature is Grubbin:","So whenever Grubbin (his name or his picture) appears on the screen, hit the spacebar as quickly as possible. Hit the spacebar whenever you see an image of Grubbin or the word GRUBBIN. 

Press the spacebar to start the task",target3,stimuli/t3.jpg,1,stimuli/filler12.jpg,filler,FALSE,None,,,,,,,,,,,,,0,0,0,0,,,,,0,1,1,2,0,0,0,0,,,,,,,,,,,,,,,,,,,,,,,,,,,,,,,,,,,,,,,,,,,,,CS1_USpos,None,1,,,,,,,,,,,,,,,1,y,2019_Mar_01_1352,ec_RRR,3.0.4,59.99160478
gast,"For this task, the target creature is Grubbin:","So whenever Grubbin (his name or his picture) appears on the screen, hit the spacebar as quickly as possible. Hit the spacebar whenever you see an image of Grubbin or the word GRUBBIN. 

Press the spacebar to start the task",target3,stimuli/t3.jpg,2,stimuli/target3_2.jpg,target,TRUE,space,,,,,,,,,,,,,0,0,0,0,,,,,0,1,1,2,0,1,1,1,,,,,,,,,,,,,,,,,,,,,,,,,,,,,,,,,,,,,,,,,,,,,CS1_USpos,None,0,,,,,,,,,,,,,,,1,y,2019_Mar_01_1352,ec_RRR,3.0.4,59.99160478
gast,"For this task, the target creature is Grubbin:","So whenever Grubbin (his name or his picture) appears on the screen, hit the spacebar as quickly as possible. Hit the spacebar whenever you see an image of Grubbin or the word GRUBBIN. 

Press the spacebar to start the task",target3,stimuli/t3.jpg,3,stimuli/filler38.jpg,filler,FALSE,None,,,,,,,,,,,,,0,0,0,0,,,,,0,1,1,2,0,2,2,2,,,,,,,,,,,,,,,,,,,,,,,,,,,,,,,,,,,,,,,,,,,,,CS1_USpos,None,1,,,,,,,,,,,,,,,1,y,2019_Mar_01_1352,ec_RRR,3.0.4,59.99160478
gast,"For this task, the target creature is Grubbin:","So whenever Grubbin (his name or his picture) appears on the screen, hit the spacebar as quickly as possible. Hit the spacebar whenever you see an image of Grubbin or the word GRUBBIN. 

Press the spacebar to start the task",target3,stimuli/t3.jpg,4,stimuli/filler10.jpg,filler,FALSE,None,,,,,,,,,,,,,0,0,0,0,,,,,0,1,1,2,0,3,3,3,,,,,,,,,,,,,,,,,,,,,,,,,,,,,,,,,,,,,,,,,,,,,CS1_USpos,None,1,,,,,,,,,,,,,,,1,y,2019_Mar_01_1352,ec_RRR,3.0.4,59.99160478
gast,"For this task, the target creature is Grubbin:","So whenever Grubbin (his name or his picture) appears on the screen, hit the spacebar as quickly as possible. Hit the spacebar whenever you see an image of Grubbin or the word GRUBBIN. 

Press the spacebar to start the task",target3,stimuli/t3.jpg,5,stimuli/filler4.jpg,filler,FALSE,None,,,,,,,,,,,,,0,0,0,0,,,,,0,1,1,2,0,4,4,4,,,,,,,,,,,,,,,,,,,,,,,,,,,,,,,,,,,,,,,,,,,,,CS1_USpos,None,1,,,,,,,,,,,,,,,1,y,2019_Mar_01_1352,ec_RRR,3.0.4,59.99160478
gast,"For this task, the target creature is Grubbin:","So whenever Grubbin (his name or his picture) appears on the screen, hit the spacebar as quickly as possible. Hit the spacebar whenever you see an image of Grubbin or the word GRUBBIN. 

Press the spacebar to start the task",target3,stimuli/t3.jpg,6,stimuli/filler20.jpg,filler,FALSE,None,,,,,,,,,,,,,0,0,0,0,,,,,0,1,1,2,0,5,5,5,,,,,,,,,,,,,,,,,,,,,,,,,,,,,,,,,,,,,,,,,,,,,CS1_USpos,None,1,,,,,,,,,,,,,,,1,y,2019_Mar_01_1352,ec_RRR,3.0.4,59.99160478
gast,"For this task, the target creature is Grubbin:","So whenever Grubbin (his name or his picture) appears on the screen, hit the spacebar as quickly as possible. Hit the spacebar whenever you see an image of Grubbin or the word GRUBBIN. 

Press the spacebar to start the task",target3,stimuli/t3.jpg,7,stimuli/filler27.jpg,filler,FALSE,None,,,,,,,,,,,,,0,0,0,0,,,,,0,1,1,2,0,6,6,6,,,,,,,,,,,,,,,,,,,,,,,,,,,,,,,,,,,,,,,,,,,,,CS1_USpos,None,1,,,,,,,,,,,,,,,1,y,2019_Mar_01_1352,ec_RRR,3.0.4,59.99160478
gast,"For this task, the target creature is Grubbin:","So whenever Grubbin (his name or his picture) appears on the screen, hit the spacebar as quickly as possible. Hit the spacebar whenever you see an image of Grubbin or the word GRUBBIN. 

Press the spacebar to start the task",target3,stimuli/t3.jpg,8,stimuli/filler24.jpg,filler,FALSE,None,,,,,,,,,,,,,0,0,0,0,,,,,0,1,1,2,0,7,7,7,,,,,,,,,,,,,,,,,,,,,,,,,,,,,,,,,,,,,,,,,,,,,CS1_USpos,None,1,,,,,,,,,,,,,,,1,y,2019_Mar_01_1352,ec_RRR,3.0.4,59.99160478
gast,"For this task, the target creature is Grubbin:","So whenever Grubbin (his name or his picture) appears on the screen, hit the spacebar as quickly as possible. Hit the spacebar whenever you see an image of Grubbin or the word GRUBBIN. 

Press the spacebar to start the task",target3,stimuli/t3.jpg,9,stimuli/filler9.jpg,filler,FALSE,None,,,,,,,,,,,,,0,0,0,0,,,,,0,1,1,2,0,8,8,8,,,,,,,,,,,,,,,,,,,,,,,,,,,,,,,,,,,,,,,,,,,,,CS1_USpos,None,1,,,,,,,,,,,,,,,1,y,2019_Mar_01_1352,ec_RRR,3.0.4,59.99160478
gast,"For this task, the target creature is Grubbin:","So whenever Grubbin (his name or his picture) appears on the screen, hit the spacebar as quickly as possible. Hit the spacebar whenever you see an image of Grubbin or the word GRUBBIN. 

Press the spacebar to start the task",target3,stimuli/t3.jpg,10,stimuli/blank.jpg,blank,FALSE,None,,,,,,,,,,,,,0,0,0,0,,,,,0,1,1,2,0,9,9,9,,,,,,,,,,,,,,,,,,,,,,,,,,,,,,,,,,,,,,,,,,,,,CS1_USpos,None,1,,,,,,,,,,,,,,,1,y,2019_Mar_01_1352,ec_RRR,3.0.4,59.99160478
gast,"For this task, the target creature is Grubbin:","So whenever Grubbin (his name or his picture) appears on the screen, hit the spacebar as quickly as possible. Hit the spacebar whenever you see an image of Grubbin or the word GRUBBIN. 

Press the spacebar to start the task",target3,stimuli/t3.jpg,11,stimuli/cs1_pos14.jpg,CSUS,FALSE,None,,,,,,,,,,,,,0,0,0,0,,,,,0,1,1,2,0,10,10,10,,,,,,,,,,,,,,,,,,,,,,,,,,,,,,,,,,,,,,,,,,,,,CS1_USpos,None,1,,,,,,,,,,,,,,,1,y,2019_Mar_01_1352,ec_RRR,3.0.4,59.99160478
gast,"For this task, the target creature is Grubbin:","So whenever Grubbin (his name or his picture) appears on the screen, hit the spacebar as quickly as possible. Hit the spacebar whenever you see an image of Grubbin or the word GRUBBIN. 

Press the spacebar to start the task",target3,stimuli/t3.jpg,12,stimuli/blank.jpg,blank,FALSE,None,,,,,,,,,,,,,0,0,0,0,,,,,0,1,1,2,0,11,11,11,,,,,,,,,,,,,,,,,,,,,,,,,,,,,,,,,,,,,,,,,,,,,CS1_USpos,None,1,,,,,,,,,,,,,,,1,y,2019_Mar_01_1352,ec_RRR,3.0.4,59.99160478
gast,"For this task, the target creature is Grubbin:","So whenever Grubbin (his name or his picture) appears on the screen, hit the spacebar as quickly as possible. Hit the spacebar whenever you see an image of Grubbin or the word GRUBBIN. 

Press the spacebar to start the task",target3,stimuli/t3.jpg,13,stimuli/filler39.jpg,filler,FALSE,None,,,,,,,,,,,,,0,0,0,0,,,,,0,1,1,2,0,12,12,12,,,,,,,,,,,,,,,,,,,,,,,,,,,,,,,,,,,,,,,,,,,,,CS1_USpos,None,1,,,,,,,,,,,,,,,1,y,2019_Mar_01_1352,ec_RRR,3.0.4,59.99160478
gast,"For this task, the target creature is Grubbin:","So whenever Grubbin (his name or his picture) appears on the screen, hit the spacebar as quickly as possible. Hit the spacebar whenever you see an image of Grubbin or the word GRUBBIN. 

Press the spacebar to start the task",target3,stimuli/t3.jpg,14,stimuli/target3_1.jpg,target,TRUE,space,,,,,,,,,,,,,0,0,0,0,,,,,0,1,1,2,0,13,13,13,,,,,,,,,,,,,,,,,,,,,,,,,,,,,,,,,,,,,,,,,,,,,CS1_USpos,None,0,,,,,,,,,,,,,,,1,y,2019_Mar_01_1352,ec_RRR,3.0.4,59.99160478
gast,"For this task, the target creature is Grubbin:","So whenever Grubbin (his name or his picture) appears on the screen, hit the spacebar as quickly as possible. Hit the spacebar whenever you see an image of Grubbin or the word GRUBBIN. 

Press the spacebar to start the task",target3,stimuli/t3.jpg,15,stimuli/filler40.jpg,filler,FALSE,None,,,,,,,,,,,,,0,0,0,0,,,,,0,1,1,2,0,14,14,14,,,,,,,,,,,,,,,,,,,,,,,,,,,,,,,,,,,,,,,,,,,,,CS1_USpos,None,1,,,,,,,,,,,,,,,1,y,2019_Mar_01_1352,ec_RRR,3.0.4,59.99160478
gast,"For this task, the target creature is Grubbin:","So whenever Grubbin (his name or his picture) appears on the screen, hit the spacebar as quickly as possible. Hit the spacebar whenever you see an image of Grubbin or the word GRUBBIN. 

Press the spacebar to start the task",target3,stimuli/t3.jpg,16,stimuli/filler23.jpg,filler,FALSE,None,,,,,,,,,,,,,0,0,0,0,,,,,0,1,1,2,0,15,15,15,,,,,,,,,,,,,,,,,,,,,,,,,,,,,,,,,,,,,,,,,,,,,CS1_USpos,None,1,,,,,,,,,,,,,,,1,y,2019_Mar_01_1352,ec_RRR,3.0.4,59.99160478
gast,"For this task, the target creature is Grubbin:","So whenever Grubbin (his name or his picture) appears on the screen, hit the spacebar as quickly as possible. Hit the spacebar whenever you see an image of Grubbin or the word GRUBBIN. 

Press the spacebar to start the task",target3,stimuli/t3.jpg,17,stimuli/filler37.jpg,filler,FALSE,None,,,,,,,,,,,,,0,0,0,0,,,,,0,1,1,2,0,16,16,16,,,,,,,,,,,,,,,,,,,,,,,,,,,,,,,,,,,,,,,,,,,,,CS1_USpos,None,1,,,,,,,,,,,,,,,1,y,2019_Mar_01_1352,ec_RRR,3.0.4,59.99160478
gast,"For this task, the target creature is Grubbin:","So whenever Grubbin (his name or his picture) appears on the screen, hit the spacebar as quickly as possible. Hit the spacebar whenever you see an image of Grubbin or the word GRUBBIN. 

Press the spacebar to start the task",target3,stimuli/t3.jpg,18,stimuli/filler11.jpg,filler,FALSE,None,,,,,,,,,,,,,0,0,0,0,,,,,0,1,1,2,0,17,17,17,,,,,,,,,,,,,,,,,,,,,,,,,,,,,,,,,,,,,,,,,,,,,CS1_USpos,None,1,,,,,,,,,,,,,,,1,y,2019_Mar_01_1352,ec_RRR,3.0.4,59.99160478
gast,"For this task, the target creature is Grubbin:","So whenever Grubbin (his name or his picture) appears on the screen, hit the spacebar as quickly as possible. Hit the spacebar whenever you see an image of Grubbin or the word GRUBBIN. 

Press the spacebar to start the task",target3,stimuli/t3.jpg,19,stimuli/filler26.jpg,filler,FALSE,None,,,,,,,,,,,,,0,0,0,0,,,,,0,1,1,2,0,18,18,18,,,,,,,,,,,,,,,,,,,,,,,,,,,,,,,,,,,,,,,,,,,,,CS1_USpos,None,1,,,,,,,,,,,,,,,1,y,2019_Mar_01_1352,ec_RRR,3.0.4,59.99160478
gast,"For this task, the target creature is Grubbin:","So whenever Grubbin (his name or his picture) appears on the screen, hit the spacebar as quickly as possible. Hit the spacebar whenever you see an image of Grubbin or the word GRUBBIN. 

Press the spacebar to start the task",target3,stimuli/t3.jpg,20,stimuli/blank.jpg,blank,FALSE,None,,,,,,,,,,,,,0,0,0,0,,,,,0,1,1,2,0,19,19,19,,,,,,,,,,,,,,,,,,,,,,,,,,,,,,,,,,,,,,,,,,,,,CS1_USpos,None,1,,,,,,,,,,,,,,,1,y,2019_Mar_01_1352,ec_RRR,3.0.4,59.99160478
gast,"For this task, the target creature is Grubbin:","So whenever Grubbin (his name or his picture) appears on the screen, hit the spacebar as quickly as possible. Hit the spacebar whenever you see an image of Grubbin or the word GRUBBIN. 

Press the spacebar to start the task",target3,stimuli/t3.jpg,21,stimuli/cs2_neg13.jpg,CSUS,FALSE,None,,,,,,,,,,,,,0,0,0,0,,,,,0,1,1,2,0,20,20,20,,,,,,,,,,,,,,,,,,,,,,,,,,,,,,,,,,,,,,,,,,,,,CS1_USpos,None,1,,,,,,,,,,,,,,,1,y,2019_Mar_01_1352,ec_RRR,3.0.4,59.99160478
gast,"For this task, the target creature is Grubbin:","So whenever Grubbin (his name or his picture) appears on the screen, hit the spacebar as quickly as possible. Hit the spacebar whenever you see an image of Grubbin or the word GRUBBIN. 

Press the spacebar to start the task",target3,stimuli/t3.jpg,22,stimuli/blank.jpg,blank,FALSE,None,,,,,,,,,,,,,0,0,0,0,,,,,0,1,1,2,0,21,21,21,,,,,,,,,,,,,,,,,,,,,,,,,,,,,,,,,,,,,,,,,,,,,CS1_USpos,None,1,,,,,,,,,,,,,,,1,y,2019_Mar_01_1352,ec_RRR,3.0.4,59.99160478
gast,"For this task, the target creature is Grubbin:","So whenever Grubbin (his name or his picture) appears on the screen, hit the spacebar as quickly as possible. Hit the spacebar whenever you see an image of Grubbin or the word GRUBBIN. 

Press the spacebar to start the task",target3,stimuli/t3.jpg,23,stimuli/filler51.jpg,filler,FALSE,None,,,,,,,,,,,,,0,0,0,0,,,,,0,1,1,2,0,22,22,22,,,,,,,,,,,,,,,,,,,,,,,,,,,,,,,,,,,,,,,,,,,,,CS1_USpos,None,1,,,,,,,,,,,,,,,1,y,2019_Mar_01_1352,ec_RRR,3.0.4,59.99160478
gast,"For this task, the target creature is Grubbin:","So whenever Grubbin (his name or his picture) appears on the screen, hit the spacebar as quickly as possible. Hit the spacebar whenever you see an image of Grubbin or the word GRUBBIN. 

Press the spacebar to start the task",target3,stimuli/t3.jpg,24,stimuli/target3_3.jpg,target,TRUE,space,,,,,,,,,,,,,0,0,0,0,,,,,0,1,1,2,0,23,23,23,,,,,,,,,,,,,,,,,,,,,,,,,,,,,,,,,,,,,,,,,,,,,CS1_USpos,None,0,,,,,,,,,,,,,,,1,y,2019_Mar_01_1352,ec_RRR,3.0.4,59.99160478
gast,"For this task, the target creature is Grubbin:","So whenever Grubbin (his name or his picture) appears on the screen, hit the spacebar as quickly as possible. Hit the spacebar whenever you see an image of Grubbin or the word GRUBBIN. 

Press the spacebar to start the task",target3,stimuli/t3.jpg,25,stimuli/filler46.jpg,filler,FALSE,None,,,,,,,,,,,,,0,0,0,0,,,,,0,1,1,2,0,24,24,24,,,,,,,,,,,,,,,,,,,,,,,,,,,,,,,,,,,,,,,,,,,,,CS1_USpos,None,1,,,,,,,,,,,,,,,1,y,2019_Mar_01_1352,ec_RRR,3.0.4,59.99160478
gast,"For this task, the target creature is Grubbin:","So whenever Grubbin (his name or his picture) appears on the screen, hit the spacebar as quickly as possible. Hit the spacebar whenever you see an image of Grubbin or the word GRUBBIN. 

Press the spacebar to start the task",target3,stimuli/t3.jpg,26,stimuli/target3_7.jpg,target,TRUE,space,,,,,,,,,,,,,0,0,0,0,,,,,0,1,1,2,0,25,25,25,,,,,,,,,,,,,,,,,,,,,,,,,,,,,,,,,,,,,,,,,,,,,CS1_USpos,None,0,,,,,,,,,,,,,,,1,y,2019_Mar_01_1352,ec_RRR,3.0.4,59.99160478
gast,"For this task, the target creature is Grubbin:","So whenever Grubbin (his name or his picture) appears on the screen, hit the spacebar as quickly as possible. Hit the spacebar whenever you see an image of Grubbin or the word GRUBBIN. 

Press the spacebar to start the task",target3,stimuli/t3.jpg,27,stimuli/target3_4.jpg,target,TRUE,space,,,,,,,,,,,,,0,0,0,0,,,,,0,1,1,2,0,26,26,26,,,,,,,,,,,,,,,,,,,,,,,,,,,,,,,,,,,,,,,,,,,,,CS1_USpos,None,0,,,,,,,,,,,,,,,1,y,2019_Mar_01_1352,ec_RRR,3.0.4,59.99160478
gast,"For this task, the target creature is Grubbin:","So whenever Grubbin (his name or his picture) appears on the screen, hit the spacebar as quickly as possible. Hit the spacebar whenever you see an image of Grubbin or the word GRUBBIN. 

Press the spacebar to start the task",target3,stimuli/t3.jpg,28,stimuli/filler5.jpg,filler,FALSE,None,,,,,,,,,,,,,0,0,0,0,,,,,0,1,1,2,0,27,27,27,,,,,,,,,,,,,,,,,,,,,,,,,,,,,,,,,,,,,,,,,,,,,CS1_USpos,None,1,,,,,,,,,,,,,,,1,y,2019_Mar_01_1352,ec_RRR,3.0.4,59.99160478
gast,"For this task, the target creature is Grubbin:","So whenever Grubbin (his name or his picture) appears on the screen, hit the spacebar as quickly as possible. Hit the spacebar whenever you see an image of Grubbin or the word GRUBBIN. 

Press the spacebar to start the task",target3,stimuli/t3.jpg,29,stimuli/filler41.jpg,filler,FALSE,None,,,,,,,,,,,,,0,0,0,0,,,,,0,1,1,2,0,28,28,28,,,,,,,,,,,,,,,,,,,,,,,,,,,,,,,,,,,,,,,,,,,,,CS1_USpos,None,1,,,,,,,,,,,,,,,1,y,2019_Mar_01_1352,ec_RRR,3.0.4,59.99160478
gast,"For this task, the target creature is Grubbin:","So whenever Grubbin (his name or his picture) appears on the screen, hit the spacebar as quickly as possible. Hit the spacebar whenever you see an image of Grubbin or the word GRUBBIN. 

Press the spacebar to start the task",target3,stimuli/t3.jpg,30,stimuli/blank.jpg,blank,FALSE,None,,,,,,,,,,,,,0,0,0,0,,,,,0,1,1,2,0,29,29,29,,,,,,,,,,,,,,,,,,,,,,,,,,,,,,,,,,,,,,,,,,,,,CS1_USpos,None,1,,,,,,,,,,,,,,,1,y,2019_Mar_01_1352,ec_RRR,3.0.4,59.99160478
gast,"For this task, the target creature is Grubbin:","So whenever Grubbin (his name or his picture) appears on the screen, hit the spacebar as quickly as possible. Hit the spacebar whenever you see an image of Grubbin or the word GRUBBIN. 

Press the spacebar to start the task",target3,stimuli/t3.jpg,31,stimuli/cs1_pos8.jpg,CSUS,FALSE,None,,,,,,,,,,,,,0,0,0,0,,,,,0,1,1,2,0,30,30,30,,,,,,,,,,,,,,,,,,,,,,,,,,,,,,,,,,,,,,,,,,,,,CS1_USpos,None,1,,,,,,,,,,,,,,,1,y,2019_Mar_01_1352,ec_RRR,3.0.4,59.99160478
gast,"For this task, the target creature is Grubbin:","So whenever Grubbin (his name or his picture) appears on the screen, hit the spacebar as quickly as possible. Hit the spacebar whenever you see an image of Grubbin or the word GRUBBIN. 

Press the spacebar to start the task",target3,stimuli/t3.jpg,32,stimuli/blank.jpg,blank,FALSE,None,,,,,,,,,,,,,0,0,0,0,,,,,0,1,1,2,0,31,31,31,,,,,,,,,,,,,,,,,,,,,,,,,,,,,,,,,,,,,,,,,,,,,CS1_USpos,None,1,,,,,,,,,,,,,,,1,y,2019_Mar_01_1352,ec_RRR,3.0.4,59.99160478
gast,"For this task, the target creature is Grubbin:","So whenever Grubbin (his name or his picture) appears on the screen, hit the spacebar as quickly as possible. Hit the spacebar whenever you see an image of Grubbin or the word GRUBBIN. 

Press the spacebar to start the task",target3,stimuli/t3.jpg,33,stimuli/filler52.jpg,filler,FALSE,None,,,,,,,,,,,,,0,0,0,0,,,,,0,1,1,2,0,32,32,32,,,,,,,,,,,,,,,,,,,,,,,,,,,,,,,,,,,,,,,,,,,,,CS1_USpos,None,1,,,,,,,,,,,,,,,1,y,2019_Mar_01_1352,ec_RRR,3.0.4,59.99160478
gast,"For this task, the target creature is Grubbin:","So whenever Grubbin (his name or his picture) appears on the screen, hit the spacebar as quickly as possible. Hit the spacebar whenever you see an image of Grubbin or the word GRUBBIN. 

Press the spacebar to start the task",target3,stimuli/t3.jpg,34,stimuli/target3_8.jpg,target,TRUE,space,,,,,,,,,,,,,0,0,0,0,,,,,0,1,1,2,0,33,33,33,,,,,,,,,,,,,,,,,,,,,,,,,,,,,,,,,,,,,,,,,,,,,CS1_USpos,None,0,,,,,,,,,,,,,,,1,y,2019_Mar_01_1352,ec_RRR,3.0.4,59.99160478
gast,"For this task, the target creature is Grubbin:","So whenever Grubbin (his name or his picture) appears on the screen, hit the spacebar as quickly as possible. Hit the spacebar whenever you see an image of Grubbin or the word GRUBBIN. 

Press the spacebar to start the task",target3,stimuli/t3.jpg,35,stimuli/filler8.jpg,filler,FALSE,None,,,,,,,,,,,,,0,0,0,0,,,,,0,1,1,2,0,34,34,34,,,,,,,,,,,,,,,,,,,,,,,,,,,,,,,,,,,,,,,,,,,,,CS1_USpos,None,1,,,,,,,,,,,,,,,1,y,2019_Mar_01_1352,ec_RRR,3.0.4,59.99160478
gast,"For this task, the target creature is Grubbin:","So whenever Grubbin (his name or his picture) appears on the screen, hit the spacebar as quickly as possible. Hit the spacebar whenever you see an image of Grubbin or the word GRUBBIN. 

Press the spacebar to start the task",target3,stimuli/t3.jpg,36,stimuli/filler19.jpg,filler,FALSE,None,,,,,,,,,,,,,0,0,0,0,,,,,0,1,1,2,0,35,35,35,,,,,,,,,,,,,,,,,,,,,,,,,,,,,,,,,,,,,,,,,,,,,CS1_USpos,None,1,,,,,,,,,,,,,,,1,y,2019_Mar_01_1352,ec_RRR,3.0.4,59.99160478
gast,"For this task, the target creature is Grubbin:","So whenever Grubbin (his name or his picture) appears on the screen, hit the spacebar as quickly as possible. Hit the spacebar whenever you see an image of Grubbin or the word GRUBBIN. 

Press the spacebar to start the task",target3,stimuli/t3.jpg,37,stimuli/filler31.jpg,filler,FALSE,None,,,,,,,,,,,,,0,0,0,0,,,,,0,1,1,2,0,36,36,36,,,,,,,,,,,,,,,,,,,,,,,,,,,,,,,,,,,,,,,,,,,,,CS1_USpos,None,1,,,,,,,,,,,,,,,1,y,2019_Mar_01_1352,ec_RRR,3.0.4,59.99160478
gast,"For this task, the target creature is Grubbin:","So whenever Grubbin (his name or his picture) appears on the screen, hit the spacebar as quickly as possible. Hit the spacebar whenever you see an image of Grubbin or the word GRUBBIN. 

Press the spacebar to start the task",target3,stimuli/t3.jpg,38,stimuli/filler18.jpg,filler,FALSE,None,,,,,,,,,,,,,0,0,0,0,,,,,0,1,1,2,0,37,37,37,,,,,,,,,,,,,,,,,,,,,,,,,,,,,,,,,,,,,,,,,,,,,CS1_USpos,None,1,,,,,,,,,,,,,,,1,y,2019_Mar_01_1352,ec_RRR,3.0.4,59.99160478
gast,"For this task, the target creature is Grubbin:","So whenever Grubbin (his name or his picture) appears on the screen, hit the spacebar as quickly as possible. Hit the spacebar whenever you see an image of Grubbin or the word GRUBBIN. 

Press the spacebar to start the task",target3,stimuli/t3.jpg,39,stimuli/filler48.jpg,filler,FALSE,None,,,,,,,,,,,,,0,0,0,0,,,,,0,1,1,2,0,38,38,38,,,,,,,,,,,,,,,,,,,,,,,,,,,,,,,,,,,,,,,,,,,,,CS1_USpos,None,1,,,,,,,,,,,,,,,1,y,2019_Mar_01_1352,ec_RRR,3.0.4,59.99160478
gast,"For this task, the target creature is Grubbin:","So whenever Grubbin (his name or his picture) appears on the screen, hit the spacebar as quickly as possible. Hit the spacebar whenever you see an image of Grubbin or the word GRUBBIN. 

Press the spacebar to start the task",target3,stimuli/t3.jpg,40,stimuli/blank.jpg,blank,FALSE,None,,,,,,,,,,,,,0,0,0,0,,,,,0,1,1,2,0,39,39,39,,,,,,,,,,,,,,,,,,,,,,,,,,,,,,,,,,,,,,,,,,,,,CS1_USpos,None,1,,,,,,,,,,,,,,,1,y,2019_Mar_01_1352,ec_RRR,3.0.4,59.99160478
gast,"For this task, the target creature is Grubbin:","So whenever Grubbin (his name or his picture) appears on the screen, hit the spacebar as quickly as possible. Hit the spacebar whenever you see an image of Grubbin or the word GRUBBIN. 

Press the spacebar to start the task",target3,stimuli/t3.jpg,41,stimuli/cs2_neg3.jpg,CSUS,FALSE,None,,,,,,,,,,,,,0,0,0,0,,,,,0,1,1,2,0,40,40,40,,,,,,,,,,,,,,,,,,,,,,,,,,,,,,,,,,,,,,,,,,,,,CS1_USpos,None,1,,,,,,,,,,,,,,,1,y,2019_Mar_01_1352,ec_RRR,3.0.4,59.99160478
gast,"For this task, the target creature is Grubbin:","So whenever Grubbin (his name or his picture) appears on the screen, hit the spacebar as quickly as possible. Hit the spacebar whenever you see an image of Grubbin or the word GRUBBIN. 

Press the spacebar to start the task",target3,stimuli/t3.jpg,42,stimuli/blank.jpg,blank,FALSE,None,,,,,,,,,,,,,0,0,0,0,,,,,0,1,1,2,0,41,41,41,,,,,,,,,,,,,,,,,,,,,,,,,,,,,,,,,,,,,,,,,,,,,CS1_USpos,None,1,,,,,,,,,,,,,,,1,y,2019_Mar_01_1352,ec_RRR,3.0.4,59.99160478
gast,"For this task, the target creature is Grubbin:","So whenever Grubbin (his name or his picture) appears on the screen, hit the spacebar as quickly as possible. Hit the spacebar whenever you see an image of Grubbin or the word GRUBBIN. 

Press the spacebar to start the task",target3,stimuli/t3.jpg,43,stimuli/filler47.jpg,filler,FALSE,None,,,,,,,,,,,,,0,0,0,0,,,,,0,1,1,2,0,42,42,42,,,,,,,,,,,,,,,,,,,,,,,,,,,,,,,,,,,,,,,,,,,,,CS1_USpos,None,1,,,,,,,,,,,,,,,1,y,2019_Mar_01_1352,ec_RRR,3.0.4,59.99160478
gast,"For this task, the target creature is Grubbin:","So whenever Grubbin (his name or his picture) appears on the screen, hit the spacebar as quickly as possible. Hit the spacebar whenever you see an image of Grubbin or the word GRUBBIN. 

Press the spacebar to start the task",target3,stimuli/t3.jpg,44,stimuli/target3_5.jpg,target,TRUE,space,,,,,,,,,,,,,0,0,0,0,,,,,0,1,1,2,0,43,43,43,,,,,,,,,,,,,,,,,,,,,,,,,,,,,,,,,,,,,,,,,,,,,CS1_USpos,None,0,,,,,,,,,,,,,,,1,y,2019_Mar_01_1352,ec_RRR,3.0.4,59.99160478
gast,"For this task, the target creature is Grubbin:","So whenever Grubbin (his name or his picture) appears on the screen, hit the spacebar as quickly as possible. Hit the spacebar whenever you see an image of Grubbin or the word GRUBBIN. 

Press the spacebar to start the task",target3,stimuli/t3.jpg,45,stimuli/filler21.jpg,filler,FALSE,None,,,,,,,,,,,,,0,0,0,0,,,,,0,1,1,2,0,44,44,44,,,,,,,,,,,,,,,,,,,,,,,,,,,,,,,,,,,,,,,,,,,,,CS1_USpos,None,1,,,,,,,,,,,,,,,1,y,2019_Mar_01_1352,ec_RRR,3.0.4,59.99160478
gast,"For this task, the target creature is Grubbin:","So whenever Grubbin (his name or his picture) appears on the screen, hit the spacebar as quickly as possible. Hit the spacebar whenever you see an image of Grubbin or the word GRUBBIN. 

Press the spacebar to start the task",target3,stimuli/t3.jpg,46,stimuli/filler45.jpg,filler,FALSE,None,,,,,,,,,,,,,0,0,0,0,,,,,0,1,1,2,0,45,45,45,,,,,,,,,,,,,,,,,,,,,,,,,,,,,,,,,,,,,,,,,,,,,CS1_USpos,None,1,,,,,,,,,,,,,,,1,y,2019_Mar_01_1352,ec_RRR,3.0.4,59.99160478
gast,"For this task, the target creature is Grubbin:","So whenever Grubbin (his name or his picture) appears on the screen, hit the spacebar as quickly as possible. Hit the spacebar whenever you see an image of Grubbin or the word GRUBBIN. 

Press the spacebar to start the task",target3,stimuli/t3.jpg,47,stimuli/filler34.jpg,filler,FALSE,None,,,,,,,,,,,,,0,0,0,0,,,,,0,1,1,2,0,46,46,46,,,,,,,,,,,,,,,,,,,,,,,,,,,,,,,,,,,,,,,,,,,,,CS1_USpos,None,1,,,,,,,,,,,,,,,1,y,2019_Mar_01_1352,ec_RRR,3.0.4,59.99160478
gast,"For this task, the target creature is Grubbin:","So whenever Grubbin (his name or his picture) appears on the screen, hit the spacebar as quickly as possible. Hit the spacebar whenever you see an image of Grubbin or the word GRUBBIN. 

Press the spacebar to start the task",target3,stimuli/t3.jpg,48,stimuli/target3_9.jpg,target,TRUE,space,,,,,,,,,,,,,0,0,0,0,,,,,0,1,1,2,0,47,47,47,,,,,,,,,,,,,,,,,,,,,,,,,,,,,,,,,,,,,,,,,,,,,CS1_USpos,None,0,,,,,,,,,,,,,,,1,y,2019_Mar_01_1352,ec_RRR,3.0.4,59.99160478
gast,"For this task, the target creature is Grubbin:","So whenever Grubbin (his name or his picture) appears on the screen, hit the spacebar as quickly as possible. Hit the spacebar whenever you see an image of Grubbin or the word GRUBBIN. 

Press the spacebar to start the task",target3,stimuli/t3.jpg,49,stimuli/filler15.jpg,filler,FALSE,None,,,,,,,,,,,,,0,0,0,0,,,,,0,1,1,2,0,48,48,48,,,,,,,,,,,,,,,,,,,,,,,,,,,,,,,,,,,,,,,,,,,,,CS1_USpos,None,1,,,,,,,,,,,,,,,1,y,2019_Mar_01_1352,ec_RRR,3.0.4,59.99160478
gast,"For this task, the target creature is Grubbin:","So whenever Grubbin (his name or his picture) appears on the screen, hit the spacebar as quickly as possible. Hit the spacebar whenever you see an image of Grubbin or the word GRUBBIN. 

Press the spacebar to start the task",target3,stimuli/t3.jpg,50,stimuli/blank.jpg,blank,FALSE,None,,,,,,,,,,,,,0,0,0,0,,,,,0,1,1,2,0,49,49,49,,,,,,,,,,,,,,,,,,,,,,,,,,,,,,,,,,,,,,,,,,,,,CS1_USpos,None,1,,,,,,,,,,,,,,,1,y,2019_Mar_01_1352,ec_RRR,3.0.4,59.99160478
gast,"For this task, the target creature is Grubbin:","So whenever Grubbin (his name or his picture) appears on the screen, hit the spacebar as quickly as possible. Hit the spacebar whenever you see an image of Grubbin or the word GRUBBIN. 

Press the spacebar to start the task",target3,stimuli/t3.jpg,51,stimuli/cs1_pos19.jpg,CSUS,FALSE,None,,,,,,,,,,,,,0,0,0,0,,,,,0,1,1,2,0,50,50,50,,,,,,,,,,,,,,,,,,,,,,,,,,,,,,,,,,,,,,,,,,,,,CS1_USpos,None,1,,,,,,,,,,,,,,,1,y,2019_Mar_01_1352,ec_RRR,3.0.4,59.99160478
gast,"For this task, the target creature is Grubbin:","So whenever Grubbin (his name or his picture) appears on the screen, hit the spacebar as quickly as possible. Hit the spacebar whenever you see an image of Grubbin or the word GRUBBIN. 

Press the spacebar to start the task",target3,stimuli/t3.jpg,52,stimuli/blank.jpg,blank,FALSE,None,,,,,,,,,,,,,0,0,0,0,,,,,0,1,1,2,0,51,51,51,,,,,,,,,,,,,,,,,,,,,,,,,,,,,,,,,,,,,,,,,,,,,CS1_USpos,None,1,,,,,,,,,,,,,,,1,y,2019_Mar_01_1352,ec_RRR,3.0.4,59.99160478
gast,"For this task, the target creature is Grubbin:","So whenever Grubbin (his name or his picture) appears on the screen, hit the spacebar as quickly as possible. Hit the spacebar whenever you see an image of Grubbin or the word GRUBBIN. 

Press the spacebar to start the task",target3,stimuli/t3.jpg,53,stimuli/filler22.jpg,filler,FALSE,None,,,,,,,,,,,,,0,0,0,0,,,,,0,1,1,2,0,52,52,52,,,,,,,,,,,,,,,,,,,,,,,,,,,,,,,,,,,,,,,,,,,,,CS1_USpos,None,1,,,,,,,,,,,,,,,1,y,2019_Mar_01_1352,ec_RRR,3.0.4,59.99160478
gast,"For this task, the target creature is Grubbin:","So whenever Grubbin (his name or his picture) appears on the screen, hit the spacebar as quickly as possible. Hit the spacebar whenever you see an image of Grubbin or the word GRUBBIN. 

Press the spacebar to start the task",target3,stimuli/t3.jpg,54,stimuli/filler44.jpg,filler,FALSE,None,,,,,,,,,,,,,0,0,0,0,,,,,0,1,1,2,0,53,53,53,,,,,,,,,,,,,,,,,,,,,,,,,,,,,,,,,,,,,,,,,,,,,CS1_USpos,None,1,,,,,,,,,,,,,,,1,y,2019_Mar_01_1352,ec_RRR,3.0.4,59.99160478
gast,"For this task, the target creature is Grubbin:","So whenever Grubbin (his name or his picture) appears on the screen, hit the spacebar as quickly as possible. Hit the spacebar whenever you see an image of Grubbin or the word GRUBBIN. 

Press the spacebar to start the task",target3,stimuli/t3.jpg,55,stimuli/filler43.jpg,filler,FALSE,None,,,,,,,,,,,,,0,0,0,0,,,,,0,1,1,2,0,54,54,54,,,,,,,,,,,,,,,,,,,,,,,,,,,,,,,,,,,,,,,,,,,,,CS1_USpos,None,1,,,,,,,,,,,,,,,1,y,2019_Mar_01_1352,ec_RRR,3.0.4,59.99160478
gast,"For this task, the target creature is Grubbin:","So whenever Grubbin (his name or his picture) appears on the screen, hit the spacebar as quickly as possible. Hit the spacebar whenever you see an image of Grubbin or the word GRUBBIN. 

Press the spacebar to start the task",target3,stimuli/t3.jpg,56,stimuli/filler6.jpg,filler,FALSE,None,,,,,,,,,,,,,0,0,0,0,,,,,0,1,1,2,0,55,55,55,,,,,,,,,,,,,,,,,,,,,,,,,,,,,,,,,,,,,,,,,,,,,CS1_USpos,None,1,,,,,,,,,,,,,,,1,y,2019_Mar_01_1352,ec_RRR,3.0.4,59.99160478
gast,"For this task, the target creature is Grubbin:","So whenever Grubbin (his name or his picture) appears on the screen, hit the spacebar as quickly as possible. Hit the spacebar whenever you see an image of Grubbin or the word GRUBBIN. 

Press the spacebar to start the task",target3,stimuli/t3.jpg,57,stimuli/filler16.jpg,filler,FALSE,None,,,,,,,,,,,,,0,0,0,0,,,,,0,1,1,2,0,56,56,56,,,,,,,,,,,,,,,,,,,,,,,,,,,,,,,,,,,,,,,,,,,,,CS1_USpos,None,1,,,,,,,,,,,,,,,1,y,2019_Mar_01_1352,ec_RRR,3.0.4,59.99160478
gast,"For this task, the target creature is Grubbin:","So whenever Grubbin (his name or his picture) appears on the screen, hit the spacebar as quickly as possible. Hit the spacebar whenever you see an image of Grubbin or the word GRUBBIN. 

Press the spacebar to start the task",target3,stimuli/t3.jpg,58,stimuli/filler33.jpg,filler,FALSE,None,,,,,,,,,,,,,0,0,0,0,,,,,0,1,1,2,0,57,57,57,,,,,,,,,,,,,,,,,,,,,,,,,,,,,,,,,,,,,,,,,,,,,CS1_USpos,None,1,,,,,,,,,,,,,,,1,y,2019_Mar_01_1352,ec_RRR,3.0.4,59.99160478
gast,"For this task, the target creature is Grubbin:","So whenever Grubbin (his name or his picture) appears on the screen, hit the spacebar as quickly as possible. Hit the spacebar whenever you see an image of Grubbin or the word GRUBBIN. 

Press the spacebar to start the task",target3,stimuli/t3.jpg,59,stimuli/filler13.jpg,filler,FALSE,None,,,,,,,,,,,,,0,0,0,0,,,,,0,1,1,2,0,58,58,58,,,,,,,,,,,,,,,,,,,,,,,,,,,,,,,,,,,,,,,,,,,,,CS1_USpos,None,1,,,,,,,,,,,,,,,1,y,2019_Mar_01_1352,ec_RRR,3.0.4,59.99160478
gast,"For this task, the target creature is Grubbin:","So whenever Grubbin (his name or his picture) appears on the screen, hit the spacebar as quickly as possible. Hit the spacebar whenever you see an image of Grubbin or the word GRUBBIN. 

Press the spacebar to start the task",target3,stimuli/t3.jpg,60,stimuli/blank.jpg,blank,FALSE,None,,,,,,,,,,,,,0,0,0,0,,,,,0,1,1,2,0,59,59,59,,,,,,,,,,,,,,,,,,,,,,,,,,,,,,,,,,,,,,,,,,,,,CS1_USpos,None,1,,,,,,,,,,,,,,,1,y,2019_Mar_01_1352,ec_RRR,3.0.4,59.99160478
gast,"For this task, the target creature is Grubbin:","So whenever Grubbin (his name or his picture) appears on the screen, hit the spacebar as quickly as possible. Hit the spacebar whenever you see an image of Grubbin or the word GRUBBIN. 

Press the spacebar to start the task",target3,stimuli/t3.jpg,61,stimuli/cs2_neg5.jpg,CSUS,FALSE,None,,,,,,,,,,,,,0,0,0,0,,,,,0,1,1,2,0,60,60,60,,,,,,,,,,,,,,,,,,,,,,,,,,,,,,,,,,,,,,,,,,,,,CS1_USpos,None,1,,,,,,,,,,,,,,,1,y,2019_Mar_01_1352,ec_RRR,3.0.4,59.99160478
gast,"For this task, the target creature is Grubbin:","So whenever Grubbin (his name or his picture) appears on the screen, hit the spacebar as quickly as possible. Hit the spacebar whenever you see an image of Grubbin or the word GRUBBIN. 

Press the spacebar to start the task",target3,stimuli/t3.jpg,62,stimuli/blank.jpg,blank,FALSE,None,,,,,,,,,,,,,0,0,0,0,,,,,0,1,1,2,0,61,61,61,,,,,,,,,,,,,,,,,,,,,,,,,,,,,,,,,,,,,,,,,,,,,CS1_USpos,None,1,,,,,,,,,,,,,,,1,y,2019_Mar_01_1352,ec_RRR,3.0.4,59.99160478
gast,"For this task, the target creature is Grubbin:","So whenever Grubbin (his name or his picture) appears on the screen, hit the spacebar as quickly as possible. Hit the spacebar whenever you see an image of Grubbin or the word GRUBBIN. 

Press the spacebar to start the task",target3,stimuli/t3.jpg,63,stimuli/filler2.jpg,filler,FALSE,None,,,,,,,,,,,,,0,0,0,0,,,,,0,1,1,2,0,62,62,62,,,,,,,,,,,,,,,,,,,,,,,,,,,,,,,,,,,,,,,,,,,,,CS1_USpos,None,1,,,,,,,,,,,,,,,1,y,2019_Mar_01_1352,ec_RRR,3.0.4,59.99160478
gast,"For this task, the target creature is Grubbin:","So whenever Grubbin (his name or his picture) appears on the screen, hit the spacebar as quickly as possible. Hit the spacebar whenever you see an image of Grubbin or the word GRUBBIN. 

Press the spacebar to start the task",target3,stimuli/t3.jpg,64,stimuli/target3_10.jpg,target,TRUE,space,,,,,,,,,,,,,0,0,0,0,,,,,0,1,1,2,0,63,63,63,,,,,,,,,,,,,,,,,,,,,,,,,,,,,,,,,,,,,,,,,,,,,CS1_USpos,None,0,,,,,,,,,,,,,,,1,y,2019_Mar_01_1352,ec_RRR,3.0.4,59.99160478
gast,"For this task, the target creature is Grubbin:","So whenever Grubbin (his name or his picture) appears on the screen, hit the spacebar as quickly as possible. Hit the spacebar whenever you see an image of Grubbin or the word GRUBBIN. 

Press the spacebar to start the task",target3,stimuli/t3.jpg,65,stimuli/filler50.jpg,filler,FALSE,None,,,,,,,,,,,,,0,0,0,0,,,,,0,1,1,2,0,64,64,64,,,,,,,,,,,,,,,,,,,,,,,,,,,,,,,,,,,,,,,,,,,,,CS1_USpos,None,1,,,,,,,,,,,,,,,1,y,2019_Mar_01_1352,ec_RRR,3.0.4,59.99160478
gast,"For this task, the target creature is Grubbin:","So whenever Grubbin (his name or his picture) appears on the screen, hit the spacebar as quickly as possible. Hit the spacebar whenever you see an image of Grubbin or the word GRUBBIN. 

Press the spacebar to start the task",target3,stimuli/t3.jpg,66,stimuli/filler1.jpg,filler,FALSE,None,,,,,,,,,,,,,0,0,0,0,,,,,0,1,1,2,0,65,65,65,,,,,,,,,,,,,,,,,,,,,,,,,,,,,,,,,,,,,,,,,,,,,CS1_USpos,None,1,,,,,,,,,,,,,,,1,y,2019_Mar_01_1352,ec_RRR,3.0.4,59.99160478
gast,"For this task, the target creature is Grubbin:","So whenever Grubbin (his name or his picture) appears on the screen, hit the spacebar as quickly as possible. Hit the spacebar whenever you see an image of Grubbin or the word GRUBBIN. 

Press the spacebar to start the task",target3,stimuli/t3.jpg,67,stimuli/target3_6.jpg,target,TRUE,space,,,,,,,,,,,,,0,0,0,0,,,,,0,1,1,2,0,66,66,66,,,,,,,,,,,,,,,,,,,,,,,,,,,,,,,,,,,,,,,,,,,,,CS1_USpos,None,0,,,,,,,,,,,,,,,1,y,2019_Mar_01_1352,ec_RRR,3.0.4,59.99160478
gast,"For this task, the target creature is Grubbin:","So whenever Grubbin (his name or his picture) appears on the screen, hit the spacebar as quickly as possible. Hit the spacebar whenever you see an image of Grubbin or the word GRUBBIN. 

Press the spacebar to start the task",target3,stimuli/t3.jpg,68,stimuli/filler32.jpg,filler,FALSE,None,,,,,,,,,,,,,0,0,0,0,,,,,0,1,1,2,0,67,67,67,,,,,,,,,,,,,,,,,,,,,,,,,,,,,,,,,,,,,,,,,,,,,CS1_USpos,None,1,,,,,,,,,,,,,,,1,y,2019_Mar_01_1352,ec_RRR,3.0.4,59.99160478
gast,"For this task, the target creature is Grubbin:","So whenever Grubbin (his name or his picture) appears on the screen, hit the spacebar as quickly as possible. Hit the spacebar whenever you see an image of Grubbin or the word GRUBBIN. 

Press the spacebar to start the task",target3,stimuli/t3.jpg,69,stimuli/filler25.jpg,filler,FALSE,None,,,,,,,,,,,,,0,0,0,0,,,,,0,1,1,2,0,68,68,68,,,,,,,,,,,,,,,,,,,,,,,,,,,,,,,,,,,,,,,,,,,,,CS1_USpos,None,1,,,,,,,,,,,,,,,1,y,2019_Mar_01_1352,ec_RRR,3.0.4,59.99160478
gast,"For this task, the target creature is Grubbin:","So whenever Grubbin (his name or his picture) appears on the screen, hit the spacebar as quickly as possible. Hit the spacebar whenever you see an image of Grubbin or the word GRUBBIN. 

Press the spacebar to start the task",target3,stimuli/t3.jpg,70,stimuli/blank.jpg,blank,FALSE,None,,,,,,,,,,,,,0,0,0,0,,,,,0,1,1,2,0,69,69,69,,,,,,,,,,,,,,,,,,,,,,,,,,,,,,,,,,,,,,,,,,,,,CS1_USpos,None,1,,,,,,,,,,,,,,,1,y,2019_Mar_01_1352,ec_RRR,3.0.4,59.99160478
gast,"For this task, the target creature is Grubbin:","So whenever Grubbin (his name or his picture) appears on the screen, hit the spacebar as quickly as possible. Hit the spacebar whenever you see an image of Grubbin or the word GRUBBIN. 

Press the spacebar to start the task",target3,stimuli/t3.jpg,71,stimuli/cs1_pos12.jpg,CSUS,FALSE,None,,,,,,,,,,,,,0,0,0,0,,,,,0,1,1,2,0,70,70,70,,,,,,,,,,,,,,,,,,,,,,,,,,,,,,,,,,,,,,,,,,,,,CS1_USpos,None,1,,,,,,,,,,,,,,,1,y,2019_Mar_01_1352,ec_RRR,3.0.4,59.99160478
gast,"For this task, the target creature is Grubbin:","So whenever Grubbin (his name or his picture) appears on the screen, hit the spacebar as quickly as possible. Hit the spacebar whenever you see an image of Grubbin or the word GRUBBIN. 

Press the spacebar to start the task",target3,stimuli/t3.jpg,72,stimuli/blank.jpg,blank,FALSE,None,,,,,,,,,,,,,0,0,0,0,,,,,0,1,1,2,0,71,71,71,,,,,,,,,,,,,,,,,,,,,,,,,,,,,,,,,,,,,,,,,,,,,CS1_USpos,None,1,,,,,,,,,,,,,,,1,y,2019_Mar_01_1352,ec_RRR,3.0.4,59.99160478
gast,"For this task, the target creature is Grubbin:","So whenever Grubbin (his name or his picture) appears on the screen, hit the spacebar as quickly as possible. Hit the spacebar whenever you see an image of Grubbin or the word GRUBBIN. 

Press the spacebar to start the task",target3,stimuli/t3.jpg,73,stimuli/filler17.jpg,filler,FALSE,None,,,,,,,,,,,,,0,0,0,0,,,,,0,1,1,2,0,72,72,72,,,,,,,,,,,,,,,,,,,,,,,,,,,,,,,,,,,,,,,,,,,,,CS1_USpos,None,1,,,,,,,,,,,,,,,1,y,2019_Mar_01_1352,ec_RRR,3.0.4,59.99160478
gast,"For this task, the target creature is Grubbin:","So whenever Grubbin (his name or his picture) appears on the screen, hit the spacebar as quickly as possible. Hit the spacebar whenever you see an image of Grubbin or the word GRUBBIN. 

Press the spacebar to start the task",target3,stimuli/t3.jpg,74,stimuli/filler49.jpg,filler,FALSE,None,,,,,,,,,,,,,0,0,0,0,,,,,0,1,1,2,0,73,73,73,,,,,,,,,,,,,,,,,,,,,,,,,,,,,,,,,,,,,,,,,,,,,CS1_USpos,None,1,,,,,,,,,,,,,,,1,y,2019_Mar_01_1352,ec_RRR,3.0.4,59.99160478
gast,"For this task, the target creature is Grubbin:","So whenever Grubbin (his name or his picture) appears on the screen, hit the spacebar as quickly as possible. Hit the spacebar whenever you see an image of Grubbin or the word GRUBBIN. 

Press the spacebar to start the task",target3,stimuli/t3.jpg,75,stimuli/filler42.jpg,filler,FALSE,None,,,,,,,,,,,,,0,0,0,0,,,,,0,1,1,2,0,74,74,74,,,,,,,,,,,,,,,,,,,,,,,,,,,,,,,,,,,,,,,,,,,,,CS1_USpos,None,1,,,,,,,,,,,,,,,1,y,2019_Mar_01_1352,ec_RRR,3.0.4,59.99160478
gast,"For this task, the target creature is Grubbin:","So whenever Grubbin (his name or his picture) appears on the screen, hit the spacebar as quickly as possible. Hit the spacebar whenever you see an image of Grubbin or the word GRUBBIN. 

Press the spacebar to start the task",target3,stimuli/t3.jpg,76,stimuli/filler28.jpg,filler,FALSE,None,,,,,,,,,,,,,0,0,0,0,,,,,0,1,1,2,0,75,75,75,,,,,,,,,,,,,,,,,,,,,,,,,,,,,,,,,,,,,,,,,,,,,CS1_USpos,None,1,,,,,,,,,,,,,,,1,y,2019_Mar_01_1352,ec_RRR,3.0.4,59.99160478
gast,"For this task, the target creature is Grubbin:","So whenever Grubbin (his name or his picture) appears on the screen, hit the spacebar as quickly as possible. Hit the spacebar whenever you see an image of Grubbin or the word GRUBBIN. 

Press the spacebar to start the task",target3,stimuli/t3.jpg,77,stimuli/filler36.jpg,filler,FALSE,None,,,,,,,,,,,,,0,0,0,0,,,,,0,1,1,2,0,76,76,76,,,,,,,,,,,,,,,,,,,,,,,,,,,,,,,,,,,,,,,,,,,,,CS1_USpos,None,1,,,,,,,,,,,,,,,1,y,2019_Mar_01_1352,ec_RRR,3.0.4,59.99160478
gast,"For this task, the target creature is Grubbin:","So whenever Grubbin (his name or his picture) appears on the screen, hit the spacebar as quickly as possible. Hit the spacebar whenever you see an image of Grubbin or the word GRUBBIN. 

Press the spacebar to start the task",target3,stimuli/t3.jpg,78,stimuli/filler14.jpg,filler,FALSE,None,,,,,,,,,,,,,0,0,0,0,,,,,0,1,1,2,0,77,77,77,,,,,,,,,,,,,,,,,,,,,,,,,,,,,,,,,,,,,,,,,,,,,CS1_USpos,None,1,,,,,,,,,,,,,,,1,y,2019_Mar_01_1352,ec_RRR,3.0.4,59.99160478
gast,"For this task, the target creature is Grubbin:","So whenever Grubbin (his name or his picture) appears on the screen, hit the spacebar as quickly as possible. Hit the spacebar whenever you see an image of Grubbin or the word GRUBBIN. 

Press the spacebar to start the task",target3,stimuli/t3.jpg,79,stimuli/filler3.jpg,filler,FALSE,None,,,,,,,,,,,,,0,0,0,0,,,,,0,1,1,2,0,78,78,78,,,,,,,,,,,,,,,,,,,,,,,,,,,,,,,,,,,,,,,,,,,,,CS1_USpos,None,1,,,,,,,,,,,,,,,1,y,2019_Mar_01_1352,ec_RRR,3.0.4,59.99160478
gast,"For this task, the target creature is Grubbin:","So whenever Grubbin (his name or his picture) appears on the screen, hit the spacebar as quickly as possible. Hit the spacebar whenever you see an image of Grubbin or the word GRUBBIN. 

Press the spacebar to start the task",target3,stimuli/t3.jpg,80,stimuli/blank.jpg,blank,FALSE,None,,,,,,,,,,,,,0,0,0,0,,,,,0,1,1,2,0,79,79,79,,,,,,,,,,,,,,,,,,,,,,,,,,,,,,,,,,,,,,,,,,,,,CS1_USpos,None,1,,,,,,,,,,,,,,,1,y,2019_Mar_01_1352,ec_RRR,3.0.4,59.99160478
gast,"For this task, the target creature is Grubbin:","So whenever Grubbin (his name or his picture) appears on the screen, hit the spacebar as quickly as possible. Hit the spacebar whenever you see an image of Grubbin or the word GRUBBIN. 

Press the spacebar to start the task",target3,stimuli/t3.jpg,81,stimuli/cs2_neg10.jpg,CSUS,FALSE,None,,,,,,,,,,,,,0,0,0,0,,,,,0,1,1,2,0,80,80,80,,,,,,,,,,,,,,,,,,,,,,,,,,,,,,,,,,,,,,,,,,,,,CS1_USpos,None,1,,,,,,,,,,,,,,,1,y,2019_Mar_01_1352,ec_RRR,3.0.4,59.99160478
gast,"For this task, the target creature is Grubbin:","So whenever Grubbin (his name or his picture) appears on the screen, hit the spacebar as quickly as possible. Hit the spacebar whenever you see an image of Grubbin or the word GRUBBIN. 

Press the spacebar to start the task",target3,stimuli/t3.jpg,82,stimuli/blank.jpg,blank,FALSE,None,,,,,,,,,,,,,0,0,0,0,,,,,0,1,1,2,0,81,81,81,,,,,,,,,,,,,,,,,,,,,,,,,,,,,,,,,,,,,,,,,,,,,CS1_USpos,None,1,,,,,,,,,,,,,,,1,y,2019_Mar_01_1352,ec_RRR,3.0.4,59.99160478
gast,"For this task, the target creature is Grubbin:","So whenever Grubbin (his name or his picture) appears on the screen, hit the spacebar as quickly as possible. Hit the spacebar whenever you see an image of Grubbin or the word GRUBBIN. 

Press the spacebar to start the task",target3,stimuli/t3.jpg,83,stimuli/filler35.jpg,filler,FALSE,None,,,,,,,,,,,,,0,0,0,0,,,,,0,1,1,2,0,82,82,82,,,,,,,,,,,,,,,,,,,,,,,,,,,,,,,,,,,,,,,,,,,,,CS1_USpos,None,1,,,,,,,,,,,,,,,1,y,2019_Mar_01_1352,ec_RRR,3.0.4,59.99160478
gast,"For this task, the target creature is Grubbin:","So whenever Grubbin (his name or his picture) appears on the screen, hit the spacebar as quickly as possible. Hit the spacebar whenever you see an image of Grubbin or the word GRUBBIN. 

Press the spacebar to start the task",target3,stimuli/t3.jpg,84,stimuli/filler7.jpg,filler,FALSE,None,,,,,,,,,,,,,0,0,0,0,,,,,0,1,1,2,0,83,83,83,,,,,,,,,,,,,,,,,,,,,,,,,,,,,,,,,,,,,,,,,,,,,CS1_USpos,None,1,,,,,,,,,,,,,,,1,y,2019_Mar_01_1352,ec_RRR,3.0.4,59.99160478
gast,"For this task, the target creature is Grubbin:","So whenever Grubbin (his name or his picture) appears on the screen, hit the spacebar as quickly as possible. Hit the spacebar whenever you see an image of Grubbin or the word GRUBBIN. 

Press the spacebar to start the task",target3,stimuli/t3.jpg,85,stimuli/filler29.jpg,filler,FALSE,None,,,,,,,,,,,,,0,0,0,0,,,,,0,1,1,2,0,84,84,84,,,,,,,,,,,,,,,,,,,,,,,,,,,,,,,,,,,,,,,,,,,,,CS1_USpos,None,1,,,,,,,,,,,,,,,1,y,2019_Mar_01_1352,ec_RRR,3.0.4,59.99160478
gast,"For this task, the target creature is Grubbin:","So whenever Grubbin (his name or his picture) appears on the screen, hit the spacebar as quickly as possible. Hit the spacebar whenever you see an image of Grubbin or the word GRUBBIN. 

Press the spacebar to start the task",target3,stimuli/t3.jpg,86,stimuli/filler30.jpg,filler,FALSE,None,,,,,,,,,,,,,0,0,0,0,,,,,0,1,1,2,0,85,85,85,,,,,,,,,,,,,,,,,,,,,,,,,,,,,,,,,,,,,,,,,,,,,CS1_USpos,None,1,,,,,,,,,,,,,,,1,y,2019_Mar_01_1352,ec_RRR,3.0.4,59.99160478
gast,"For this task, the target creature is Magearna:","So whenever Magerana (his name or his picture) appears on the screen, hit the spacebar as quickly as possible. Hit the spacebar whenever you see an image of MAGEARNA or the word MAGERANA. 

Press the spacebar to start the task",target4,stimuli/t4.jpg,1,stimuli/filler45.jpg,filler,FALSE,None,,,,,,,,,,,,,0,0,0,0,,,,,0,2,2,3,0,0,0,0,,,,,,,,,,,,,,,,,,,,,,,,,,,,,,,,,,,,,,,,,,,,,CS1_USpos,None,1,,,,,,,,,,,,,,,1,y,2019_Mar_01_1352,ec_RRR,3.0.4,59.99160478
gast,"For this task, the target creature is Magearna:","So whenever Magerana (his name or his picture) appears on the screen, hit the spacebar as quickly as possible. Hit the spacebar whenever you see an image of MAGEARNA or the word MAGERANA. 

Press the spacebar to start the task",target4,stimuli/t4.jpg,2,stimuli/filler46.jpg,filler,FALSE,None,,,,,,,,,,,,,0,0,0,0,,,,,0,2,2,3,0,1,1,1,,,,,,,,,,,,,,,,,,,,,,,,,,,,,,,,,,,,,,,,,,,,,CS1_USpos,None,1,,,,,,,,,,,,,,,1,y,2019_Mar_01_1352,ec_RRR,3.0.4,59.99160478
gast,"For this task, the target creature is Magearna:","So whenever Magerana (his name or his picture) appears on the screen, hit the spacebar as quickly as possible. Hit the spacebar whenever you see an image of MAGEARNA or the word MAGERANA. 

Press the spacebar to start the task",target4,stimuli/t4.jpg,3,stimuli/filler37.jpg,filler,FALSE,None,,,,,,,,,,,,,0,0,0,0,,,,,0,2,2,3,0,2,2,2,,,,,,,,,,,,,,,,,,,,,,,,,,,,,,,,,,,,,,,,,,,,,CS1_USpos,None,1,,,,,,,,,,,,,,,1,y,2019_Mar_01_1352,ec_RRR,3.0.4,59.99160478
gast,"For this task, the target creature is Magearna:","So whenever Magerana (his name or his picture) appears on the screen, hit the spacebar as quickly as possible. Hit the spacebar whenever you see an image of MAGEARNA or the word MAGERANA. 

Press the spacebar to start the task",target4,stimuli/t4.jpg,4,stimuli/target4_6.jpg,target,TRUE,space,,,,,,,,,,,,,0,0,0,0,,,,,0,2,2,3,0,3,3,3,,,,,,,,,,,,,,,,,,,,,,,,,,,,,,,,,,,,,,,,,,,,,CS1_USpos,None,0,,,,,,,,,,,,,,,1,y,2019_Mar_01_1352,ec_RRR,3.0.4,59.99160478
gast,"For this task, the target creature is Magearna:","So whenever Magerana (his name or his picture) appears on the screen, hit the spacebar as quickly as possible. Hit the spacebar whenever you see an image of MAGEARNA or the word MAGERANA. 

Press the spacebar to start the task",target4,stimuli/t4.jpg,5,stimuli/filler42.jpg,filler,FALSE,None,,,,,,,,,,,,,0,0,0,0,,,,,0,2,2,3,0,4,4,4,,,,,,,,,,,,,,,,,,,,,,,,,,,,,,,,,,,,,,,,,,,,,CS1_USpos,None,1,,,,,,,,,,,,,,,1,y,2019_Mar_01_1352,ec_RRR,3.0.4,59.99160478
gast,"For this task, the target creature is Magearna:","So whenever Magerana (his name or his picture) appears on the screen, hit the spacebar as quickly as possible. Hit the spacebar whenever you see an image of MAGEARNA or the word MAGERANA. 

Press the spacebar to start the task",target4,stimuli/t4.jpg,6,stimuli/filler50.jpg,filler,FALSE,None,,,,,,,,,,,,,0,0,0,0,,,,,0,2,2,3,0,5,5,5,,,,,,,,,,,,,,,,,,,,,,,,,,,,,,,,,,,,,,,,,,,,,CS1_USpos,None,1,,,,,,,,,,,,,,,1,y,2019_Mar_01_1352,ec_RRR,3.0.4,59.99160478
gast,"For this task, the target creature is Magearna:","So whenever Magerana (his name or his picture) appears on the screen, hit the spacebar as quickly as possible. Hit the spacebar whenever you see an image of MAGEARNA or the word MAGERANA. 

Press the spacebar to start the task",target4,stimuli/t4.jpg,7,stimuli/filler52.jpg,filler,FALSE,None,,,,,,,,,,,,,0,0,0,0,,,,,0,2,2,3,0,6,6,6,,,,,,,,,,,,,,,,,,,,,,,,,,,,,,,,,,,,,,,,,,,,,CS1_USpos,None,1,,,,,,,,,,,,,,,1,y,2019_Mar_01_1352,ec_RRR,3.0.4,59.99160478
gast,"For this task, the target creature is Magearna:","So whenever Magerana (his name or his picture) appears on the screen, hit the spacebar as quickly as possible. Hit the spacebar whenever you see an image of MAGEARNA or the word MAGERANA. 

Press the spacebar to start the task",target4,stimuli/t4.jpg,8,stimuli/filler18.jpg,filler,FALSE,None,,,,,,,,,,,,,0,0,0,0,,,,,0,2,2,3,0,7,7,7,,,,,,,,,,,,,,,,,,,,,,,,,,,,,,,,,,,,,,,,,,,,,CS1_USpos,None,1,,,,,,,,,,,,,,,1,y,2019_Mar_01_1352,ec_RRR,3.0.4,59.99160478
gast,"For this task, the target creature is Magearna:","So whenever Magerana (his name or his picture) appears on the screen, hit the spacebar as quickly as possible. Hit the spacebar whenever you see an image of MAGEARNA or the word MAGERANA. 

Press the spacebar to start the task",target4,stimuli/t4.jpg,9,stimuli/filler29.jpg,filler,FALSE,None,,,,,,,,,,,,,0,0,0,0,,,,,0,2,2,3,0,8,8,8,,,,,,,,,,,,,,,,,,,,,,,,,,,,,,,,,,,,,,,,,,,,,CS1_USpos,None,1,,,,,,,,,,,,,,,1,y,2019_Mar_01_1352,ec_RRR,3.0.4,59.99160478
gast,"For this task, the target creature is Magearna:","So whenever Magerana (his name or his picture) appears on the screen, hit the spacebar as quickly as possible. Hit the spacebar whenever you see an image of MAGEARNA or the word MAGERANA. 

Press the spacebar to start the task",target4,stimuli/t4.jpg,10,stimuli/blank.jpg,blank,FALSE,None,,,,,,,,,,,,,0,0,0,0,,,,,0,2,2,3,0,9,9,9,,,,,,,,,,,,,,,,,,,,,,,,,,,,,,,,,,,,,,,,,,,,,CS1_USpos,None,1,,,,,,,,,,,,,,,1,y,2019_Mar_01_1352,ec_RRR,3.0.4,59.99160478
gast,"For this task, the target creature is Magearna:","So whenever Magerana (his name or his picture) appears on the screen, hit the spacebar as quickly as possible. Hit the spacebar whenever you see an image of MAGEARNA or the word MAGERANA. 

Press the spacebar to start the task",target4,stimuli/t4.jpg,11,stimuli/cs1_pos6.jpg,CSUS,FALSE,None,,,,,,,,,,,,,0,0,0,0,,,,,0,2,2,3,0,10,10,10,,,,,,,,,,,,,,,,,,,,,,,,,,,,,,,,,,,,,,,,,,,,,CS1_USpos,None,1,,,,,,,,,,,,,,,1,y,2019_Mar_01_1352,ec_RRR,3.0.4,59.99160478
gast,"For this task, the target creature is Magearna:","So whenever Magerana (his name or his picture) appears on the screen, hit the spacebar as quickly as possible. Hit the spacebar whenever you see an image of MAGEARNA or the word MAGERANA. 

Press the spacebar to start the task",target4,stimuli/t4.jpg,12,stimuli/blank.jpg,blank,FALSE,None,,,,,,,,,,,,,0,0,0,0,,,,,0,2,2,3,0,11,11,11,,,,,,,,,,,,,,,,,,,,,,,,,,,,,,,,,,,,,,,,,,,,,CS1_USpos,None,1,,,,,,,,,,,,,,,1,y,2019_Mar_01_1352,ec_RRR,3.0.4,59.99160478
gast,"For this task, the target creature is Magearna:","So whenever Magerana (his name or his picture) appears on the screen, hit the spacebar as quickly as possible. Hit the spacebar whenever you see an image of MAGEARNA or the word MAGERANA. 

Press the spacebar to start the task",target4,stimuli/t4.jpg,13,stimuli/filler31.jpg,filler,FALSE,None,,,,,,,,,,,,,0,0,0,0,,,,,0,2,2,3,0,12,12,12,,,,,,,,,,,,,,,,,,,,,,,,,,,,,,,,,,,,,,,,,,,,,CS1_USpos,None,1,,,,,,,,,,,,,,,1,y,2019_Mar_01_1352,ec_RRR,3.0.4,59.99160478
gast,"For this task, the target creature is Magearna:","So whenever Magerana (his name or his picture) appears on the screen, hit the spacebar as quickly as possible. Hit the spacebar whenever you see an image of MAGEARNA or the word MAGERANA. 

Press the spacebar to start the task",target4,stimuli/t4.jpg,14,stimuli/filler6.jpg,filler,FALSE,None,,,,,,,,,,,,,0,0,0,0,,,,,0,2,2,3,0,13,13,13,,,,,,,,,,,,,,,,,,,,,,,,,,,,,,,,,,,,,,,,,,,,,CS1_USpos,None,1,,,,,,,,,,,,,,,1,y,2019_Mar_01_1352,ec_RRR,3.0.4,59.99160478
gast,"For this task, the target creature is Magearna:","So whenever Magerana (his name or his picture) appears on the screen, hit the spacebar as quickly as possible. Hit the spacebar whenever you see an image of MAGEARNA or the word MAGERANA. 

Press the spacebar to start the task",target4,stimuli/t4.jpg,15,stimuli/filler16.jpg,filler,FALSE,None,,,,,,,,,,,,,0,0,0,0,,,,,0,2,2,3,0,14,14,14,,,,,,,,,,,,,,,,,,,,,,,,,,,,,,,,,,,,,,,,,,,,,CS1_USpos,None,1,,,,,,,,,,,,,,,1,y,2019_Mar_01_1352,ec_RRR,3.0.4,59.99160478
gast,"For this task, the target creature is Magearna:","So whenever Magerana (his name or his picture) appears on the screen, hit the spacebar as quickly as possible. Hit the spacebar whenever you see an image of MAGEARNA or the word MAGERANA. 

Press the spacebar to start the task",target4,stimuli/t4.jpg,16,stimuli/filler32.jpg,filler,FALSE,None,,,,,,,,,,,,,0,0,0,0,,,,,0,2,2,3,0,15,15,15,,,,,,,,,,,,,,,,,,,,,,,,,,,,,,,,,,,,,,,,,,,,,CS1_USpos,None,1,,,,,,,,,,,,,,,1,y,2019_Mar_01_1352,ec_RRR,3.0.4,59.99160478
gast,"For this task, the target creature is Magearna:","So whenever Magerana (his name or his picture) appears on the screen, hit the spacebar as quickly as possible. Hit the spacebar whenever you see an image of MAGEARNA or the word MAGERANA. 

Press the spacebar to start the task",target4,stimuli/t4.jpg,17,stimuli/target4_4.jpg,target,TRUE,space,,,,,,,,,,,,,0,0,0,0,,,,,0,2,2,3,0,16,16,16,,,,,,,,,,,,,,,,,,,,,,,,,,,,,,,,,,,,,,,,,,,,,CS1_USpos,None,0,,,,,,,,,,,,,,,1,y,2019_Mar_01_1352,ec_RRR,3.0.4,59.99160478
gast,"For this task, the target creature is Magearna:","So whenever Magerana (his name or his picture) appears on the screen, hit the spacebar as quickly as possible. Hit the spacebar whenever you see an image of MAGEARNA or the word MAGERANA. 

Press the spacebar to start the task",target4,stimuli/t4.jpg,18,stimuli/target4_3.jpg,target,TRUE,space,,,,,,,,,,,,,0,0,0,0,,,,,0,2,2,3,0,17,17,17,,,,,,,,,,,,,,,,,,,,,,,,,,,,,,,,,,,,,,,,,,,,,CS1_USpos,None,0,,,,,,,,,,,,,,,1,y,2019_Mar_01_1352,ec_RRR,3.0.4,59.99160478
gast,"For this task, the target creature is Magearna:","So whenever Magerana (his name or his picture) appears on the screen, hit the spacebar as quickly as possible. Hit the spacebar whenever you see an image of MAGEARNA or the word MAGERANA. 

