data_collection_site,instructions_text_top,instructions_text_bottom,block_id,example_image,participant,trial_number,stimulus,trial_type,target_trial,surveillance_correct_response,filler_1_items,filler_2_items,middle_text,left_text,right_text,evaluation_stimulus,left_stimulus,right_stimulus,evaluation_response_indicating_CS1_preferred,awareness_1_question_text,awareness_2a_question_text,awareness_2b_question_text,awareness_2_question_text,record_data_collection_site_variable.thisRepN,record_data_collection_site_variable.thisTrialN,record_data_collection_site_variable.thisN,record_data_collection_site_variable.thisIndex,surveillance_instructions_loop.thisRepN,surveillance_instructions_loop.thisTrialN,surveillance_instructions_loop.thisN,surveillance_instructions_loop.thisIndex,surveillance_blocks_loop.thisRepN,surveillance_blocks_loop.thisTrialN,surveillance_blocks_loop.thisN,surveillance_blocks_loop.thisIndex,surveillance_trials_loop.thisRepN,surveillance_trials_loop.thisTrialN,surveillance_trials_loop.thisN,surveillance_trials_loop.thisIndex,filler_1_instructions_loop.thisRepN,filler_1_instructions_loop.thisTrialN,filler_1_instructions_loop.thisN,filler_1_instructions_loop.thisIndex,filler_1_loop.thisRepN,filler_1_loop.thisTrialN,filler_1_loop.thisN,filler_1_loop.thisIndex,filler_2_instructions_loop.thisRepN,filler_2_instructions_loop.thisTrialN,filler_2_instructions_loop.thisN,filler_2_instructions_loop.thisIndex,filler_2_loop.thisRepN,filler_2_loop.thisTrialN,filler_2_loop.thisN,filler_2_loop.thisIndex,evaluation_instructions_loop.thisRepN,evaluation_instructions_loop.thisTrialN,evaluation_instructions_loop.thisN,evaluation_instructions_loop.thisIndex,evaluation_loop.thisRepN,evaluation_loop.thisTrialN,evaluation_loop.thisN,evaluation_loop.thisIndex,evaluation_trials.thisRepN,evaluation_trials.thisTrialN,evaluation_trials.thisN,evaluation_trials.thisIndex,awareness_instructions_loop.thisRepN,awareness_instructions_loop.thisTrialN,awareness_instructions_loop.thisN,awareness_instructions_loop.thisIndex,awareness_1_trials_loop.thisRepN,awareness_1_trials_loop.thisTrialN,awareness_1_trials_loop.thisN,awareness_1_trials_loop.thisIndex,awareness_2a_trials_loop.thisRepN,awareness_2a_trials_loop.thisTrialN,awareness_2a_trials_loop.thisN,awareness_2a_trials_loop.thisIndex,awareness_2b_trials_loop.thisRepN,awareness_2b_trials_loop.thisTrialN,awareness_2b_trials_loop.thisN,awareness_2b_trials_loop.thisIndex,awareness_2c_trials_loop.thisRepN,awareness_2c_trials_loop.thisTrialN,awareness_2c_trials_loop.thisN,awareness_2c_trials_loop.thisIndex,end_message_loop.thisRepN,end_message_loop.thisTrialN,end_message_loop.thisN,end_message_loop.thisIndex,condition,surveillance_response.keys,surveillance_response.corr,surveillance_response.rt,filler_1_rating.response,filler_1_rating.rt,filler_2_rating.response,filler_2_rating.rt,evaluation_response.keys,evaluation_response.corr,evaluation_response.rt,inputText,awareness_1_response.keys,awareness_1_response.rt,awareness_type_2a_rating.response,awareness_type_2a_rating.rt,awareness_type_2b_rating.response,awareness_type_2b_rating.rt,awareness_type_2c_rating.response,awareness_type_2c_rating.rt,age,gender,participant,UseMonkey,date,expName,psychopyVersion,frameRate,
Gawronski,"For this task, the target creature is Magearna:","So whenever Magerana (his name or his picture) appears on the screen, hit the spacebar as quickly as possible. Hit the spacebar whenever you see an image of MAGEARNA or the word MAGERANA. 

Press the spacebar to start the task",target4,stimuli/t4.jpg,127,1,stimuli/filler33.jpg,filler,False,None,,,,,,,,,,,,,,0,0,0,0,,,,,0,0,0,3,0,0,0,0,,,,,,,,,,,,,,,,,,,,,,,,,,,,,,,,,,,,,,,,,,,,,,,,,,,,,CS1_USneg,None,1,,,,,,,,,,,,,,,,,,20,m,127,n,2019_Nov_20_1114,ec_RRR,3.0.4,59.877819937766084,
Gawronski,"For this task, the target creature is Magearna:","So whenever Magerana (his name or his picture) appears on the screen, hit the spacebar as quickly as possible. Hit the spacebar whenever you see an image of MAGEARNA or the word MAGERANA. 

Press the spacebar to start the task",target4,stimuli/t4.jpg,127,2,stimuli/filler5.jpg,filler,False,None,,,,,,,,,,,,,,0,0,0,0,,,,,0,0,0,3,0,1,1,1,,,,,,,,,,,,,,,,,,,,,,,,,,,,,,,,,,,,,,,,,,,,,,,,,,,,,CS1_USneg,None,1,,,,,,,,,,,,,,,,,,20,m,127,n,2019_Nov_20_1114,ec_RRR,3.0.4,59.877819937766084,
Gawronski,"For this task, the target creature is Magearna:","So whenever Magerana (his name or his picture) appears on the screen, hit the spacebar as quickly as possible. Hit the spacebar whenever you see an image of MAGEARNA or the word MAGERANA. 

Press the spacebar to start the task",target4,stimuli/t4.jpg,127,3,stimuli/filler39.jpg,filler,False,None,,,,,,,,,,,,,,0,0,0,0,,,,,0,0,0,3,0,2,2,2,,,,,,,,,,,,,,,,,,,,,,,,,,,,,,,,,,,,,,,,,,,,,,,,,,,,,CS1_USneg,None,1,,,,,,,,,,,,,,,,,,20,m,127,n,2019_Nov_20_1114,ec_RRR,3.0.4,59.877819937766084,
Gawronski,"For this task, the target creature is Magearna:","So whenever Magerana (his name or his picture) appears on the screen, hit the spacebar as quickly as possible. Hit the spacebar whenever you see an image of MAGEARNA or the word MAGERANA. 

Press the spacebar to start the task",target4,stimuli/t4.jpg,127,4,stimuli/target4_2.jpg,target,True,space,,,,,,,,,,,,,,0,0,0,0,,,,,0,0,0,3,0,3,3,3,,,,,,,,,,,,,,,,,,,,,,,,,,,,,,,,,,,,,,,,,,,,,,,,,,,,,CS1_USneg,space,1,0.8167757021001307,,,,,,,,,,,,,,,,,20,m,127,n,2019_Nov_20_1114,ec_RRR,3.0.4,59.877819937766084,
Gawronski,"For this task, the target creature is Magearna:","So whenever Magerana (his name or his picture) appears on the screen, hit the spacebar as quickly as possible. Hit the spacebar whenever you see an image of MAGEARNA or the word MAGERANA. 

Press the spacebar to start the task",target4,stimuli/t4.jpg,127,5,stimuli/filler43.jpg,filler,False,None,,,,,,,,,,,,,,0,0,0,0,,,,,0,0,0,3,0,4,4,4,,,,,,,,,,,,,,,,,,,,,,,,,,,,,,,,,,,,,,,,,,,,,,,,,,,,,CS1_USneg,None,1,,,,,,,,,,,,,,,,,,20,m,127,n,2019_Nov_20_1114,ec_RRR,3.0.4,59.877819937766084,
Gawronski,"For this task, the target creature is Magearna:","So whenever Magerana (his name or his picture) appears on the screen, hit the spacebar as quickly as possible. Hit the spacebar whenever you see an image of MAGEARNA or the word MAGERANA. 

Press the spacebar to start the task",target4,stimuli/t4.jpg,127,6,stimuli/filler27.jpg,filler,False,None,,,,,,,,,,,,,,0,0,0,0,,,,,0,0,0,3,0,5,5,5,,,,,,,,,,,,,,,,,,,,,,,,,,,,,,,,,,,,,,,,,,,,,,,,,,,,,CS1_USneg,None,1,,,,,,,,,,,,,,,,,,20,m,127,n,2019_Nov_20_1114,ec_RRR,3.0.4,59.877819937766084,
Gawronski,"For this task, the target creature is Magearna:","So whenever Magerana (his name or his picture) appears on the screen, hit the spacebar as quickly as possible. Hit the spacebar whenever you see an image of MAGEARNA or the word MAGERANA. 

Press the spacebar to start the task",target4,stimuli/t4.jpg,127,7,stimuli/filler35.jpg,filler,False,None,,,,,,,,,,,,,,0,0,0,0,,,,,0,0,0,3,0,6,6,6,,,,,,,,,,,,,,,,,,,,,,,,,,,,,,,,,,,,,,,,,,,,,,,,,,,,,CS1_USneg,None,1,,,,,,,,,,,,,,,,,,20,m,127,n,2019_Nov_20_1114,ec_RRR,3.0.4,59.877819937766084,
Gawronski,"For this task, the target creature is Magearna:","So whenever Magerana (his name or his picture) appears on the screen, hit the spacebar as quickly as possible. Hit the spacebar whenever you see an image of MAGEARNA or the word MAGERANA. 

Press the spacebar to start the task",target4,stimuli/t4.jpg,127,8,stimuli/filler26.jpg,filler,False,None,,,,,,,,,,,,,,0,0,0,0,,,,,0,0,0,3,0,7,7,7,,,,,,,,,,,,,,,,,,,,,,,,,,,,,,,,,,,,,,,,,,,,,,,,,,,,,CS1_USneg,None,1,,,,,,,,,,,,,,,,,,20,m,127,n,2019_Nov_20_1114,ec_RRR,3.0.4,59.877819937766084,
Gawronski,"For this task, the target creature is Magearna:","So whenever Magerana (his name or his picture) appears on the screen, hit the spacebar as quickly as possible. Hit the spacebar whenever you see an image of MAGEARNA or the word MAGERANA. 

Press the spacebar to start the task",target4,stimuli/t4.jpg,127,9,stimuli/filler19.jpg,filler,False,None,,,,,,,,,,,,,,0,0,0,0,,,,,0,0,0,3,0,8,8,8,,,,,,,,,,,,,,,,,,,,,,,,,,,,,,,,,,,,,,,,,,,,,,,,,,,,,CS1_USneg,None,1,,,,,,,,,,,,,,,,,,20,m,127,n,2019_Nov_20_1114,ec_RRR,3.0.4,59.877819937766084,
Gawronski,"For this task, the target creature is Magearna:","So whenever Magerana (his name or his picture) appears on the screen, hit the spacebar as quickly as possible. Hit the spacebar whenever you see an image of MAGEARNA or the word MAGERANA. 

Press the spacebar to start the task",target4,stimuli/t4.jpg,127,10,stimuli/blank.jpg,blank,False,None,,,,,,,,,,,,,,0,0,0,0,,,,,0,0,0,3,0,9,9,9,,,,,,,,,,,,,,,,,,,,,,,,,,,,,,,,,,,,,,,,,,,,,,,,,,,,,CS1_USneg,None,1,,,,,,,,,,,,,,,,,,20,m,127,n,2019_Nov_20_1114,ec_RRR,3.0.4,59.877819937766084,
Gawronski,"For this task, the target creature is Magearna:","So whenever Magerana (his name or his picture) appears on the screen, hit the spacebar as quickly as possible. Hit the spacebar whenever you see an image of MAGEARNA or the word MAGERANA. 

Press the spacebar to start the task",target4,stimuli/t4.jpg,127,11,stimuli/cs1_neg13.jpg,CSUS,False,None,,,,,,,,,,,,,,0,0,0,0,,,,,0,0,0,3,0,10,10,10,,,,,,,,,,,,,,,,,,,,,,,,,,,,,,,,,,,,,,,,,,,,,,,,,,,,,CS1_USneg,None,1,,,,,,,,,,,,,,,,,,20,m,127,n,2019_Nov_20_1114,ec_RRR,3.0.4,59.877819937766084,
Gawronski,"For this task, the target creature is Magearna:","So whenever Magerana (his name or his picture) appears on the screen, hit the spacebar as quickly as possible. Hit the spacebar whenever you see an image of MAGEARNA or the word MAGERANA. 

Press the spacebar to start the task",target4,stimuli/t4.jpg,127,12,stimuli/blank.jpg,blank,False,None,,,,,,,,,,,,,,0,0,0,0,,,,,0,0,0,3,0,11,11,11,,,,,,,,,,,,,,,,,,,,,,,,,,,,,,,,,,,,,,,,,,,,,,,,,,,,,CS1_USneg,None,1,,,,,,,,,,,,,,,,,,20,m,127,n,2019_Nov_20_1114,ec_RRR,3.0.4,59.877819937766084,
Gawronski,"For this task, the target creature is Magearna:","So whenever Magerana (his name or his picture) appears on the screen, hit the spacebar as quickly as possible. Hit the spacebar whenever you see an image of MAGEARNA or the word MAGERANA. 

Press the spacebar to start the task",target4,stimuli/t4.jpg,127,13,stimuli/filler4.jpg,filler,False,None,,,,,,,,,,,,,,0,0,0,0,,,,,0,0,0,3,0,12,12,12,,,,,,,,,,,,,,,,,,,,,,,,,,,,,,,,,,,,,,,,,,,,,,,,,,,,,CS1_USneg,None,1,,,,,,,,,,,,,,,,,,20,m,127,n,2019_Nov_20_1114,ec_RRR,3.0.4,59.877819937766084,
Gawronski,"For this task, the target creature is Magearna:","So whenever Magerana (his name or his picture) appears on the screen, hit the spacebar as quickly as possible. Hit the spacebar whenever you see an image of MAGEARNA or the word MAGERANA. 

Press the spacebar to start the task",target4,stimuli/t4.jpg,127,14,stimuli/filler49.jpg,filler,False,None,,,,,,,,,,,,,,0,0,0,0,,,,,0,0,0,3,0,13,13,13,,,,,,,,,,,,,,,,,,,,,,,,,,,,,,,,,,,,,,,,,,,,,,,,,,,,,CS1_USneg,None,1,,,,,,,,,,,,,,,,,,20,m,127,n,2019_Nov_20_1114,ec_RRR,3.0.4,59.877819937766084,
Gawronski,"For this task, the target creature is Magearna:","So whenever Magerana (his name or his picture) appears on the screen, hit the spacebar as quickly as possible. Hit the spacebar whenever you see an image of MAGEARNA or the word MAGERANA. 

Press the spacebar to start the task",target4,stimuli/t4.jpg,127,15,stimuli/filler48.jpg,filler,False,None,,,,,,,,,,,,,,0,0,0,0,,,,,0,0,0,3,0,14,14,14,,,,,,,,,,,,,,,,,,,,,,,,,,,,,,,,,,,,,,,,,,,,,,,,,,,,,CS1_USneg,None,1,,,,,,,,,,,,,,,,,,20,m,127,n,2019_Nov_20_1114,ec_RRR,3.0.4,59.877819937766084,
Gawronski,"For this task, the target creature is Magearna:","So whenever Magerana (his name or his picture) appears on the screen, hit the spacebar as quickly as possible. Hit the spacebar whenever you see an image of MAGEARNA or the word MAGERANA. 

Press the spacebar to start the task",target4,stimuli/t4.jpg,127,16,stimuli/filler11.jpg,filler,False,None,,,,,,,,,,,,,,0,0,0,0,,,,,0,0,0,3,0,15,15,15,,,,,,,,,,,,,,,,,,,,,,,,,,,,,,,,,,,,,,,,,,,,,,,,,,,,,CS1_USneg,None,1,,,,,,,,,,,,,,,,,,20,m,127,n,2019_Nov_20_1114,ec_RRR,3.0.4,59.877819937766084,
Gawronski,"For this task, the target creature is Magearna:","So whenever Magerana (his name or his picture) appears on the screen, hit the spacebar as quickly as possible. Hit the spacebar whenever you see an image of MAGEARNA or the word MAGERANA. 

Press the spacebar to start the task",target4,stimuli/t4.jpg,127,17,stimuli/filler2.jpg,filler,False,None,,,,,,,,,,,,,,0,0,0,0,,,,,0,0,0,3,0,16,16,16,,,,,,,,,,,,,,,,,,,,,,,,,,,,,,,,,,,,,,,,,,,,,,,,,,,,,CS1_USneg,None,1,,,,,,,,,,,,,,,,,,20,m,127,n,2019_Nov_20_1114,ec_RRR,3.0.4,59.877819937766084,
Gawronski,"For this task, the target creature is Magearna:","So whenever Magerana (his name or his picture) appears on the screen, hit the spacebar as quickly as possible. Hit the spacebar whenever you see an image of MAGEARNA or the word MAGERANA. 

Press the spacebar to start the task",target4,stimuli/t4.jpg,127,18,stimuli/filler3.jpg,filler,False,None,,,,,,,,,,,,,,0,0,0,0,,,,,0,0,0,3,0,17,17,17,,,,,,,,,,,,,,,,,,,,,,,,,,,,,,,,,,,,,,,,,,,,,,,,,,,,,CS1_USneg,None,1,,,,,,,,,,,,,,,,,,20,m,127,n,2019_Nov_20_1114,ec_RRR,3.0.4,59.877819937766084,
Gawronski,"For this task, the target creature is Magearna:","So whenever Magerana (his name or his picture) appears on the screen, hit the spacebar as quickly as possible. Hit the spacebar whenever you see an image of MAGEARNA or the word MAGERANA. 

Press the spacebar to start the task",target4,stimuli/t4.jpg,127,19,stimuli/target4_5.jpg,target,True,space,,,,,,,,,,,,,,0,0,0,0,,,,,0,0,0,3,0,18,18,18,,,,,,,,,,,,,,,,,,,,,,,,,,,,,,,,,,,,,,,,,,,,,,,,,,,,,CS1_USneg,space,1,0.9833308444431168,,,,,,,,,,,,,,,,,20,m,127,n,2019_Nov_20_1114,ec_RRR,3.0.4,59.877819937766084,
Gawronski,"For this task, the target creature is Magearna:","So whenever Magerana (his name or his picture) appears on the screen, hit the spacebar as quickly as possible. Hit the spacebar whenever you see an image of MAGEARNA or the word MAGERANA. 

Press the spacebar to start the task",target4,stimuli/t4.jpg,127,20,stimuli/blank.jpg,blank,False,None,,,,,,,,,,,,,,0,0,0,0,,,,,0,0,0,3,0,19,19,19,,,,,,,,,,,,,,,,,,,,,,,,,,,,,,,,,,,,,,,,,,,,,,,,,,,,,CS1_USneg,None,1,,,,,,,,,,,,,,,,,,20,m,127,n,2019_Nov_20_1114,ec_RRR,3.0.4,59.877819937766084,
Gawronski,"For this task, the target creature is Magearna:","So whenever Magerana (his name or his picture) appears on the screen, hit the spacebar as quickly as possible. Hit the spacebar whenever you see an image of MAGEARNA or the word MAGERANA. 

Press the spacebar to start the task",target4,stimuli/t4.jpg,127,21,stimuli/cs2_pos7.jpg,CSUS,False,None,,,,,,,,,,,,,,0,0,0,0,,,,,0,0,0,3,0,20,20,20,,,,,,,,,,,,,,,,,,,,,,,,,,,,,,,,,,,,,,,,,,,,,,,,,,,,,CS1_USneg,None,1,,,,,,,,,,,,,,,,,,20,m,127,n,2019_Nov_20_1114,ec_RRR,3.0.4,59.877819937766084,
Gawronski,"For this task, the target creature is Magearna:","So whenever Magerana (his name or his picture) appears on the screen, hit the spacebar as quickly as possible. Hit the spacebar whenever you see an image of MAGEARNA or the word MAGERANA. 

Press the spacebar to start the task",target4,stimuli/t4.jpg,127,22,stimuli/blank.jpg,blank,False,None,,,,,,,,,,,,,,0,0,0,0,,,,,0,0,0,3,0,21,21,21,,,,,,,,,,,,,,,,,,,,,,,,,,,,,,,,,,,,,,,,,,,,,,,,,,,,,CS1_USneg,None,1,,,,,,,,,,,,,,,,,,20,m,127,n,2019_Nov_20_1114,ec_RRR,3.0.4,59.877819937766084,
Gawronski,"For this task, the target creature is Magearna:","So whenever Magerana (his name or his picture) appears on the screen, hit the spacebar as quickly as possible. Hit the spacebar whenever you see an image of MAGEARNA or the word MAGERANA. 

Press the spacebar to start the task",target4,stimuli/t4.jpg,127,23,stimuli/target4_1.jpg,target,True,space,,,,,,,,,,,,,,0,0,0,0,,,,,0,0,0,3,0,22,22,22,,,,,,,,,,,,,,,,,,,,,,,,,,,,,,,,,,,,,,,,,,,,,,,,,,,,,CS1_USneg,space,1,0.668157396830793,,,,,,,,,,,,,,,,,20,m,127,n,2019_Nov_20_1114,ec_RRR,3.0.4,59.877819937766084,
Gawronski,"For this task, the target creature is Magearna:","So whenever Magerana (his name or his picture) appears on the screen, hit the spacebar as quickly as possible. Hit the spacebar whenever you see an image of MAGEARNA or the word MAGERANA. 

Press the spacebar to start the task",target4,stimuli/t4.jpg,127,24,stimuli/filler51.jpg,filler,False,None,,,,,,,,,,,,,,0,0,0,0,,,,,0,0,0,3,0,23,23,23,,,,,,,,,,,,,,,,,,,,,,,,,,,,,,,,,,,,,,,,,,,,,,,,,,,,,CS1_USneg,None,1,,,,,,,,,,,,,,,,,,20,m,127,n,2019_Nov_20_1114,ec_RRR,3.0.4,59.877819937766084,
Gawronski,"For this task, the target creature is Magearna:","So whenever Magerana (his name or his picture) appears on the screen, hit the spacebar as quickly as possible. Hit the spacebar whenever you see an image of MAGEARNA or the word MAGERANA. 

Press the spacebar to start the task",target4,stimuli/t4.jpg,127,25,stimuli/filler34.jpg,filler,False,None,,,,,,,,,,,,,,0,0,0,0,,,,,0,0,0,3,0,24,24,24,,,,,,,,,,,,,,,,,,,,,,,,,,,,,,,,,,,,,,,,,,,,,,,,,,,,,CS1_USneg,None,1,,,,,,,,,,,,,,,,,,20,m,127,n,2019_Nov_20_1114,ec_RRR,3.0.4,59.877819937766084,
Gawronski,"For this task, the target creature is Magearna:","So whenever Magerana (his name or his picture) appears on the screen, hit the spacebar as quickly as possible. Hit the spacebar whenever you see an image of MAGEARNA or the word MAGERANA. 

Press the spacebar to start the task",target4,stimuli/t4.jpg,127,26,stimuli/filler46.jpg,filler,False,None,,,,,,,,,,,,,,0,0,0,0,,,,,0,0,0,3,0,25,25,25,,,,,,,,,,,,,,,,,,,,,,,,,,,,,,,,,,,,,,,,,,,,,,,,,,,,,CS1_USneg,None,1,,,,,,,,,,,,,,,,,,20,m,127,n,2019_Nov_20_1114,ec_RRR,3.0.4,59.877819937766084,
Gawronski,"For this task, the target creature is Magearna:","So whenever Magerana (his name or his picture) appears on the screen, hit the spacebar as quickly as possible. Hit the spacebar whenever you see an image of MAGEARNA or the word MAGERANA. 

Press the spacebar to start the task",target4,stimuli/t4.jpg,127,27,stimuli/filler37.jpg,filler,False,None,,,,,,,,,,,,,,0,0,0,0,,,,,0,0,0,3,0,26,26,26,,,,,,,,,,,,,,,,,,,,,,,,,,,,,,,,,,,,,,,,,,,,,,,,,,,,,CS1_USneg,None,1,,,,,,,,,,,,,,,,,,20,m,127,n,2019_Nov_20_1114,ec_RRR,3.0.4,59.877819937766084,
Gawronski,"For this task, the target creature is Magearna:","So whenever Magerana (his name or his picture) appears on the screen, hit the spacebar as quickly as possible. Hit the spacebar whenever you see an image of MAGEARNA or the word MAGERANA. 

Press the spacebar to start the task",target4,stimuli/t4.jpg,127,28,stimuli/target4_9.jpg,target,True,space,,,,,,,,,,,,,,0,0,0,0,,,,,0,0,0,3,0,27,27,27,,,,,,,,,,,,,,,,,,,,,,,,,,,,,,,,,,,,,,,,,,,,,,,,,,,,,CS1_USneg,space,1,0.8676896857505199,,,,,,,,,,,,,,,,,20,m,127,n,2019_Nov_20_1114,ec_RRR,3.0.4,59.877819937766084,
Gawronski,"For this task, the target creature is Magearna:","So whenever Magerana (his name or his picture) appears on the screen, hit the spacebar as quickly as possible. Hit the spacebar whenever you see an image of MAGEARNA or the word MAGERANA. 

Press the spacebar to start the task",target4,stimuli/t4.jpg,127,29,stimuli/filler13.jpg,filler,False,None,,,,,,,,,,,,,,0,0,0,0,,,,,0,0,0,3,0,28,28,28,,,,,,,,,,,,,,,,,,,,,,,,,,,,,,,,,,,,,,,,,,,,,,,,,,,,,CS1_USneg,None,1,,,,,,,,,,,,,,,,,,20,m,127,n,2019_Nov_20_1114,ec_RRR,3.0.4,59.877819937766084,
Gawronski,"For this task, the target creature is Magearna:","So whenever Magerana (his name or his picture) appears on the screen, hit the spacebar as quickly as possible. Hit the spacebar whenever you see an image of MAGEARNA or the word MAGERANA. 

Press the spacebar to start the task",target4,stimuli/t4.jpg,127,30,stimuli/blank.jpg,blank,False,None,,,,,,,,,,,,,,0,0,0,0,,,,,0,0,0,3,0,29,29,29,,,,,,,,,,,,,,,,,,,,,,,,,,,,,,,,,,,,,,,,,,,,,,,,,,,,,CS1_USneg,None,1,,,,,,,,,,,,,,,,,,20,m,127,n,2019_Nov_20_1114,ec_RRR,3.0.4,59.877819937766084,
Gawronski,"For this task, the target creature is Magearna:","So whenever Magerana (his name or his picture) appears on the screen, hit the spacebar as quickly as possible. Hit the spacebar whenever you see an image of MAGEARNA or the word MAGERANA. 

Press the spacebar to start the task",target4,stimuli/t4.jpg,127,31,stimuli/cs1_neg17.jpg,CSUS,False,None,,,,,,,,,,,,,,0,0,0,0,,,,,0,0,0,3,0,30,30,30,,,,,,,,,,,,,,,,,,,,,,,,,,,,,,,,,,,,,,,,,,,,,,,,,,,,,CS1_USneg,None,1,,,,,,,,,,,,,,,,,,20,m,127,n,2019_Nov_20_1114,ec_RRR,3.0.4,59.877819937766084,
Gawronski,"For this task, the target creature is Magearna:","So whenever Magerana (his name or his picture) appears on the screen, hit the spacebar as quickly as possible. Hit the spacebar whenever you see an image of MAGEARNA or the word MAGERANA. 

Press the spacebar to start the task",target4,stimuli/t4.jpg,127,32,stimuli/blank.jpg,blank,False,None,,,,,,,,,,,,,,0,0,0,0,,,,,0,0,0,3,0,31,31,31,,,,,,,,,,,,,,,,,,,,,,,,,,,,,,,,,,,,,,,,,,,,,,,,,,,,,CS1_USneg,None,1,,,,,,,,,,,,,,,,,,20,m,127,n,2019_Nov_20_1114,ec_RRR,3.0.4,59.877819937766084,
Gawronski,"For this task, the target creature is Magearna:","So whenever Magerana (his name or his picture) appears on the screen, hit the spacebar as quickly as possible. Hit the spacebar whenever you see an image of MAGEARNA or the word MAGERANA. 

Press the spacebar to start the task",target4,stimuli/t4.jpg,127,33,stimuli/filler44.jpg,filler,False,None,,,,,,,,,,,,,,0,0,0,0,,,,,0,0,0,3,0,32,32,32,,,,,,,,,,,,,,,,,,,,,,,,,,,,,,,,,,,,,,,,,,,,,,,,,,,,,CS1_USneg,None,1,,,,,,,,,,,,,,,,,,20,m,127,n,2019_Nov_20_1114,ec_RRR,3.0.4,59.877819937766084,
Gawronski,"For this task, the target creature is Magearna:","So whenever Magerana (his name or his picture) appears on the screen, hit the spacebar as quickly as possible. Hit the spacebar whenever you see an image of MAGEARNA or the word MAGERANA. 

Press the spacebar to start the task",target4,stimuli/t4.jpg,127,34,stimuli/filler38.jpg,filler,False,None,,,,,,,,,,,,,,0,0,0,0,,,,,0,0,0,3,0,33,33,33,,,,,,,,,,,,,,,,,,,,,,,,,,,,,,,,,,,,,,,,,,,,,,,,,,,,,CS1_USneg,None,1,,,,,,,,,,,,,,,,,,20,m,127,n,2019_Nov_20_1114,ec_RRR,3.0.4,59.877819937766084,
Gawronski,"For this task, the target creature is Magearna:","So whenever Magerana (his name or his picture) appears on the screen, hit the spacebar as quickly as possible. Hit the spacebar whenever you see an image of MAGEARNA or the word MAGERANA. 

Press the spacebar to start the task",target4,stimuli/t4.jpg,127,35,stimuli/target4_10.jpg,target,True,space,,,,,,,,,,,,,,0,0,0,0,,,,,0,0,0,3,0,34,34,34,,,,,,,,,,,,,,,,,,,,,,,,,,,,,,,,,,,,,,,,,,,,,,,,,,,,,CS1_USneg,space,1,0.634143629904429,,,,,,,,,,,,,,,,,20,m,127,n,2019_Nov_20_1114,ec_RRR,3.0.4,59.877819937766084,
Gawronski,"For this task, the target creature is Magearna:","So whenever Magerana (his name or his picture) appears on the screen, hit the spacebar as quickly as possible. Hit the spacebar whenever you see an image of MAGEARNA or the word MAGERANA. 

Press the spacebar to start the task",target4,stimuli/t4.jpg,127,36,stimuli/filler6.jpg,filler,False,None,,,,,,,,,,,,,,0,0,0,0,,,,,0,0,0,3,0,35,35,35,,,,,,,,,,,,,,,,,,,,,,,,,,,,,,,,,,,,,,,,,,,,,,,,,,,,,CS1_USneg,None,1,,,,,,,,,,,,,,,,,,20,m,127,n,2019_Nov_20_1114,ec_RRR,3.0.4,59.877819937766084,
Gawronski,"For this task, the target creature is Magearna:","So whenever Magerana (his name or his picture) appears on the screen, hit the spacebar as quickly as possible. Hit the spacebar whenever you see an image of MAGEARNA or the word MAGERANA. 

Press the spacebar to start the task",target4,stimuli/t4.jpg,127,37,stimuli/target4_7.jpg,target,True,space,,,,,,,,,,,,,,0,0,0,0,,,,,0,0,0,3,0,36,36,36,,,,,,,,,,,,,,,,,,,,,,,,,,,,,,,,,,,,,,,,,,,,,,,,,,,,,CS1_USneg,space,1,0.786486557139142,,,,,,,,,,,,,,,,,20,m,127,n,2019_Nov_20_1114,ec_RRR,3.0.4,59.877819937766084,
Gawronski,"For this task, the target creature is Magearna:","So whenever Magerana (his name or his picture) appears on the screen, hit the spacebar as quickly as possible. Hit the spacebar whenever you see an image of MAGEARNA or the word MAGERANA. 

Press the spacebar to start the task",target4,stimuli/t4.jpg,127,38,stimuli/filler45.jpg,filler,False,None,,,,,,,,,,,,,,0,0,0,0,,,,,0,0,0,3,0,37,37,37,,,,,,,,,,,,,,,,,,,,,,,,,,,,,,,,,,,,,,,,,,,,,,,,,,,,,CS1_USneg,None,1,,,,,,,,,,,,,,,,,,20,m,127,n,2019_Nov_20_1114,ec_RRR,3.0.4,59.877819937766084,
Gawronski,"For this task, the target creature is Magearna:","So whenever Magerana (his name or his picture) appears on the screen, hit the spacebar as quickly as possible. Hit the spacebar whenever you see an image of MAGEARNA or the word MAGERANA. 

Press the spacebar to start the task",target4,stimuli/t4.jpg,127,39,stimuli/filler10.jpg,filler,False,None,,,,,,,,,,,,,,0,0,0,0,,,,,0,0,0,3,0,38,38,38,,,,,,,,,,,,,,,,,,,,,,,,,,,,,,,,,,,,,,,,,,,,,,,,,,,,,CS1_USneg,None,1,,,,,,,,,,,,,,,,,,20,m,127,n,2019_Nov_20_1114,ec_RRR,3.0.4,59.877819937766084,
Gawronski,"For this task, the target creature is Magearna:","So whenever Magerana (his name or his picture) appears on the screen, hit the spacebar as quickly as possible. Hit the spacebar whenever you see an image of MAGEARNA or the word MAGERANA. 

Press the spacebar to start the task",target4,stimuli/t4.jpg,127,40,stimuli/blank.jpg,blank,False,None,,,,,,,,,,,,,,0,0,0,0,,,,,0,0,0,3,0,39,39,39,,,,,,,,,,,,,,,,,,,,,,,,,,,,,,,,,,,,,,,,,,,,,,,,,,,,,CS1_USneg,None,1,,,,,,,,,,,,,,,,,,20,m,127,n,2019_Nov_20_1114,ec_RRR,3.0.4,59.877819937766084,
Gawronski,"For this task, the target creature is Magearna:","So whenever Magerana (his name or his picture) appears on the screen, hit the spacebar as quickly as possible. Hit the spacebar whenever you see an image of MAGEARNA or the word MAGERANA. 

Press the spacebar to start the task",target4,stimuli/t4.jpg,127,41,stimuli/cs2_pos11.jpg,CSUS,False,None,,,,,,,,,,,,,,0,0,0,0,,,,,0,0,0,3,0,40,40,40,,,,,,,,,,,,,,,,,,,,,,,,,,,,,,,,,,,,,,,,,,,,,,,,,,,,,CS1_USneg,None,1,,,,,,,,,,,,,,,,,,20,m,127,n,2019_Nov_20_1114,ec_RRR,3.0.4,59.877819937766084,
Gawronski,"For this task, the target creature is Magearna:","So whenever Magerana (his name or his picture) appears on the screen, hit the spacebar as quickly as possible. Hit the spacebar whenever you see an image of MAGEARNA or the word MAGERANA. 

Press the spacebar to start the task",target4,stimuli/t4.jpg,127,42,stimuli/blank.jpg,blank,False,None,,,,,,,,,,,,,,0,0,0,0,,,,,0,0,0,3,0,41,41,41,,,,,,,,,,,,,,,,,,,,,,,,,,,,,,,,,,,,,,,,,,,,,,,,,,,,,CS1_USneg,None,1,,,,,,,,,,,,,,,,,,20,m,127,n,2019_Nov_20_1114,ec_RRR,3.0.4,59.877819937766084,
Gawronski,"For this task, the target creature is Magearna:","So whenever Magerana (his name or his picture) appears on the screen, hit the spacebar as quickly as possible. Hit the spacebar whenever you see an image of MAGEARNA or the word MAGERANA. 

Press the spacebar to start the task",target4,stimuli/t4.jpg,127,43,stimuli/filler31.jpg,filler,False,None,,,,,,,,,,,,,,0,0,0,0,,,,,0,0,0,3,0,42,42,42,,,,,,,,,,,,,,,,,,,,,,,,,,,,,,,,,,,,,,,,,,,,,,,,,,,,,CS1_USneg,None,1,,,,,,,,,,,,,,,,,,20,m,127,n,2019_Nov_20_1114,ec_RRR,3.0.4,59.877819937766084,
Gawronski,"For this task, the target creature is Magearna:","So whenever Magerana (his name or his picture) appears on the screen, hit the spacebar as quickly as possible. Hit the spacebar whenever you see an image of MAGEARNA or the word MAGERANA. 

Press the spacebar to start the task",target4,stimuli/t4.jpg,127,44,stimuli/filler20.jpg,filler,False,None,,,,,,,,,,,,,,0,0,0,0,,,,,0,0,0,3,0,43,43,43,,,,,,,,,,,,,,,,,,,,,,,,,,,,,,,,,,,,,,,,,,,,,,,,,,,,,CS1_USneg,None,1,,,,,,,,,,,,,,,,,,20,m,127,n,2019_Nov_20_1114,ec_RRR,3.0.4,59.877819937766084,
Gawronski,"For this task, the target creature is Magearna:","So whenever Magerana (his name or his picture) appears on the screen, hit the spacebar as quickly as possible. Hit the spacebar whenever you see an image of MAGEARNA or the word MAGERANA. 

Press the spacebar to start the task",target4,stimuli/t4.jpg,127,45,stimuli/filler9.jpg,filler,False,None,,,,,,,,,,,,,,0,0,0,0,,,,,0,0,0,3,0,44,44,44,,,,,,,,,,,,,,,,,,,,,,,,,,,,,,,,,,,,,,,,,,,,,,,,,,,,,CS1_USneg,None,1,,,,,,,,,,,,,,,,,,20,m,127,n,2019_Nov_20_1114,ec_RRR,3.0.4,59.877819937766084,
Gawronski,"For this task, the target creature is Magearna:","So whenever Magerana (his name or his picture) appears on the screen, hit the spacebar as quickly as possible. Hit the spacebar whenever you see an image of MAGEARNA or the word MAGERANA. 

Press the spacebar to start the task",target4,stimuli/t4.jpg,127,46,stimuli/filler12.jpg,filler,False,None,,,,,,,,,,,,,,0,0,0,0,,,,,0,0,0,3,0,45,45,45,,,,,,,,,,,,,,,,,,,,,,,,,,,,,,,,,,,,,,,,,,,,,,,,,,,,,CS1_USneg,None,1,,,,,,,,,,,,,,,,,,20,m,127,n,2019_Nov_20_1114,ec_RRR,3.0.4,59.877819937766084,
Gawronski,"For this task, the target creature is Magearna:","So whenever Magerana (his name or his picture) appears on the screen, hit the spacebar as quickly as possible. Hit the spacebar whenever you see an image of MAGEARNA or the word MAGERANA. 

Press the spacebar to start the task",target4,stimuli/t4.jpg,127,47,stimuli/filler18.jpg,filler,False,None,,,,,,,,,,,,,,0,0,0,0,,,,,0,0,0,3,0,46,46,46,,,,,,,,,,,,,,,,,,,,,,,,,,,,,,,,,,,,,,,,,,,,,,,,,,,,,CS1_USneg,None,1,,,,,,,,,,,,,,,,,,20,m,127,n,2019_Nov_20_1114,ec_RRR,3.0.4,59.877819937766084,
Gawronski,"For this task, the target creature is Magearna:","So whenever Magerana (his name or his picture) appears on the screen, hit the spacebar as quickly as possible. Hit the spacebar whenever you see an image of MAGEARNA or the word MAGERANA. 

Press the spacebar to start the task",target4,stimuli/t4.jpg,127,48,stimuli/filler21.jpg,filler,False,None,,,,,,,,,,,,,,0,0,0,0,,,,,0,0,0,3,0,47,47,47,,,,,,,,,,,,,,,,,,,,,,,,,,,,,,,,,,,,,,,,,,,,,,,,,,,,,CS1_USneg,None,1,,,,,,,,,,,,,,,,,,20,m,127,n,2019_Nov_20_1114,ec_RRR,3.0.4,59.877819937766084,
Gawronski,"For this task, the target creature is Magearna:","So whenever Magerana (his name or his picture) appears on the screen, hit the spacebar as quickly as possible. Hit the spacebar whenever you see an image of MAGEARNA or the word MAGERANA. 

Press the spacebar to start the task",target4,stimuli/t4.jpg,127,49,stimuli/filler36.jpg,filler,False,None,,,,,,,,,,,,,,0,0,0,0,,,,,0,0,0,3,0,48,48,48,,,,,,,,,,,,,,,,,,,,,,,,,,,,,,,,,,,,,,,,,,,,,,,,,,,,,CS1_USneg,None,1,,,,,,,,,,,,,,,,,,20,m,127,n,2019_Nov_20_1114,ec_RRR,3.0.4,59.877819937766084,
Gawronski,"For this task, the target creature is Magearna:","So whenever Magerana (his name or his picture) appears on the screen, hit the spacebar as quickly as possible. Hit the spacebar whenever you see an image of MAGEARNA or the word MAGERANA. 

Press the spacebar to start the task",target4,stimuli/t4.jpg,127,50,stimuli/blank.jpg,blank,False,None,,,,,,,,,,,,,,0,0,0,0,,,,,0,0,0,3,0,49,49,49,,,,,,,,,,,,,,,,,,,,,,,,,,,,,,,,,,,,,,,,,,,,,,,,,,,,,CS1_USneg,None,1,,,,,,,,,,,,,,,,,,20,m,127,n,2019_Nov_20_1114,ec_RRR,3.0.4,59.877819937766084,
Gawronski,"For this task, the target creature is Magearna:","So whenever Magerana (his name or his picture) appears on the screen, hit the spacebar as quickly as possible. Hit the spacebar whenever you see an image of MAGEARNA or the word MAGERANA. 

Press the spacebar to start the task",target4,stimuli/t4.jpg,127,51,stimuli/cs1_neg9.jpg,CSUS,False,None,,,,,,,,,,,,,,0,0,0,0,,,,,0,0,0,3,0,50,50,50,,,,,,,,,,,,,,,,,,,,,,,,,,,,,,,,,,,,,,,,,,,,,,,,,,,,,CS1_USneg,None,1,,,,,,,,,,,,,,,,,,20,m,127,n,2019_Nov_20_1114,ec_RRR,3.0.4,59.877819937766084,
Gawronski,"For this task, the target creature is Magearna:","So whenever Magerana (his name or his picture) appears on the screen, hit the spacebar as quickly as possible. Hit the spacebar whenever you see an image of MAGEARNA or the word MAGERANA. 

Press the spacebar to start the task",target4,stimuli/t4.jpg,127,52,stimuli/blank.jpg,blank,False,None,,,,,,,,,,,,,,0,0,0,0,,,,,0,0,0,3,0,51,51,51,,,,,,,,,,,,,,,,,,,,,,,,,,,,,,,,,,,,,,,,,,,,,,,,,,,,,CS1_USneg,None,1,,,,,,,,,,,,,,,,,,20,m,127,n,2019_Nov_20_1114,ec_RRR,3.0.4,59.877819937766084,
Gawronski,"For this task, the target creature is Magearna:","So whenever Magerana (his name or his picture) appears on the screen, hit the spacebar as quickly as possible. Hit the spacebar whenever you see an image of MAGEARNA or the word MAGERANA. 

Press the spacebar to start the task",target4,stimuli/t4.jpg,127,53,stimuli/filler14.jpg,filler,False,None,,,,,,,,,,,,,,0,0,0,0,,,,,0,0,0,3,0,52,52,52,,,,,,,,,,,,,,,,,,,,,,,,,,,,,,,,,,,,,,,,,,,,,,,,,,,,,CS1_USneg,None,1,,,,,,,,,,,,,,,,,,20,m,127,n,2019_Nov_20_1114,ec_RRR,3.0.4,59.877819937766084,
Gawronski,"For this task, the target creature is Magearna:","So whenever Magerana (his name or his picture) appears on the screen, hit the spacebar as quickly as possible. Hit the spacebar whenever you see an image of MAGEARNA or the word MAGERANA. 

Press the spacebar to start the task",target4,stimuli/t4.jpg,127,54,stimuli/filler52.jpg,filler,False,None,,,,,,,,,,,,,,0,0,0,0,,,,,0,0,0,3,0,53,53,53,,,,,,,,,,,,,,,,,,,,,,,,,,,,,,,,,,,,,,,,,,,,,,,,,,,,,CS1_USneg,None,1,,,,,,,,,,,,,,,,,,20,m,127,n,2019_Nov_20_1114,ec_RRR,3.0.4,59.877819937766084,
Gawronski,"For this task, the target creature is Magearna:","So whenever Magerana (his name or his picture) appears on the screen, hit the spacebar as quickly as possible. Hit the spacebar whenever you see an image of MAGEARNA or the word MAGERANA. 

Press the spacebar to start the task",target4,stimuli/t4.jpg,127,55,stimuli/target4_3.jpg,target,True,space,,,,,,,,,,,,,,0,0,0,0,,,,,0,0,0,3,0,54,54,54,,,,,,,,,,,,,,,,,,,,,,,,,,,,,,,,,,,,,,,,,,,,,,,,,,,,,CS1_USneg,space,1,0.7853228381281951,,,,,,,,,,,,,,,,,20,m,127,n,2019_Nov_20_1114,ec_RRR,3.0.4,59.877819937766084,
Gawronski,"For this task, the target creature is Magearna:","So whenever Magerana (his name or his picture) appears on the screen, hit the spacebar as quickly as possible. Hit the spacebar whenever you see an image of MAGEARNA or the word MAGERANA. 

Press the spacebar to start the task",target4,stimuli/t4.jpg,127,56,stimuli/filler47.jpg,filler,False,None,,,,,,,,,,,,,,0,0,0,0,,,,,0,0,0,3,0,55,55,55,,,,,,,,,,,,,,,,,,,,,,,,,,,,,,,,,,,,,,,,,,,,,,,,,,,,,CS1_USneg,None,1,,,,,,,,,,,,,,,,,,20,m,127,n,2019_Nov_20_1114,ec_RRR,3.0.4,59.877819937766084,
Gawronski,"For this task, the target creature is Magearna:","So whenever Magerana (his name or his picture) appears on the screen, hit the spacebar as quickly as possible. Hit the spacebar whenever you see an image of MAGEARNA or the word MAGERANA. 

Press the spacebar to start the task",target4,stimuli/t4.jpg,127,57,stimuli/filler23.jpg,filler,False,None,,,,,,,,,,,,,,0,0,0,0,,,,,0,0,0,3,0,56,56,56,,,,,,,,,,,,,,,,,,,,,,,,,,,,,,,,,,,,,,,,,,,,,,,,,,,,,CS1_USneg,None,1,,,,,,,,,,,,,,,,,,20,m,127,n,2019_Nov_20_1114,ec_RRR,3.0.4,59.877819937766084,
Gawronski,"For this task, the target creature is Magearna:","So whenever Magerana (his name or his picture) appears on the screen, hit the spacebar as quickly as possible. Hit the spacebar whenever you see an image of MAGEARNA or the word MAGERANA. 

Press the spacebar to start the task",target4,stimuli/t4.jpg,127,58,stimuli/filler15.jpg,filler,False,None,,,,,,,,,,,,,,0,0,0,0,,,,,0,0,0,3,0,57,57,57,,,,,,,,,,,,,,,,,,,,,,,,,,,,,,,,,,,,,,,,,,,,,,,,,,,,,CS1_USneg,None,1,,,,,,,,,,,,,,,,,,20,m,127,n,2019_Nov_20_1114,ec_RRR,3.0.4,59.877819937766084,
Gawronski,"For this task, the target creature is Magearna:","So whenever Magerana (his name or his picture) appears on the screen, hit the spacebar as quickly as possible. Hit the spacebar whenever you see an image of MAGEARNA or the word MAGERANA. 

Press the spacebar to start the task",target4,stimuli/t4.jpg,127,59,stimuli/filler24.jpg,filler,False,None,,,,,,,,,,,,,,0,0,0,0,,,,,0,0,0,3,0,58,58,58,,,,,,,,,,,,,,,,,,,,,,,,,,,,,,,,,,,,,,,,,,,,,,,,,,,,,CS1_USneg,None,1,,,,,,,,,,,,,,,,,,20,m,127,n,2019_Nov_20_1114,ec_RRR,3.0.4,59.877819937766084,
Gawronski,"For this task, the target creature is Magearna:","So whenever Magerana (his name or his picture) appears on the screen, hit the spacebar as quickly as possible. Hit the spacebar whenever you see an image of MAGEARNA or the word MAGERANA. 

Press the spacebar to start the task",target4,stimuli/t4.jpg,127,60,stimuli/blank.jpg,blank,False,None,,,,,,,,,,,,,,0,0,0,0,,,,,0,0,0,3,0,59,59,59,,,,,,,,,,,,,,,,,,,,,,,,,,,,,,,,,,,,,,,,,,,,,,,,,,,,,CS1_USneg,None,1,,,,,,,,,,,,,,,,,,20,m,127,n,2019_Nov_20_1114,ec_RRR,3.0.4,59.877819937766084,
Gawronski,"For this task, the target creature is Magearna:","So whenever Magerana (his name or his picture) appears on the screen, hit the spacebar as quickly as possible. Hit the spacebar whenever you see an image of MAGEARNA or the word MAGERANA. 

Press the spacebar to start the task",target4,stimuli/t4.jpg,127,61,stimuli/cs2_pos6.jpg,CSUS,False,None,,,,,,,,,,,,,,0,0,0,0,,,,,0,0,0,3,0,60,60,60,,,,,,,,,,,,,,,,,,,,,,,,,,,,,,,,,,,,,,,,,,,,,,,,,,,,,CS1_USneg,None,1,,,,,,,,,,,,,,,,,,20,m,127,n,2019_Nov_20_1114,ec_RRR,3.0.4,59.877819937766084,
Gawronski,"For this task, the target creature is Magearna:","So whenever Magerana (his name or his picture) appears on the screen, hit the spacebar as quickly as possible. Hit the spacebar whenever you see an image of MAGEARNA or the word MAGERANA. 

Press the spacebar to start the task",target4,stimuli/t4.jpg,127,62,stimuli/blank.jpg,blank,False,None,,,,,,,,,,,,,,0,0,0,0,,,,,0,0,0,3,0,61,61,61,,,,,,,,,,,,,,,,,,,,,,,,,,,,,,,,,,,,,,,,,,,,,,,,,,,,,CS1_USneg,None,1,,,,,,,,,,,,,,,,,,20,m,127,n,2019_Nov_20_1114,ec_RRR,3.0.4,59.877819937766084,
Gawronski,"For this task, the target creature is Magearna:","So whenever Magerana (his name or his picture) appears on the screen, hit the spacebar as quickly as possible. Hit the spacebar whenever you see an image of MAGEARNA or the word MAGERANA. 

Press the spacebar to start the task",target4,stimuli/t4.jpg,127,63,stimuli/filler41.jpg,filler,False,None,,,,,,,,,,,,,,0,0,0,0,,,,,0,0,0,3,0,62,62,62,,,,,,,,,,,,,,,,,,,,,,,,,,,,,,,,,,,,,,,,,,,,,,,,,,,,,CS1_USneg,None,1,,,,,,,,,,,,,,,,,,20,m,127,n,2019_Nov_20_1114,ec_RRR,3.0.4,59.877819937766084,
Gawronski,"For this task, the target creature is Magearna:","So whenever Magerana (his name or his picture) appears on the screen, hit the spacebar as quickly as possible. Hit the spacebar whenever you see an image of MAGEARNA or the word MAGERANA. 

Press the spacebar to start the task",target4,stimuli/t4.jpg,127,64,stimuli/filler30.jpg,filler,False,None,,,,,,,,,,,,,,0,0,0,0,,,,,0,0,0,3,0,63,63,63,,,,,,,,,,,,,,,,,,,,,,,,,,,,,,,,,,,,,,,,,,,,,,,,,,,,,CS1_USneg,None,1,,,,,,,,,,,,,,,,,,20,m,127,n,2019_Nov_20_1114,ec_RRR,3.0.4,59.877819937766084,
Gawronski,"For this task, the target creature is Magearna:","So whenever Magerana (his name or his picture) appears on the screen, hit the spacebar as quickly as possible. Hit the spacebar whenever you see an image of MAGEARNA or the word MAGERANA. 

Press the spacebar to start the task",target4,stimuli/t4.jpg,127,65,stimuli/filler50.jpg,filler,False,None,,,,,,,,,,,,,,0,0,0,0,,,,,0,0,0,3,0,64,64,64,,,,,,,,,,,,,,,,,,,,,,,,,,,,,,,,,,,,,,,,,,,,,,,,,,,,,CS1_USneg,None,1,,,,,,,,,,,,,,,,,,20,m,127,n,2019_Nov_20_1114,ec_RRR,3.0.4,59.877819937766084,
Gawronski,"For this task, the target creature is Magearna:","So whenever Magerana (his name or his picture) appears on the screen, hit the spacebar as quickly as possible. Hit the spacebar whenever you see an image of MAGEARNA or the word MAGERANA. 

Press the spacebar to start the task",target4,stimuli/t4.jpg,127,66,stimuli/filler16.jpg,filler,False,None,,,,,,,,,,,,,,0,0,0,0,,,,,0,0,0,3,0,65,65,65,,,,,,,,,,,,,,,,,,,,,,,,,,,,,,,,,,,,,,,,,,,,,,,,,,,,,CS1_USneg,None,1,,,,,,,,,,,,,,,,,,20,m,127,n,2019_Nov_20_1114,ec_RRR,3.0.4,59.877819937766084,
Gawronski,"For this task, the target creature is Magearna:","So whenever Magerana (his name or his picture) appears on the screen, hit the spacebar as quickly as possible. Hit the spacebar whenever you see an image of MAGEARNA or the word MAGERANA. 

Press the spacebar to start the task",target4,stimuli/t4.jpg,127,67,stimuli/target4_8.jpg,target,True,space,,,,,,,,,,,,,,0,0,0,0,,,,,0,0,0,3,0,66,66,66,,,,,,,,,,,,,,,,,,,,,,,,,,,,,,,,,,,,,,,,,,,,,,,,,,,,,CS1_USneg,space,1,0.818972736284195,,,,,,,,,,,,,,,,,20,m,127,n,2019_Nov_20_1114,ec_RRR,3.0.4,59.877819937766084,
Gawronski,"For this task, the target creature is Magearna:","So whenever Magerana (his name or his picture) appears on the screen, hit the spacebar as quickly as possible. Hit the spacebar whenever you see an image of MAGEARNA or the word MAGERANA. 

Press the spacebar to start the task",target4,stimuli/t4.jpg,127,68,stimuli/filler42.jpg,filler,False,None,,,,,,,,,,,,,,0,0,0,0,,,,,0,0,0,3,0,67,67,67,,,,,,,,,,,,,,,,,,,,,,,,,,,,,,,,,,,,,,,,,,,,,,,,,,,,,CS1_USneg,None,1,,,,,,,,,,,,,,,,,,20,m,127,n,2019_Nov_20_1114,ec_RRR,3.0.4,59.877819937766084,
Gawronski,"For this task, the target creature is Magearna:","So whenever Magerana (his name or his picture) appears on the screen, hit the spacebar as quickly as possible. Hit the spacebar whenever you see an image of MAGEARNA or the word MAGERANA. 

Press the spacebar to start the task",target4,stimuli/t4.jpg,127,69,stimuli/filler32.jpg,filler,False,None,,,,,,,,,,,,,,0,0,0,0,,,,,0,0,0,3,0,68,68,68,,,,,,,,,,,,,,,,,,,,,,,,,,,,,,,,,,,,,,,,,,,,,,,,,,,,,CS1_USneg,None,1,,,,,,,,,,,,,,,,,,20,m,127,n,2019_Nov_20_1114,ec_RRR,3.0.4,59.877819937766084,
Gawronski,"For this task, the target creature is Magearna:","So whenever Magerana (his name or his picture) appears on the screen, hit the spacebar as quickly as possible. Hit the spacebar whenever you see an image of MAGEARNA or the word MAGERANA. 

Press the spacebar to start the task",target4,stimuli/t4.jpg,127,70,stimuli/blank.jpg,blank,False,None,,,,,,,,,,,,,,0,0,0,0,,,,,0,0,0,3,0,69,69,69,,,,,,,,,,,,,,,,,,,,,,,,,,,,,,,,,,,,,,,,,,,,,,,,,,,,,CS1_USneg,None,1,,,,,,,,,,,,,,,,,,20,m,127,n,2019_Nov_20_1114,ec_RRR,3.0.4,59.877819937766084,
Gawronski,"For this task, the target creature is Magearna:","So whenever Magerana (his name or his picture) appears on the screen, hit the spacebar as quickly as possible. Hit the spacebar whenever you see an image of MAGEARNA or the word MAGERANA. 

Press the spacebar to start the task",target4,stimuli/t4.jpg,127,71,stimuli/cs1_neg14.jpg,CSUS,False,None,,,,,,,,,,,,,,0,0,0,0,,,,,0,0,0,3,0,70,70,70,,,,,,,,,,,,,,,,,,,,,,,,,,,,,,,,,,,,,,,,,,,,,,,,,,,,,CS1_USneg,None,1,,,,,,,,,,,,,,,,,,20,m,127,n,2019_Nov_20_1114,ec_RRR,3.0.4,59.877819937766084,
Gawronski,"For this task, the target creature is Magearna:","So whenever Magerana (his name or his picture) appears on the screen, hit the spacebar as quickly as possible. Hit the spacebar whenever you see an image of MAGEARNA or the word MAGERANA. 

Press the spacebar to start the task",target4,stimuli/t4.jpg,127,72,stimuli/blank.jpg,blank,False,None,,,,,,,,,,,,,,0,0,0,0,,,,,0,0,0,3,0,71,71,71,,,,,,,,,,,,,,,,,,,,,,,,,,,,,,,,,,,,,,,,,,,,,,,,,,,,,CS1_USneg,None,1,,,,,,,,,,,,,,,,,,20,m,127,n,2019_Nov_20_1114,ec_RRR,3.0.4,59.877819937766084,
Gawronski,"For this task, the target creature is Magearna:","So whenever Magerana (his name or his picture) appears on the screen, hit the spacebar as quickly as possible. Hit the spacebar whenever you see an image of MAGEARNA or the word MAGERANA. 

Press the spacebar to start the task",target4,stimuli/t4.jpg,127,73,stimuli/filler22.jpg,filler,False,None,,,,,,,,,,,,,,0,0,0,0,,,,,0,0,0,3,0,72,72,72,,,,,,,,,,,,,,,,,,,,,,,,,,,,,,,,,,,,,,,,,,,,,,,,,,,,,CS1_USneg,None,1,,,,,,,,,,,,,,,,,,20,m,127,n,2019_Nov_20_1114,ec_RRR,3.0.4,59.877819937766084,
Gawronski,"For this task, the target creature is Magearna:","So whenever Magerana (his name or his picture) appears on the screen, hit the spacebar as quickly as possible. Hit the spacebar whenever you see an image of MAGEARNA or the word MAGERANA. 

Press the spacebar to start the task",target4,stimuli/t4.jpg,127,74,stimuli/filler7.jpg,filler,False,None,,,,,,,,,,,,,,0,0,0,0,,,,,0,0,0,3,0,73,73,73,,,,,,,,,,,,,,,,,,,,,,,,,,,,,,,,,,,,,,,,,,,,,,,,,,,,,CS1_USneg,None,1,,,,,,,,,,,,,,,,,,20,m,127,n,2019_Nov_20_1114,ec_RRR,3.0.4,59.877819937766084,
Gawronski,"For this task, the target creature is Magearna:","So whenever Magerana (his name or his picture) appears on the screen, hit the spacebar as quickly as possible. Hit the spacebar whenever you see an image of MAGEARNA or the word MAGERANA. 

Press the spacebar to start the task",target4,stimuli/t4.jpg,127,75,stimuli/filler1.jpg,filler,False,None,,,,,,,,,,,,,,0,0,0,0,,,,,0,0,0,3,0,74,74,74,,,,,,,,,,,,,,,,,,,,,,,,,,,,,,,,,,,,,,,,,,,,,,,,,,,,,CS1_USneg,None,1,,,,,,,,,,,,,,,,,,20,m,127,n,2019_Nov_20_1114,ec_RRR,3.0.4,59.877819937766084,
Gawronski,"For this task, the target creature is Magearna:","So whenever Magerana (his name or his picture) appears on the screen, hit the spacebar as quickly as possible. Hit the spacebar whenever you see an image of MAGEARNA or the word MAGERANA. 

Press the spacebar to start the task",target4,stimuli/t4.jpg,127,76,stimuli/filler29.jpg,filler,False,None,,,,,,,,,,,,,,0,0,0,0,,,,,0,0,0,3,0,75,75,75,,,,,,,,,,,,,,,,,,,,,,,,,,,,,,,,,,,,,,,,,,,,,,,,,,,,,CS1_USneg,None,1,,,,,,,,,,,,,,,,,,20,m,127,n,2019_Nov_20_1114,ec_RRR,3.0.4,59.877819937766084,
Gawronski,"For this task, the target creature is Magearna:","So whenever Magerana (his name or his picture) appears on the screen, hit the spacebar as quickly as possible. Hit the spacebar whenever you see an image of MAGEARNA or the word MAGERANA. 

Press the spacebar to start the task",target4,stimuli/t4.jpg,127,77,stimuli/filler40.jpg,filler,False,None,,,,,,,,,,,,,,0,0,0,0,,,,,0,0,0,3,0,76,76,76,,,,,,,,,,,,,,,,,,,,,,,,,,,,,,,,,,,,,,,,,,,,,,,,,,,,,CS1_USneg,None,1,,,,,,,,,,,,,,,,,,20,m,127,n,2019_Nov_20_1114,ec_RRR,3.0.4,59.877819937766084,
Gawronski,"For this task, the target creature is Magearna:","So whenever Magerana (his name or his picture) appears on the screen, hit the spacebar as quickly as possible. Hit the spacebar whenever you see an image of MAGEARNA or the word MAGERANA. 

Press the spacebar to start the task",target4,stimuli/t4.jpg,127,78,stimuli/filler28.jpg,filler,False,None,,,,,,,,,,,,,,0,0,0,0,,,,,0,0,0,3,0,77,77,77,,,,,,,,,,,,,,,,,,,,,,,,,,,,,,,,,,,,,,,,,,,,,,,,,,,,,CS1_USneg,None,1,,,,,,,,,,,,,,,,,,20,m,127,n,2019_Nov_20_1114,ec_RRR,3.0.4,59.877819937766084,
Gawronski,"For this task, the target creature is Magearna:","So whenever Magerana (his name or his picture) appears on the screen, hit the spacebar as quickly as possible. Hit the spacebar whenever you see an image of MAGEARNA or the word MAGERANA. 

Press the spacebar to start the task",target4,stimuli/t4.jpg,127,79,stimuli/filler17.jpg,filler,False,None,,,,,,,,,,,,,,0,0,0,0,,,,,0,0,0,3,0,78,78,78,,,,,,,,,,,,,,,,,,,,,,,,,,,,,,,,,,,,,,,,,,,,,,,,,,,,,CS1_USneg,None,1,,,,,,,,,,,,,,,,,,20,m,127,n,2019_Nov_20_1114,ec_RRR,3.0.4,59.877819937766084,
Gawronski,"For this task, the target creature is Magearna:","So whenever Magerana (his name or his picture) appears on the screen, hit the spacebar as quickly as possible. Hit the spacebar whenever you see an image of MAGEARNA or the word MAGERANA. 

Press the spacebar to start the task",target4,stimuli/t4.jpg,127,80,stimuli/blank.jpg,blank,False,None,,,,,,,,,,,,,,0,0,0,0,,,,,0,0,0,3,0,79,79,79,,,,,,,,,,,,,,,,,,,,,,,,,,,,,,,,,,,,,,,,,,,,,,,,,,,,,CS1_USneg,None,1,,,,,,,,,,,,,,,,,,20,m,127,n,2019_Nov_20_1114,ec_RRR,3.0.4,59.877819937766084,
Gawronski,"For this task, the target creature is Magearna:","So whenever Magerana (his name or his picture) appears on the screen, hit the spacebar as quickly as possible. Hit the spacebar whenever you see an image of MAGEARNA or the word MAGERANA. 

Press the spacebar to start the task",target4,stimuli/t4.jpg,127,81,stimuli/cs2_pos9.jpg,CSUS,False,None,,,,,,,,,,,,,,0,0,0,0,,,,,0,0,0,3,0,80,80,80,,,,,,,,,,,,,,,,,,,,,,,,,,,,,,,,,,,,,,,,,,,,,,,,,,,,,CS1_USneg,None,1,,,,,,,,,,,,,,,,,,20,m,127,n,2019_Nov_20_1114,ec_RRR,3.0.4,59.877819937766084,
Gawronski,"For this task, the target creature is Magearna:","So whenever Magerana (his name or his picture) appears on the screen, hit the spacebar as quickly as possible. Hit the spacebar whenever you see an image of MAGEARNA or the word MAGERANA. 

Press the spacebar to start the task",target4,stimuli/t4.jpg,127,82,stimuli/blank.jpg,blank,False,None,,,,,,,,,,,,,,0,0,0,0,,,,,0,0,0,3,0,81,81,81,,,,,,,,,,,,,,,,,,,,,,,,,,,,,,,,,,,,,,,,,,,,,,,,,,,,,CS1_USneg,None,1,,,,,,,,,,,,,,,,,,20,m,127,n,2019_Nov_20_1114,ec_RRR,3.0.4,59.877819937766084,
Gawronski,"For this task, the target creature is Magearna:","So whenever Magerana (his name or his picture) appears on the screen, hit the spacebar as quickly as possible. Hit the spacebar whenever you see an image of MAGEARNA or the word MAGERANA. 

Press the spacebar to start the task",target4,stimuli/t4.jpg,127,83,stimuli/filler25.jpg,filler,False,None,,,,,,,,,,,,,,0,0,0,0,,,,,0,0,0,3,0,82,82,82,,,,,,,,,,,,,,,,,,,,,,,,,,,,,,,,,,,,,,,,,,,,,,,,,,,,,CS1_USneg,None,1,,,,,,,,,,,,,,,,,,20,m,127,n,2019_Nov_20_1114,ec_RRR,3.0.4,59.877819937766084,
Gawronski,"For this task, the target creature is Magearna:","So whenever Magerana (his name or his picture) appears on the screen, hit the spacebar as quickly as possible. Hit the spacebar whenever you see an image of MAGEARNA or the word MAGERANA. 

Press the spacebar to start the task",target4,stimuli/t4.jpg,127,84,stimuli/target4_6.jpg,target,True,space,,,,,,,,,,,,,,0,0,0,0,,,,,0,0,0,3,0,83,83,83,,,,,,,,,,,,,,,,,,,,,,,,,,,,,,,,,,,,,,,,,,,,,,,,,,,,,CS1_USneg,space,1,1.035907927682274,,,,,,,,,,,,,,,,,20,m,127,n,2019_Nov_20_1114,ec_RRR,3.0.4,59.877819937766084,
Gawronski,"For this task, the target creature is Magearna:","So whenever Magerana (his name or his picture) appears on the screen, hit the spacebar as quickly as possible. Hit the spacebar whenever you see an image of MAGEARNA or the word MAGERANA. 

Press the spacebar to start the task",target4,stimuli/t4.jpg,127,85,stimuli/filler8.jpg,filler,False,None,,,,,,,,,,,,,,0,0,0,0,,,,,0,0,0,3,0,84,84,84,,,,,,,,,,,,,,,,,,,,,,,,,,,,,,,,,,,,,,,,,,,,,,,,,,,,,CS1_USneg,None,1,,,,,,,,,,,,,,,,,,20,m,127,n,2019_Nov_20_1114,ec_RRR,3.0.4,59.877819937766084,
Gawronski,"For this task, the target creature is Magearna:","So whenever Magerana (his name or his picture) appears on the screen, hit the spacebar as quickly as possible. Hit the spacebar whenever you see an image of MAGEARNA or the word MAGERANA. 

Press the spacebar to start the task",target4,stimuli/t4.jpg,127,86,stimuli/target4_4.jpg,target,True,space,,,,,,,,,,,,,,0,0,0,0,,,,,0,0,0,3,0,85,85,85,,,,,,,,,,,,,,,,,,,,,,,,,,,,,,,,,,,,,,,,,,,,,,,,,,,,,CS1_USneg,space,1,0.6526471527613467,,,,,,,,,,,,,,,,,20,m,127,n,2019_Nov_20_1114,ec_RRR,3.0.4,59.877819937766084,
Gawronski,"For this task, the target creature is Grubbin:","So whenever Grubbin (his name or his picture) appears on the screen, hit the spacebar as quickly as possible. Hit the spacebar whenever you see an image of Grubbin or the word GRUBBIN. 

Press the spacebar to start the task",target3,stimuli/t3.jpg,127,1,stimuli/filler52.jpg,filler,False,None,,,,,,,,,,,,,,0,0,0,0,,,,,0,1,1,2,0,0,0,0,,,,,,,,,,,,,,,,,,,,,,,,,,,,,,,,,,,,,,,,,,,,,,,,,,,,,CS1_USneg,None,1,,,,,,,,,,,,,,,,,,20,m,127,n,2019_Nov_20_1114,ec_RRR,3.0.4,59.877819937766084,
Gawronski,"For this task, the target creature is Grubbin:","So whenever Grubbin (his name or his picture) appears on the screen, hit the spacebar as quickly as possible. Hit the spacebar whenever you see an image of Grubbin or the word GRUBBIN. 

Press the spacebar to start the task",target3,stimuli/t3.jpg,127,2,stimuli/filler17.jpg,filler,False,None,,,,,,,,,,,,,,0,0,0,0,,,,,0,1,1,2,0,1,1,1,,,,,,,,,,,,,,,,,,,,,,,,,,,,,,,,,,,,,,,,,,,,,,,,,,,,,CS1_USneg,None,1,,,,,,,,,,,,,,,,,,20,m,127,n,2019_Nov_20_1114,ec_RRR,3.0.4,59.877819937766084,
Gawronski,"For this task, the target creature is Grubbin:","So whenever Grubbin (his name or his picture) appears on the screen, hit the spacebar as quickly as possible. Hit the spacebar whenever you see an image of Grubbin or the word GRUBBIN. 

Press the spacebar to start the task",target3,stimuli/t3.jpg,127,3,stimuli/target3_5.jpg,target,True,space,,,,,,,,,,,,,,0,0,0,0,,,,,0,1,1,2,0,2,2,2,,,,,,,,,,,,,,,,,,,,,,,,,,,,,,,,,,,,,,,,,,,,,,,,,,,,,CS1_USneg,space,1,0.6010291686980054,,,,,,,,,,,,,,,,,20,m,127,n,2019_Nov_20_1114,ec_RRR,3.0.4,59.877819937766084,
Gawronski,"For this task, the target creature is Grubbin:","So whenever Grubbin (his name or his picture) appears on the screen, hit the spacebar as quickly as possible. Hit the spacebar whenever you see an image of Grubbin or the word GRUBBIN. 

Press the spacebar to start the task",target3,stimuli/t3.jpg,127,4,stimuli/filler1.jpg,filler,False,None,,,,,,,,,,,,,,0,0,0,0,,,,,0,1,1,2,0,3,3,3,,,,,,,,,,,,,,,,,,,,,,,,,,,,,,,,,,,,,,,,,,,,,,,,,,,,,CS1_USneg,None,1,,,,,,,,,,,,,,,,,,20,m,127,n,2019_Nov_20_1114,ec_RRR,3.0.4,59.877819937766084,
Gawronski,"For this task, the target creature is Grubbin:","So whenever Grubbin (his name or his picture) appears on the screen, hit the spacebar as quickly as possible. Hit the spacebar whenever you see an image of Grubbin or the word GRUBBIN. 

Press the spacebar to start the task",target3,stimuli/t3.jpg,127,5,stimuli/filler15.jpg,filler,False,None,,,,,,,,,,,,,,0,0,0,0,,,,,0,1,1,2,0,4,4,4,,,,,,,,,,,,,,,,,,,,,,,,,,,,,,,,,,,,,,,,,,,,,,,,,,,,,CS1_USneg,None,1,,,,,,,,,,,,,,,,,,20,m,127,n,2019_Nov_20_1114,ec_RRR,3.0.4,59.877819937766084,
Gawronski,"For this task, the target creature is Grubbin:","So whenever Grubbin (his name or his picture) appears on the screen, hit the spacebar as quickly as possible. Hit the spacebar whenever you see an image of Grubbin or the word GRUBBIN. 

Press the spacebar to start the task",target3,stimuli/t3.jpg,127,6,stimuli/filler35.jpg,filler,False,None,,,,,,,,,,,,,,0,0,0,0,,,,,0,1,1,2,0,5,5,5,,,,,,,,,,,,,,,,,,,,,,,,,,,,,,,,,,,,,,,,,,,,,,,,,,,,,CS1_USneg,None,1,,,,,,,,,,,,,,,,,,20,m,127,n,2019_Nov_20_1114,ec_RRR,3.0.4,59.877819937766084,
Gawronski,"For this task, the target creature is Grubbin:","So whenever Grubbin (his name or his picture) appears on the screen, hit the spacebar as quickly as possible. Hit the spacebar whenever you see an image of Grubbin or the word GRUBBIN. 

Press the spacebar to start the task",target3,stimuli/t3.jpg,127,7,stimuli/filler9.jpg,filler,False,None,,,,,,,,,,,,,,0,0,0,0,,,,,0,1,1,2,0,6,6,6,,,,,,,,,,,,,,,,,,,,,,,,,,,,,,,,,,,,,,,,,,,,,,,,,,,,,CS1_USneg,None,1,,,,,,,,,,,,,,,,,,20,m,127,n,2019_Nov_20_1114,ec_RRR,3.0.4,59.877819937766084,
Gawronski,"For this task, the target creature is Grubbin:","So whenever Grubbin (his name or his picture) appears on the screen, hit the spacebar as quickly as possible. Hit the spacebar whenever you see an image of Grubbin or the word GRUBBIN. 

Press the spacebar to start the task",target3,stimuli/t3.jpg,127,8,stimuli/target3_2.jpg,target,True,space,,,,,,,,,,,,,,0,0,0,0,,,,,0,1,1,2,0,7,7,7,,,,,,,,,,,,,,,,,,,,,,,,,,,,,,,,,,,,,,,,,,,,,,,,,,,,,CS1_USneg,space,1,0.5851349243966979,,,,,,,,,,,,,,,,,20,m,127,n,2019_Nov_20_1114,ec_RRR,3.0.4,59.877819937766084,
Gawronski,"For this task, the target creature is Grubbin:","So whenever Grubbin (his name or his picture) appears on the screen, hit the spacebar as quickly as possible. Hit the spacebar whenever you see an image of Grubbin or the word GRUBBIN. 

Press the spacebar to start the task",target3,stimuli/t3.jpg,127,9,stimuli/target3_7.jpg,target,True,space,,,,,,,,,,,,,,0,0,0,0,,,,,0,1,1,2,0,8,8,8,,,,,,,,,,,,,,,,,,,,,,,,,,,,,,,,,,,,,,,,,,,,,,,,,,,,,CS1_USneg,space,1,0.6690630123994197,,,,,,,,,,,,,,,,,20,m,127,n,2019_Nov_20_1114,ec_RRR,3.0.4,59.877819937766084,
Gawronski,"For this task, the target creature is Grubbin:","So whenever Grubbin (his name or his picture) appears on the screen, hit the spacebar as quickly as possible. Hit the spacebar whenever you see an image of Grubbin or the word GRUBBIN. 

Press the spacebar to start the task",target3,stimuli/t3.jpg,127,10,stimuli/blank.jpg,blank,False,None,,,,,,,,,,,,,,0,0,0,0,,,,,0,1,1,2,0,9,9,9,,,,,,,,,,,,,,,,,,,,,,,,,,,,,,,,,,,,,,,,,,,,,,,,,,,,,CS1_USneg,None,1,,,,,,,,,,,,,,,,,,20,m,127,n,2019_Nov_20_1114,ec_RRR,3.0.4,59.877819937766084,
Gawronski,"For this task, the target creature is Grubbin:","So whenever Grubbin (his name or his picture) appears on the screen, hit the spacebar as quickly as possible. Hit the spacebar whenever you see an image of Grubbin or the word GRUBBIN. 

Press the spacebar to start the task",target3,stimuli/t3.jpg,127,11,stimuli/cs1_neg3.jpg,CSUS,False,None,,,,,,,,,,,,,,0,0,0,0,,,,,0,1,1,2,0,10,10,10,,,,,,,,,,,,,,,,,,,,,,,,,,,,,,,,,,,,,,,,,,,,,,,,,,,,,CS1_USneg,None,1,,,,,,,,,,,,,,,,,,20,m,127,n,2019_Nov_20_1114,ec_RRR,3.0.4,59.877819937766084,
Gawronski,"For this task, the target creature is Grubbin:","So whenever Grubbin (his name or his picture) appears on the screen, hit the spacebar as quickly as possible. Hit the spacebar whenever you see an image of Grubbin or the word GRUBBIN. 

Press the spacebar to start the task",target3,stimuli/t3.jpg,127,12,stimuli/blank.jpg,blank,False,None,,,,,,,,,,,,,,0,0,0,0,,,,,0,1,1,2,0,11,11,11,,,,,,,,,,,,,,,,,,,,,,,,,,,,,,,,,,,,,,,,,,,,,,,,,,,,,CS1_USneg,None,1,,,,,,,,,,,,,,,,,,20,m,127,n,2019_Nov_20_1114,ec_RRR,3.0.4,59.877819937766084,
Gawronski,"For this task, the target creature is Grubbin:","So whenever Grubbin (his name or his picture) appears on the screen, hit the spacebar as quickly as possible. Hit the spacebar whenever you see an image of Grubbin or the word GRUBBIN. 

Press the spacebar to start the task",target3,stimuli/t3.jpg,127,13,stimuli/filler33.jpg,filler,False,None,,,,,,,,,,,,,,0,0,0,0,,,,,0,1,1,2,0,12,12,12,,,,,,,,,,,,,,,,,,,,,,,,,,,,,,,,,,,,,,,,,,,,,,,,,,,,,CS1_USneg,None,1,,,,,,,,,,,,,,,,,,20,m,127,n,2019_Nov_20_1114,ec_RRR,3.0.4,59.877819937766084,
Gawronski,"For this task, the target creature is Grubbin:","So whenever Grubbin (his name or his picture) appears on the screen, hit the spacebar as quickly as possible. Hit the spacebar whenever you see an image of Grubbin or the word GRUBBIN. 

Press the spacebar to start the task",target3,stimuli/t3.jpg,127,14,stimuli/target3_3.jpg,target,True,space,,,,,,,,,,,,,,0,0,0,0,,,,,0,1,1,2,0,13,13,13,,,,,,,,,,,,,,,,,,,,,,,,,,,,,,,,,,,,,,,,,,,,,,,,,,,,,CS1_USneg,space,1,0.719620038078574,,,,,,,,,,,,,,,,,20,m,127,n,2019_Nov_20_1114,ec_RRR,3.0.4,59.877819937766084,
Gawronski,"For this task, the target creature is Grubbin:","So whenever Grubbin (his name or his picture) appears on the screen, hit the spacebar as quickly as possible. Hit the spacebar whenever you see an image of Grubbin or the word GRUBBIN. 

Press the spacebar to start the task",target3,stimuli/t3.jpg,127,15,stimuli/filler31.jpg,filler,False,None,,,,,,,,,,,,,,0,0,0,0,,,,,0,1,1,2,0,14,14,14,,,,,,,,,,,,,,,,,,,,,,,,,,,,,,,,,,,,,,,,,,,,,,,,,,,,,CS1_USneg,None,1,,,,,,,,,,,,,,,,,,20,m,127,n,2019_Nov_20_1114,ec_RRR,3.0.4,59.877819937766084,
Gawronski,"For this task, the target creature is Grubbin:","So whenever Grubbin (his name or his picture) appears on the screen, hit the spacebar as quickly as possible. Hit the spacebar whenever you see an image of Grubbin or the word GRUBBIN. 

Press the spacebar to start the task",target3,stimuli/t3.jpg,127,16,stimuli/filler28.jpg,filler,False,None,,,,,,,,,,,,,,0,0,0,0,,,,,0,1,1,2,0,15,15,15,,,,,,,,,,,,,,,,,,,,,,,,,,,,,,,,,,,,,,,,,,,,,,,,,,,,,CS1_USneg,None,1,,,,,,,,,,,,,,,,,,20,m,127,n,2019_Nov_20_1114,ec_RRR,3.0.4,59.877819937766084,
Gawronski,"For this task, the target creature is Grubbin:","So whenever Grubbin (his name or his picture) appears on the screen, hit the spacebar as quickly as possible. Hit the spacebar whenever you see an image of Grubbin or the word GRUBBIN. 

Press the spacebar to start the task",target3,stimuli/t3.jpg,127,17,stimuli/target3_1.jpg,target,True,space,,,,,,,,,,,,,,0,0,0,0,,,,,0,1,1,2,0,16,16,16,,,,,,,,,,,,,,,,,,,,,,,,,,,,,,,,,,,,,,,,,,,,,,,,,,,,,CS1_USneg,space,1,0.6361594808840891,,,,,,,,,,,,,,,,,20,m,127,n,2019_Nov_20_1114,ec_RRR,3.0.4,59.877819937766084,
Gawronski,"For this task, the target creature is Grubbin:","So whenever Grubbin (his name or his picture) appears on the screen, hit the spacebar as quickly as possible. Hit the spacebar whenever you see an image of Grubbin or the word GRUBBIN. 

Press the spacebar to start the task",target3,stimuli/t3.jpg,127,18,stimuli/filler18.jpg,filler,False,None,,,,,,,,,,,,,,0,0,0,0,,,,,0,1,1,2,0,17,17,17,,,,,,,,,,,,,,,,,,,,,,,,,,,,,,,,,,,,,,,,,,,,,,,,,,,,,CS1_USneg,None,1,,,,,,,,,,,,,,,,,,20,m,127,n,2019_Nov_20_1114,ec_RRR,3.0.4,59.877819937766084,
Gawronski,"For this task, the target creature is Grubbin:","So whenever Grubbin (his name or his picture) appears on the screen, hit the spacebar as quickly as possible. Hit the spacebar whenever you see an image of Grubbin or the word GRUBBIN. 

Press the spacebar to start the task",target3,stimuli/t3.jpg,127,19,stimuli/target3_4.jpg,target,True,space,,,,,,,,,,,,,,0,0,0,0,,,,,0,1,1,2,0,18,18,18,,,,,,,,,,,,,,,,,,,,,,,,,,,,,,,,,,,,,,,,,,,,,,,,,,,,,CS1_USneg,space,1,0.6536495195614407,,,,,,,,,,,,,,,,,20,m,127,n,2019_Nov_20_1114,ec_RRR,3.0.4,59.877819937766084,
Gawronski,"For this task, the target creature is Grubbin:","So whenever Grubbin (his name or his picture) appears on the screen, hit the spacebar as quickly as possible. Hit the spacebar whenever you see an image of Grubbin or the word GRUBBIN. 

Press the spacebar to start the task",target3,stimuli/t3.jpg,127,20,stimuli/blank.jpg,blank,False,None,,,,,,,,,,,,,,0,0,0,0,,,,,0,1,1,2,0,19,19,19,,,,,,,,,,,,,,,,,,,,,,,,,,,,,,,,,,,,,,,,,,,,,,,,,,,,,CS1_USneg,None,1,,,,,,,,,,,,,,,,,,20,m,127,n,2019_Nov_20_1114,ec_RRR,3.0.4,59.877819937766084,
Gawronski,"For this task, the target creature is Grubbin:","So whenever Grubbin (his name or his picture) appears on the screen, hit the spacebar as quickly as possible. Hit the spacebar whenever you see an image of Grubbin or the word GRUBBIN. 

Press the spacebar to start the task",target3,stimuli/t3.jpg,127,21,stimuli/cs2_pos14.jpg,CSUS,False,None,,,,,,,,,,,,,,0,0,0,0,,,,,0,1,1,2,0,20,20,20,,,,,,,,,,,,,,,,,,,,,,,,,,,,,,,,,,,,,,,,,,,,,,,,,,,,,CS1_USneg,None,1,,,,,,,,,,,,,,,,,,20,m,127,n,2019_Nov_20_1114,ec_RRR,3.0.4,59.877819937766084,
Gawronski,"For this task, the target creature is Grubbin:","So whenever Grubbin (his name or his picture) appears on the screen, hit the spacebar as quickly as possible. Hit the spacebar whenever you see an image of Grubbin or the word GRUBBIN. 

Press the spacebar to start the task",target3,stimuli/t3.jpg,127,22,stimuli/blank.jpg,blank,False,None,,,,,,,,,,,,,,0,0,0,0,,,,,0,1,1,2,0,21,21,21,,,,,,,,,,,,,,,,,,,,,,,,,,,,,,,,,,,,,,,,,,,,,,,,,,,,,CS1_USneg,None,1,,,,,,,,,,,,,,,,,,20,m,127,n,2019_Nov_20_1114,ec_RRR,3.0.4,59.877819937766084,
Gawronski,"For this task, the target creature is Grubbin:","So whenever Grubbin (his name or his picture) appears on the screen, hit the spacebar as quickly as possible. Hit the spacebar whenever you see an image of Grubbin or the word GRUBBIN. 

Press the spacebar to start the task",target3,stimuli/t3.jpg,127,23,stimuli/filler37.jpg,filler,False,None,,,,,,,,,,,,,,0,0,0,0,,,,,0,1,1,2,0,22,22,22,,,,,,,,,,,,,,,,,,,,,,,,,,,,,,,,,,,,,,,,,,,,,,,,,,,,,CS1_USneg,None,1,,,,,,,,,,,,,,,,,,20,m,127,n,2019_Nov_20_1114,ec_RRR,3.0.4,59.877819937766084,
Gawronski,"For this task, the target creature is Grubbin:","So whenever Grubbin (his name or his picture) appears on the screen, hit the spacebar as quickly as possible. Hit the spacebar whenever you see an image of Grubbin or the word GRUBBIN. 

Press the spacebar to start the task",target3,stimuli/t3.jpg,127,24,stimuli/filler34.jpg,filler,False,None,,,,,,,,,,,,,,0,0,0,0,,,,,0,1,1,2,0,23,23,23,,,,,,,,,,,,,,,,,,,,,,,,,,,,,,,,,,,,,,,,,,,,,,,,,,,,,CS1_USneg,None,1,,,,,,,,,,,,,,,,,,20,m,127,n,2019_Nov_20_1114,ec_RRR,3.0.4,59.877819937766084,
Gawronski,"For this task, the target creature is Grubbin:","So whenever Grubbin (his name or his picture) appears on the screen, hit the spacebar as quickly as possible. Hit the spacebar whenever you see an image of Grubbin or the word GRUBBIN. 

Press the spacebar to start the task",target3,stimuli/t3.jpg,127,25,stimuli/filler16.jpg,filler,False,None,,,,,,,,,,,,,,0,0,0,0,,,,,0,1,1,2,0,24,24,24,,,,,,,,,,,,,,,,,,,,,,,,,,,,,,,,,,,,,,,,,,,,,,,,,,,,,CS1_USneg,None,1,,,,,,,,,,,,,,,,,,20,m,127,n,2019_Nov_20_1114,ec_RRR,3.0.4,59.877819937766084,
Gawronski,"For this task, the target creature is Grubbin:","So whenever Grubbin (his name or his picture) appears on the screen, hit the spacebar as quickly as possible. Hit the spacebar whenever you see an image of Grubbin or the word GRUBBIN. 

Press the spacebar to start the task",target3,stimuli/t3.jpg,127,26,stimuli/filler39.jpg,filler,False,None,,,,,,,,,,,,,,0,0,0,0,,,,,0,1,1,2,0,25,25,25,,,,,,,,,,,,,,,,,,,,,,,,,,,,,,,,,,,,,,,,,,,,,,,,,,,,,CS1_USneg,None,1,,,,,,,,,,,,,,,,,,20,m,127,n,2019_Nov_20_1114,ec_RRR,3.0.4,59.877819937766084,
Gawronski,"For this task, the target creature is Grubbin:","So whenever Grubbin (his name or his picture) appears on the screen, hit the spacebar as quickly as possible. Hit the spacebar whenever you see an image of Grubbin or the word GRUBBIN. 

Press the spacebar to start the task",target3,stimuli/t3.jpg,127,27,stimuli/filler50.jpg,filler,False,None,,,,,,,,,,,,,,0,0,0,0,,,,,0,1,1,2,0,26,26,26,,,,,,,,,,,,,,,,,,,,,,,,,,,,,,,,,,,,,,,,,,,,,,,,,,,,,CS1_USneg,None,1,,,,,,,,,,,,,,,,,,20,m,127,n,2019_Nov_20_1114,ec_RRR,3.0.4,59.877819937766084,
Gawronski,"For this task, the target creature is Grubbin:","So whenever Grubbin (his name or his picture) appears on the screen, hit the spacebar as quickly as possible. Hit the spacebar whenever you see an image of Grubbin or the word GRUBBIN. 

Press the spacebar to start the task",target3,stimuli/t3.jpg,127,28,stimuli/target3_9.jpg,target,True,space,,,,,,,,,,,,,,0,0,0,0,,,,,0,1,1,2,0,27,27,27,,,,,,,,,,,,,,,,,,,,,,,,,,,,,,,,,,,,,,,,,,,,,,,,,,,,,CS1_USneg,space,1,0.5691508396776044,,,,,,,,,,,,,,,,,20,m,127,n,2019_Nov_20_1114,ec_RRR,3.0.4,59.877819937766084,
Gawronski,"For this task, the target creature is Grubbin:","So whenever Grubbin (his name or his picture) appears on the screen, hit the spacebar as quickly as possible. Hit the spacebar whenever you see an image of Grubbin or the word GRUBBIN. 

Press the spacebar to start the task",target3,stimuli/t3.jpg,127,29,stimuli/filler42.jpg,filler,False,None,,,,,,,,,,,,,,0,0,0,0,,,,,0,1,1,2,0,28,28,28,,,,,,,,,,,,,,,,,,,,,,,,,,,,,,,,,,,,,,,,,,,,,,,,,,,,,CS1_USneg,None,1,,,,,,,,,,,,,,,,,,20,m,127,n,2019_Nov_20_1114,ec_RRR,3.0.4,59.877819937766084,
Gawronski,"For this task, the target creature is Grubbin:","So whenever Grubbin (his name or his picture) appears on the screen, hit the spacebar as quickly as possible. Hit the spacebar whenever you see an image of Grubbin or the word GRUBBIN. 

Press the spacebar to start the task",target3,stimuli/t3.jpg,127,30,stimuli/blank.jpg,blank,False,None,,,,,,,,,,,,,,0,0,0,0,,,,,0,1,1,2,0,29,29,29,,,,,,,,,,,,,,,,,,,,,,,,,,,,,,,,,,,,,,,,,,,,,,,,,,,,,CS1_USneg,None,1,,,,,,,,,,,,,,,,,,20,m,127,n,2019_Nov_20_1114,ec_RRR,3.0.4,59.877819937766084,
Gawronski,"For this task, the target creature is Grubbin:","So whenever Grubbin (his name or his picture) appears on the screen, hit the spacebar as quickly as possible. Hit the spacebar whenever you see an image of Grubbin or the word GRUBBIN. 

Press the spacebar to start the task",target3,stimuli/t3.jpg,127,31,stimuli/cs1_neg15.jpg,CSUS,False,None,,,,,,,,,,,,,,0,0,0,0,,,,,0,1,1,2,0,30,30,30,,,,,,,,,,,,,,,,,,,,,,,,,,,,,,,,,,,,,,,,,,,,,,,,,,,,,CS1_USneg,None,1,,,,,,,,,,,,,,,,,,20,m,127,n,2019_Nov_20_1114,ec_RRR,3.0.4,59.877819937766084,
Gawronski,"For this task, the target creature is Grubbin:","So whenever Grubbin (his name or his picture) appears on the screen, hit the spacebar as quickly as possible. Hit the spacebar whenever you see an image of Grubbin or the word GRUBBIN. 

Press the spacebar to start the task",target3,stimuli/t3.jpg,127,32,stimuli/blank.jpg,blank,False,None,,,,,,,,,,,,,,0,0,0,0,,,,,0,1,1,2,0,31,31,31,,,,,,,,,,,,,,,,,,,,,,,,,,,,,,,,,,,,,,,,,,,,,,,,,,,,,CS1_USneg,None,1,,,,,,,,,,,,,,,,,,20,m,127,n,2019_Nov_20_1114,ec_RRR,3.0.4,59.877819937766084,
Gawronski,"For this task, the target creature is Grubbin:","So whenever Grubbin (his name or his picture) appears on the screen, hit the spacebar as quickly as possible. Hit the spacebar whenever you see an image of Grubbin or the word GRUBBIN. 

Press the spacebar to start the task",target3,stimuli/t3.jpg,127,33,stimuli/filler7.jpg,filler,False,None,,,,,,,,,,,,,,0,0,0,0,,,,,0,1,1,2,0,32,32,32,,,,,,,,,,,,,,,,,,,,,,,,,,,,,,,,,,,,,,,,,,,,,,,,,,,,,CS1_USneg,None,1,,,,,,,,,,,,,,,,,,20,m,127,n,2019_Nov_20_1114,ec_RRR,3.0.4,59.877819937766084,
Gawronski,"For this task, the target creature is Grubbin:","So whenever Grubbin (his name or his picture) appears on the screen, hit the spacebar as quickly as possible. Hit the spacebar whenever you see an image of Grubbin or the word GRUBBIN. 

Press the spacebar to start the task",target3,stimuli/t3.jpg,127,34,stimuli/filler48.jpg,filler,False,None,,,,,,,,,,,,,,0,0,0,0,,,,,0,1,1,2,0,33,33,33,,,,,,,,,,,,,,,,,,,,,,,,,,,,,,,,,,,,,,,,,,,,,,,,,,,,,CS1_USneg,None,1,,,,,,,,,,,,,,,,,,20,m,127,n,2019_Nov_20_1114,ec_RRR,3.0.4,59.877819937766084,
Gawronski,"For this task, the target creature is Grubbin:","So whenever Grubbin (his name or his picture) appears on the screen, hit the spacebar as quickly as possible. Hit the spacebar whenever you see an image of Grubbin or the word GRUBBIN. 

Press the spacebar to start the task",target3,stimuli/t3.jpg,127,35,stimuli/filler4.jpg,filler,False,None,,,,,,,,,,,,,,0,0,0,0,,,,,0,1,1,2,0,34,34,34,,,,,,,,,,,,,,,,,,,,,,,,,,,,,,,,,,,,,,,,,,,,,,,,,,,,,CS1_USneg,None,1,,,,,,,,,,,,,,,,,,20,m,127,n,2019_Nov_20_1114,ec_RRR,3.0.4,59.877819937766084,
Gawronski,"For this task, the target creature is Grubbin:","So whenever Grubbin (his name or his picture) appears on the screen, hit the spacebar as quickly as possible. Hit the spacebar whenever you see an image of Grubbin or the word GRUBBIN. 

Press the spacebar to start the task",target3,stimuli/t3.jpg,127,36,stimuli/filler30.jpg,filler,False,None,,,,,,,,,,,,,,0,0,0,0,,,,,0,1,1,2,0,35,35,35,,,,,,,,,,,,,,,,,,,,,,,,,,,,,,,,,,,,,,,,,,,,,,,,,,,,,CS1_USneg,None,1,,,,,,,,,,,,,,,,,,20,m,127,n,2019_Nov_20_1114,ec_RRR,3.0.4,59.877819937766084,
Gawronski,"For this task, the target creature is Grubbin:","So whenever Grubbin (his name or his picture) appears on the screen, hit the spacebar as quickly as possible. Hit the spacebar whenever you see an image of Grubbin or the word GRUBBIN. 

Press the spacebar to start the task",target3,stimuli/t3.jpg,127,37,stimuli/filler6.jpg,filler,False,None,,,,,,,,,,,,,,0,0,0,0,,,,,0,1,1,2,0,36,36,36,,,,,,,,,,,,,,,,,,,,,,,,,,,,,,,,,,,,,,,,,,,,,,,,,,,,,CS1_USneg,None,1,,,,,,,,,,,,,,,,,,20,m,127,n,2019_Nov_20_1114,ec_RRR,3.0.4,59.877819937766084,
Gawronski,"For this task, the target creature is Grubbin:","So whenever Grubbin (his name or his picture) appears on the screen, hit the spacebar as quickly as possible. Hit the spacebar whenever you see an image of Grubbin or the word GRUBBIN. 

Press the spacebar to start the task",target3,stimuli/t3.jpg,127,38,stimuli/filler19.jpg,filler,False,None,,,,,,,,,,,,,,0,0,0,0,,,,,0,1,1,2,0,37,37,37,,,,,,,,,,,,,,,,,,,,,,,,,,,,,,,,,,,,,,,,,,,,,,,,,,,,,CS1_USneg,None,1,,,,,,,,,,,,,,,,,,20,m,127,n,2019_Nov_20_1114,ec_RRR,3.0.4,59.877819937766084,
Gawronski,"For this task, the target creature is Grubbin:","So whenever Grubbin (his name or his picture) appears on the screen, hit the spacebar as quickly as possible. Hit the spacebar whenever you see an image of Grubbin or the word GRUBBIN. 

Press the spacebar to start the task",target3,stimuli/t3.jpg,127,39,stimuli/filler5.jpg,filler,False,None,,,,,,,,,,,,,,0,0,0,0,,,,,0,1,1,2,0,38,38,38,,,,,,,,,,,,,,,,,,,,,,,,,,,,,,,,,,,,,,,,,,,,,,,,,,,,,CS1_USneg,None,1,,,,,,,,,,,,,,,,,,20,m,127,n,2019_Nov_20_1114,ec_RRR,3.0.4,59.877819937766084,
Gawronski,"For this task, the target creature is Grubbin:","So whenever Grubbin (his name or his picture) appears on the screen, hit the spacebar as quickly as possible. Hit the spacebar whenever you see an image of Grubbin or the word GRUBBIN. 

Press the spacebar to start the task",target3,stimuli/t3.jpg,127,40,stimuli/blank.jpg,blank,False,None,,,,,,,,,,,,,,0,0,0,0,,,,,0,1,1,2,0,39,39,39,,,,,,,,,,,,,,,,,,,,,,,,,,,,,,,,,,,,,,,,,,,,,,,,,,,,,CS1_USneg,None,1,,,,,,,,,,,,,,,,,,20,m,127,n,2019_Nov_20_1114,ec_RRR,3.0.4,59.877819937766084,
Gawronski,"For this task, the target creature is Grubbin:","So whenever Grubbin (his name or his picture) appears on the screen, hit the spacebar as quickly as possible. Hit the spacebar whenever you see an image of Grubbin or the word GRUBBIN. 

Press the spacebar to start the task",target3,stimuli/t3.jpg,127,41,stimuli/cs2_pos13.jpg,CSUS,False,None,,,,,,,,,,,,,,0,0,0,0,,,,,0,1,1,2,0,40,40,40,,,,,,,,,,,,,,,,,,,,,,,,,,,,,,,,,,,,,,,,,,,,,,,,,,,,,CS1_USneg,None,1,,,,,,,,,,,,,,,,,,20,m,127,n,2019_Nov_20_1114,ec_RRR,3.0.4,59.877819937766084,
Gawronski,"For this task, the target creature is Grubbin:","So whenever Grubbin (his name or his picture) appears on the screen, hit the spacebar as quickly as possible. Hit the spacebar whenever you see an image of Grubbin or the word GRUBBIN. 

Press the spacebar to start the task",target3,stimuli/t3.jpg,127,42,stimuli/blank.jpg,blank,False,None,,,,,,,,,,,,,,0,0,0,0,,,,,0,1,1,2,0,41,41,41,,,,,,,,,,,,,,,,,,,,,,,,,,,,,,,,,,,,,,,,,,,,,,,,,,,,,CS1_USneg,None,1,,,,,,,,,,,,,,,,,,20,m,127,n,2019_Nov_20_1114,ec_RRR,3.0.4,59.877819937766084,
Gawronski,"For this task, the target creature is Grubbin:","So whenever Grubbin (his name or his picture) appears on the screen, hit the spacebar as quickly as possible. Hit the spacebar whenever you see an image of Grubbin or the word GRUBBIN. 

Press the spacebar to start the task",target3,stimuli/t3.jpg,127,43,stimuli/filler44.jpg,filler,False,None,,,,,,,,,,,,,,0,0,0,0,,,,,0,1,1,2,0,42,42,42,,,,,,,,,,,,,,,,,,,,,,,,,,,,,,,,,,,,,,,,,,,,,,,,,,,,,CS1_USneg,None,1,,,,,,,,,,,,,,,,,,20,m,127,n,2019_Nov_20_1114,ec_RRR,3.0.4,59.877819937766084,
Gawronski,"For this task, the target creature is Grubbin:","So whenever Grubbin (his name or his picture) appears on the screen, hit the spacebar as quickly as possible. Hit the spacebar whenever you see an image of Grubbin or the word GRUBBIN. 

Press the spacebar to start the task",target3,stimuli/t3.jpg,127,44,stimuli/filler10.jpg,filler,False,None,,,,,,,,,,,,,,0,0,0,0,,,,,0,1,1,2,0,43,43,43,,,,,,,,,,,,,,,,,,,,,,,,,,,,,,,,,,,,,,,,,,,,,,,,,,,,,CS1_USneg,None,1,,,,,,,,,,,,,,,,,,20,m,127,n,2019_Nov_20_1114,ec_RRR,3.0.4,59.877819937766084,
Gawronski,"For this task, the target creature is Grubbin:","So whenever Grubbin (his name or his picture) appears on the screen, hit the spacebar as quickly as possible. Hit the spacebar whenever you see an image of Grubbin or the word GRUBBIN. 

Press the spacebar to start the task",target3,stimuli/t3.jpg,127,45,stimuli/filler26.jpg,filler,False,None,,,,,,,,,,,,,,0,0,0,0,,,,,0,1,1,2,0,44,44,44,,,,,,,,,,,,,,,,,,,,,,,,,,,,,,,,,,,,,,,,,,,,,,,,,,,,,CS1_USneg,None,1,,,,,,,,,,,,,,,,,,20,m,127,n,2019_Nov_20_1114,ec_RRR,3.0.4,59.877819937766084,
Gawronski,"For this task, the target creature is Grubbin:","So whenever Grubbin (his name or his picture) appears on the screen, hit the spacebar as quickly as possible. Hit the spacebar whenever you see an image of Grubbin or the word GRUBBIN. 

Press the spacebar to start the task",target3,stimuli/t3.jpg,127,46,stimuli/target3_8.jpg,target,True,space,,,,,,,,,,,,,,0,0,0,0,,,,,0,1,1,2,0,45,45,45,,,,,,,,,,,,,,,,,,,,,,,,,,,,,,,,,,,,,,,,,,,,,,,,,,,,,CS1_USneg,space,1,0.5863028499807115,,,,,,,,,,,,,,,,,20,m,127,n,2019_Nov_20_1114,ec_RRR,3.0.4,59.877819937766084,
Gawronski,"For this task, the target creature is Grubbin:","So whenever Grubbin (his name or his picture) appears on the screen, hit the spacebar as quickly as possible. Hit the spacebar whenever you see an image of Grubbin or the word GRUBBIN. 

Press the spacebar to start the task",target3,stimuli/t3.jpg,127,47,stimuli/filler2.jpg,filler,False,None,,,,,,,,,,,,,,0,0,0,0,,,,,0,1,1,2,0,46,46,46,,,,,,,,,,,,,,,,,,,,,,,,,,,,,,,,,,,,,,,,,,,,,,,,,,,,,CS1_USneg,None,1,,,,,,,,,,,,,,,,,,20,m,127,n,2019_Nov_20_1114,ec_RRR,3.0.4,59.877819937766084,
Gawronski,"For this task, the target creature is Grubbin:","So whenever Grubbin (his name or his picture) appears on the screen, hit the spacebar as quickly as possible. Hit the spacebar whenever you see an image of Grubbin or the word GRUBBIN. 

Press the spacebar to start the task",target3,stimuli/t3.jpg,127,48,stimuli/filler12.jpg,filler,False,None,,,,,,,,,,,,,,0,0,0,0,,,,,0,1,1,2,0,47,47,47,,,,,,,,,,,,,,,,,,,,,,,,,,,,,,,,,,,,,,,,,,,,,,,,,,,,,CS1_USneg,None,1,,,,,,,,,,,,,,,,,,20,m,127,n,2019_Nov_20_1114,ec_RRR,3.0.4,59.877819937766084,
Gawronski,"For this task, the target creature is Grubbin:","So whenever Grubbin (his name or his picture) appears on the screen, hit the spacebar as quickly as possible. Hit the spacebar whenever you see an image of Grubbin or the word GRUBBIN. 

Press the spacebar to start the task",target3,stimuli/t3.jpg,127,49,stimuli/filler23.jpg,filler,False,None,,,,,,,,,,,,,,0,0,0,0,,,,,0,1,1,2,0,48,48,48,,,,,,,,,,,,,,,,,,,,,,,,,,,,,,,,,,,,,,,,,,,,,,,,,,,,,CS1_USneg,None,1,,,,,,,,,,,,,,,,,,20,m,127,n,2019_Nov_20_1114,ec_RRR,3.0.4,59.877819937766084,
Gawronski,"For this task, the target creature is Grubbin:","So whenever Grubbin (his name or his picture) appears on the screen, hit the spacebar as quickly as possible. Hit the spacebar whenever you see an image of Grubbin or the word GRUBBIN. 

Press the spacebar to start the task",target3,stimuli/t3.jpg,127,50,stimuli/blank.jpg,blank,False,None,,,,,,,,,,,,,,0,0,0,0,,,,,0,1,1,2,0,49,49,49,,,,,,,,,,,,,,,,,,,,,,,,,,,,,,,,,,,,,,,,,,,,,,,,,,,,,CS1_USneg,None,1,,,,,,,,,,,,,,,,,,20,m,127,n,2019_Nov_20_1114,ec_RRR,3.0.4,59.877819937766084,
Gawronski,"For this task, the target creature is Grubbin:","So whenever Grubbin (his name or his picture) appears on the screen, hit the spacebar as quickly as possible. Hit the spacebar whenever you see an image of Grubbin or the word GRUBBIN. 

Press the spacebar to start the task",target3,stimuli/t3.jpg,127,51,stimuli/cs1_neg4.jpg,CSUS,False,None,,,,,,,,,,,,,,0,0,0,0,,,,,0,1,1,2,0,50,50,50,,,,,,,,,,,,,,,,,,,,,,,,,,,,,,,,,,,,,,,,,,,,,,,,,,,,,CS1_USneg,None,1,,,,,,,,,,,,,,,,,,20,m,127,n,2019_Nov_20_1114,ec_RRR,3.0.4,59.877819937766084,
Gawronski,"For this task, the target creature is Grubbin:","So whenever Grubbin (his name or his picture) appears on the screen, hit the spacebar as quickly as possible. Hit the spacebar whenever you see an image of Grubbin or the word GRUBBIN. 

Press the spacebar to start the task",target3,stimuli/t3.jpg,127,52,stimuli/blank.jpg,blank,False,None,,,,,,,,,,,,,,0,0,0,0,,,,,0,1,1,2,0,51,51,51,,,,,,,,,,,,,,,,,,,,,,,,,,,,,,,,,,,,,,,,,,,,,,,,,,,,,CS1_USneg,None,1,,,,,,,,,,,,,,,,,,20,m,127,n,2019_Nov_20_1114,ec_RRR,3.0.4,59.877819937766084,
Gawronski,"For this task, the target creature is Grubbin:","So whenever Grubbin (his name or his picture) appears on the screen, hit the spacebar as quickly as possible. Hit the spacebar whenever you see an image of Grubbin or the word GRUBBIN. 

Press the spacebar to start the task",target3,stimuli/t3.jpg,127,53,stimuli/filler32.jpg,filler,False,None,,,,,,,,,,,,,,0,0,0,0,,,,,0,1,1,2,0,52,52,52,,,,,,,,,,,,,,,,,,,,,,,,,,,,,,,,,,,,,,,,,,,,,,,,,,,,,CS1_USneg,None,1,,,,,,,,,,,,,,,,,,20,m,127,n,2019_Nov_20_1114,ec_RRR,3.0.4,59.877819937766084,
Gawronski,"For this task, the target creature is Grubbin:","So whenever Grubbin (his name or his picture) appears on the screen, hit the spacebar as quickly as possible. Hit the spacebar whenever you see an image of Grubbin or the word GRUBBIN. 

Press the spacebar to start the task",target3,stimuli/t3.jpg,127,54,stimuli/filler14.jpg,filler,False,None,,,,,,,,,,,,,,0,0,0,0,,,,,0,1,1,2,0,53,53,53,,,,,,,,,,,,,,,,,,,,,,,,,,,,,,,,,,,,,,,,,,,,,,,,,,,,,CS1_USneg,None,1,,,,,,,,,,,,,,,,,,20,m,127,n,2019_Nov_20_1114,ec_RRR,3.0.4,59.877819937766084,
Gawronski,"For this task, the target creature is Grubbin:","So whenever Grubbin (his name or his picture) appears on the screen, hit the spacebar as quickly as possible. Hit the spacebar whenever you see an image of Grubbin or the word GRUBBIN. 

Press the spacebar to start the task",target3,stimuli/t3.jpg,127,55,stimuli/filler27.jpg,filler,False,None,,,,,,,,,,,,,,0,0,0,0,,,,,0,1,1,2,0,54,54,54,,,,,,,,,,,,,,,,,,,,,,,,,,,,,,,,,,,,,,,,,,,,,,,,,,,,,CS1_USneg,None,1,,,,,,,,,,,,,,,,,,20,m,127,n,2019_Nov_20_1114,ec_RRR,3.0.4,59.877819937766084,
Gawronski,"For this task, the target creature is Grubbin:","So whenever Grubbin (his name or his picture) appears on the screen, hit the spacebar as quickly as possible. Hit the spacebar whenever you see an image of Grubbin or the word GRUBBIN. 

Press the spacebar to start the task",target3,stimuli/t3.jpg,127,56,stimuli/filler36.jpg,filler,False,None,,,,,,,,,,,,,,0,0,0,0,,,,,0,1,1,2,0,55,55,55,,,,,,,,,,,,,,,,,,,,,,,,,,,,,,,,,,,,,,,,,,,,,,,,,,,,,CS1_USneg,None,1,,,,,,,,,,,,,,,,,,20,m,127,n,2019_Nov_20_1114,ec_RRR,3.0.4,59.877819937766084,
Gawronski,"For this task, the target creature is Grubbin:","So whenever Grubbin (his name or his picture) appears on the screen, hit the spacebar as quickly as possible. Hit the spacebar whenever you see an image of Grubbin or the word GRUBBIN. 

Press the spacebar to start the task",target3,stimuli/t3.jpg,127,57,stimuli/filler22.jpg,filler,False,None,,,,,,,,,,,,,,0,0,0,0,,,,,0,1,1,2,0,56,56,56,,,,,,,,,,,,,,,,,,,,,,,,,,,,,,,,,,,,,,,,,,,,,,,,,,,,,CS1_USneg,None,1,,,,,,,,,,,,,,,,,,20,m,127,n,2019_Nov_20_1114,ec_RRR,3.0.4,59.877819937766084,
Gawronski,"For this task, the target creature is Grubbin:","So whenever Grubbin (his name or his picture) appears on the screen, hit the spacebar as quickly as possible. Hit the spacebar whenever you see an image of Grubbin or the word GRUBBIN. 

Press the spacebar to start the task",target3,stimuli/t3.jpg,127,58,stimuli/filler49.jpg,filler,False,None,,,,,,,,,,,,,,0,0,0,0,,,,,0,1,1,2,0,57,57,57,,,,,,,,,,,,,,,,,,,,,,,,,,,,,,,,,,,,,,,,,,,,,,,,,,,,,CS1_USneg,None,1,,,,,,,,,,,,,,,,,,20,m,127,n,2019_Nov_20_1114,ec_RRR,3.0.4,59.877819937766084,
Gawronski,"For this task, the target creature is Grubbin:","So whenever Grubbin (his name or his picture) appears on the screen, hit the spacebar as quickly as possible. Hit the spacebar whenever you see an image of Grubbin or the word GRUBBIN. 

Press the spacebar to start the task",target3,stimuli/t3.jpg,127,59,stimuli/filler20.jpg,filler,False,None,,,,,,,,,,,,,,0,0,0,0,,,,,0,1,1,2,0,58,58,58,,,,,,,,,,,,,,,,,,,,,,,,,,,,,,,,,,,,,,,,,,,,,,,,,,,,,CS1_USneg,None,1,,,,,,,,,,,,,,,,,,20,m,127,n,2019_Nov_20_1114,ec_RRR,3.0.4,59.877819937766084,
Gawronski,"For this task, the target creature is Grubbin:","So whenever Grubbin (his name or his picture) appears on the screen, hit the spacebar as quickly as possible. Hit the spacebar whenever you see an image of Grubbin or the word GRUBBIN. 

Press the spacebar to start the task",target3,stimuli/t3.jpg,127,60,stimuli/blank.jpg,blank,False,None,,,,,,,,,,,,,,0,0,0,0,,,,,0,1,1,2,0,59,59,59,,,,,,,,,,,,,,,,,,,,,,,,,,,,,,,,,,,,,,,,,,,,,,,,,,,,,CS1_USneg,None,1,,,,,,,,,,,,,,,,,,20,m,127,n,2019_Nov_20_1114,ec_RRR,3.0.4,59.877819937766084,
Gawronski,"For this task, the target creature is Grubbin:","So whenever Grubbin (his name or his picture) appears on the screen, hit the spacebar as quickly as possible. Hit the spacebar whenever you see an image of Grubbin or the word GRUBBIN. 

Press the spacebar to start the task",target3,stimuli/t3.jpg,127,61,stimuli/cs2_pos19.jpg,CSUS,False,None,,,,,,,,,,,,,,0,0,0,0,,,,,0,1,1,2,0,60,60,60,,,,,,,,,,,,,,,,,,,,,,,,,,,,,,,,,,,,,,,,,,,,,,,,,,,,,CS1_USneg,None,1,,,,,,,,,,,,,,,,,,20,m,127,n,2019_Nov_20_1114,ec_RRR,3.0.4,59.877819937766084,
Gawronski,"For this task, the target creature is Grubbin:","So whenever Grubbin (his name or his picture) appears on the screen, hit the spacebar as quickly as possible. Hit the spacebar whenever you see an image of Grubbin or the word GRUBBIN. 

Press the spacebar to start the task",target3,stimuli/t3.jpg,127,62,stimuli/blank.jpg,blank,False,None,,,,,,,,,,,,,,0,0,0,0,,,,,0,1,1,2,0,61,61,61,,,,,,,,,,,,,,,,,,,,,,,,,,,,,,,,,,,,,,,,,,,,,,,,,,,,,CS1_USneg,None,1,,,,,,,,,,,,,,,,,,20,m,127,n,2019_Nov_20_1114,ec_RRR,3.0.4,59.877819937766084,
Gawronski,"For this task, the target creature is Grubbin:","So whenever Grubbin (his name or his picture) appears on the screen, hit the spacebar as quickly as possible. Hit the spacebar whenever you see an image of Grubbin or the word GRUBBIN. 

Press the spacebar to start the task",target3,stimuli/t3.jpg,127,63,stimuli/filler21.jpg,filler,False,None,,,,,,,,,,,,,,0,0,0,0,,,,,0,1,1,2,0,62,62,62,,,,,,,,,,,,,,,,,,,,,,,,,,,,,,,,,,,,,,,,,,,,,,,,,,,,,CS1_USneg,None,1,,,,,,,,,,,,,,,,,,20,m,127,n,2019_Nov_20_1114,ec_RRR,3.0.4,59.877819937766084,
Gawronski,"For this task, the target creature is Grubbin:","So whenever Grubbin (his name or his picture) appears on the screen, hit the spacebar as quickly as possible. Hit the spacebar whenever you see an image of Grubbin or the word GRUBBIN. 

Press the spacebar to start the task",target3,stimuli/t3.jpg,127,64,stimuli/filler46.jpg,filler,False,None,,,,,,,,,,,,,,0,0,0,0,,,,,0,1,1,2,0,63,63,63,,,,,,,,,,,,,,,,,,,,,,,,,,,,,,,,,,,,,,,,,,,,,,,,,,,,,CS1_USneg,None,1,,,,,,,,,,,,,,,,,,20,m,127,n,2019_Nov_20_1114,ec_RRR,3.0.4,59.877819937766084,
Gawronski,"For this task, the target creature is Grubbin:","So whenever Grubbin (his name or his picture) appears on the screen, hit the spacebar as quickly as possible. Hit the spacebar whenever you see an image of Grubbin or the word GRUBBIN. 

Press the spacebar to start the task",target3,stimuli/t3.jpg,127,65,stimuli/filler25.jpg,filler,False,None,,,,,,,,,,,,,,0,0,0,0,,,,,0,1,1,2,0,64,64,64,,,,,,,,,,,,,,,,,,,,,,,,,,,,,,,,,,,,,,,,,,,,,,,,,,,,,CS1_USneg,None,1,,,,,,,,,,,,,,,,,,20,m,127,n,2019_Nov_20_1114,ec_RRR,3.0.4,59.877819937766084,
Gawronski,"For this task, the target creature is Grubbin:","So whenever Grubbin (his name or his picture) appears on the screen, hit the spacebar as quickly as possible. Hit the spacebar whenever you see an image of Grubbin or the word GRUBBIN. 

Press the spacebar to start the task",target3,stimuli/t3.jpg,127,66,stimuli/filler40.jpg,filler,False,None,,,,,,,,,,,,,,0,0,0,0,,,,,0,1,1,2,0,65,65,65,,,,,,,,,,,,,,,,,,,,,,,,,,,,,,,,,,,,,,,,,,,,,,,,,,,,,CS1_USneg,None,1,,,,,,,,,,,,,,,,,,20,m,127,n,2019_Nov_20_1114,ec_RRR,3.0.4,59.877819937766084,
Gawronski,"For this task, the target creature is Grubbin:","So whenever Grubbin (his name or his picture) appears on the screen, hit the spacebar as quickly as possible. Hit the spacebar whenever you see an image of Grubbin or the word GRUBBIN. 

Press the spacebar to start the task",target3,stimuli/t3.jpg,127,67,stimuli/filler29.jpg,filler,False,None,,,,,,,,,,,,,,0,0,0,0,,,,,0,1,1,2,0,66,66,66,,,,,,,,,,,,,,,,,,,,,,,,,,,,,,,,,,,,,,,,,,,,,,,,,,,,,CS1_USneg,None,1,,,,,,,,,,,,,,,,,,20,m,127,n,2019_Nov_20_1114,ec_RRR,3.0.4,59.877819937766084,
Gawronski,"For this task, the target creature is Grubbin:","So whenever Grubbin (his name or his picture) appears on the screen, hit the spacebar as quickly as possible. Hit the spacebar whenever you see an image of Grubbin or the word GRUBBIN. 

Press the spacebar to start the task",target3,stimuli/t3.jpg,127,68,stimuli/filler43.jpg,filler,False,None,,,,,,,,,,,,,,0,0,0,0,,,,,0,1,1,2,0,67,67,67,,,,,,,,,,,,,,,,,,,,,,,,,,,,,,,,,,,,,,,,,,,,,,,,,,,,,CS1_USneg,None,1,,,,,,,,,,,,,,,,,,20,m,127,n,2019_Nov_20_1114,ec_RRR,3.0.4,59.877819937766084,
Gawronski,"For this task, the target creature is Grubbin:","So whenever Grubbin (his name or his picture) appears on the screen, hit the spacebar as quickly as possible. Hit the spacebar whenever you see an image of Grubbin or the word GRUBBIN. 

Press the spacebar to start the task",target3,stimuli/t3.jpg,127,69,stimuli/filler51.jpg,filler,False,None,,,,,,,,,,,,,,0,0,0,0,,,,,0,1,1,2,0,68,68,68,,,,,,,,,,,,,,,,,,,,,,,,,,,,,,,,,,,,,,,,,,,,,,,,,,,,,CS1_USneg,None,1,,,,,,,,,,,,,,,,,,20,m,127,n,2019_Nov_20_1114,ec_RRR,3.0.4,59.877819937766084,
Gawronski,"For this task, the target creature is Grubbin:","So whenever Grubbin (his name or his picture) appears on the screen, hit the spacebar as quickly as possible. Hit the spacebar whenever you see an image of Grubbin or the word GRUBBIN. 

Press the spacebar to start the task",target3,stimuli/t3.jpg,127,70,stimuli/blank.jpg,blank,False,None,,,,,,,,,,,,,,0,0,0,0,,,,,0,1,1,2,0,69,69,69,,,,,,,,,,,,,,,,,,,,,,,,,,,,,,,,,,,,,,,,,,,,,,,,,,,,,CS1_USneg,None,1,,,,,,,,,,,,,,,,,,20,m,127,n,2019_Nov_20_1114,ec_RRR,3.0.4,59.877819937766084,
Gawronski,"For this task, the target creature is Grubbin:","So whenever Grubbin (his name or his picture) appears on the screen, hit the spacebar as quickly as possible. Hit the spacebar whenever you see an image of Grubbin or the word GRUBBIN. 

Press the spacebar to start the task",target3,stimuli/t3.jpg,127,71,stimuli/cs1_neg5.jpg,CSUS,False,None,,,,,,,,,,,,,,0,0,0,0,,,,,0,1,1,2,0,70,70,70,,,,,,,,,,,,,,,,,,,,,,,,,,,,,,,,,,,,,,,,,,,,,,,,,,,,,CS1_USneg,None,1,,,,,,,,,,,,,,,,,,20,m,127,n,2019_Nov_20_1114,ec_RRR,3.0.4,59.877819937766084,
Gawronski,"For this task, the target creature is Grubbin:","So whenever Grubbin (his name or his picture) appears on the screen, hit the spacebar as quickly as possible. Hit the spacebar whenever you see an image of Grubbin or the word GRUBBIN. 

Press the spacebar to start the task",target3,stimuli/t3.jpg,127,72,stimuli/blank.jpg,blank,False,None,,,,,,,,,,,,,,0,0,0,0,,,,,0,1,1,2,0,71,71,71,,,,,,,,,,,,,,,,,,,,,,,,,,,,,,,,,,,,,,,,,,,,,,,,,,,,,CS1_USneg,None,1,,,,,,,,,,,,,,,,,,20,m,127,n,2019_Nov_20_1114,ec_RRR,3.0.4,59.877819937766084,
Gawronski,"For this task, the target creature is Grubbin:","So whenever Grubbin (his name or his picture) appears on the screen, hit the spacebar as quickly as possible. Hit the spacebar whenever you see an image of Grubbin or the word GRUBBIN. 

Press the spacebar to start the task",target3,stimuli/t3.jpg,127,73,stimuli/filler13.jpg,filler,False,None,,,,,,,,,,,,,,0,0,0,0,,,,,0,1,1,2,0,72,72,72,,,,,,,,,,,,,,,,,,,,,,,,,,,,,,,,,,,,,,,,,,,,,,,,,,,,,CS1_USneg,None,1,,,,,,,,,,,,,,,,,,20,m,127,n,2019_Nov_20_1114,ec_RRR,3.0.4,59.877819937766084,
Gawronski,"For this task, the target creature is Grubbin:","So whenever Grubbin (his name or his picture) appears on the screen, hit the spacebar as quickly as possible. Hit the spacebar whenever you see an image of Grubbin or the word GRUBBIN. 

Press the spacebar to start the task",target3,stimuli/t3.jpg,127,74,stimuli/filler8.jpg,filler,False,None,,,,,,,,,,,,,,0,0,0,0,,,,,0,1,1,2,0,73,73,73,,,,,,,,,,,,,,,,,,,,,,,,,,,,,,,,,,,,,,,,,,,,,,,,,,,,,CS1_USneg,None,1,,,,,,,,,,,,,,,,,,20,m,127,n,2019_Nov_20_1114,ec_RRR,3.0.4,59.877819937766084,
Gawronski,"For this task, the target creature is Grubbin:","So whenever Grubbin (his name or his picture) appears on the screen, hit the spacebar as quickly as possible. Hit the spacebar whenever you see an image of Grubbin or the word GRUBBIN. 

Press the spacebar to start the task",target3,stimuli/t3.jpg,127,75,stimuli/filler3.jpg,filler,False,None,,,,,,,,,,,,,,0,0,0,0,,,,,0,1,1,2,0,74,74,74,,,,,,,,,,,,,,,,,,,,,,,,,,,,,,,,,,,,,,,,,,,,,,,,,,,,,CS1_USneg,None,1,,,,,,,,,,,,,,,,,,20,m,127,n,2019_Nov_20_1114,ec_RRR,3.0.4,59.877819937766084,
Gawronski,"For this task, the target creature is Grubbin:","So whenever Grubbin (his name or his picture) appears on the screen, hit the spacebar as quickly as possible. Hit the spacebar whenever you see an image of Grubbin or the word GRUBBIN. 

Press the spacebar to start the task",target3,stimuli/t3.jpg,127,76,stimuli/filler47.jpg,filler,False,None,,,,,,,,,,,,,,0,0,0,0,,,,,0,1,1,2,0,75,75,75,,,,,,,,,,,,,,,,,,,,,,,,,,,,,,,,,,,,,,,,,,,,,,,,,,,,,CS1_USneg,None,1,,,,,,,,,,,,,,,,,,20,m,127,n,2019_Nov_20_1114,ec_RRR,3.0.4,59.877819937766084,
Gawronski,"For this task, the target creature is Grubbin:","So whenever Grubbin (his name or his picture) appears on the screen, hit the spacebar as quickly as possible. Hit the spacebar whenever you see an image of Grubbin or the word GRUBBIN. 

Press the spacebar to start the task",target3,stimuli/t3.jpg,127,77,stimuli/target3_10.jpg,target,True,space,,,,,,,,,,,,,,0,0,0,0,,,,,0,1,1,2,0,76,76,76,,,,,,,,,,,,,,,,,,,,,,,,,,,,,,,,,,,,,,,,,,,,,,,,,,,,,CS1_USneg,space,1,0.6860079991020029,,,,,,,,,,,,,,,,,20,m,127,n,2019_Nov_20_1114,ec_RRR,3.0.4,59.877819937766084,
Gawronski,"For this task, the target creature is Grubbin:","So whenever Grubbin (his name or his picture) appears on the screen, hit the spacebar as quickly as possible. Hit the spacebar whenever you see an image of Grubbin or the word GRUBBIN. 

Press the spacebar to start the task",target3,stimuli/t3.jpg,127,78,stimuli/filler45.jpg,filler,False,None,,,,,,,,,,,,,,0,0,0,0,,,,,0,1,1,2,0,77,77,77,,,,,,,,,,,,,,,,,,,,,,,,,,,,,,,,,,,,,,,,,,,,,,,,,,,,,CS1_USneg,None,1,,,,,,,,,,,,,,,,,,20,m,127,n,2019_Nov_20_1114,ec_RRR,3.0.4,59.877819937766084,
Gawronski,"For this task, the target creature is Grubbin:","So whenever Grubbin (his name or his picture) appears on the screen, hit the spacebar as quickly as possible. Hit the spacebar whenever you see an image of Grubbin or the word GRUBBIN. 

Press the spacebar to start the task",target3,stimuli/t3.jpg,127,79,stimuli/filler11.jpg,filler,False,None,,,,,,,,,,,,,,0,0,0,0,,,,,0,1,1,2,0,78,78,78,,,,,,,,,,,,,,,,,,,,,,,,,,,,,,,,,,,,,,,,,,,,,,,,,,,,,CS1_USneg,None,1,,,,,,,,,,,,,,,,,,20,m,127,n,2019_Nov_20_1114,ec_RRR,3.0.4,59.877819937766084,
Gawronski,"For this task, the target creature is Grubbin:","So whenever Grubbin (his name or his picture) appears on the screen, hit the spacebar as quickly as possible. Hit the spacebar whenever you see an image of Grubbin or the word GRUBBIN. 

Press the spacebar to start the task",target3,stimuli/t3.jpg,127,80,stimuli/blank.jpg,blank,False,None,,,,,,,,,,,,,,0,0,0,0,,,,,0,1,1,2,0,79,79,79,,,,,,,,,,,,,,,,,,,,,,,,,,,,,,,,,,,,,,,,,,,,,,,,,,,,,CS1_USneg,None,1,,,,,,,,,,,,,,,,,,20,m,127,n,2019_Nov_20_1114,ec_RRR,3.0.4,59.877819937766084,
Gawronski,"For this task, the target creature is Grubbin:","So whenever Grubbin (his name or his picture) appears on the screen, hit the spacebar as quickly as possible. Hit the spacebar whenever you see an image of Grubbin or the word GRUBBIN. 

Press the spacebar to start the task",target3,stimuli/t3.jpg,127,81,stimuli/cs2_pos20.jpg,CSUS,False,None,,,,,,,,,,,,,,0,0,0,0,,,,,0,1,1,2,0,80,80,80,,,,,,,,,,,,,,,,,,,,,,,,,,,,,,,,,,,,,,,,,,,,,,,,,,,,,CS1_USneg,None,1,,,,,,,,,,,,,,,,,,20,m,127,n,2019_Nov_20_1114,ec_RRR,3.0.4,59.877819937766084,
Gawronski,"For this task, the target creature is Grubbin:","So whenever Grubbin (his name or his picture) appears on the screen, hit the spacebar as quickly as possible. Hit the spacebar whenever you see an image of Grubbin or the word GRUBBIN. 

Press the spacebar to start the task",target3,stimuli/t3.jpg,127,82,stimuli/blank.jpg,blank,False,None,,,,,,,,,,,,,,0,0,0,0,,,,,0,1,1,2,0,81,81,81,,,,,,,,,,,,,,,,,,,,,,,,,,,,,,,,,,,,,,,,,,,,,,,,,,,,,CS1_USneg,None,1,,,,,,,,,,,,,,,,,,20,m,127,n,2019_Nov_20_1114,ec_RRR,3.0.4,59.877819937766084,
Gawronski,"For this task, the target creature is Grubbin:","So whenever Grubbin (his name or his picture) appears on the screen, hit the spacebar as quickly as possible. Hit the spacebar whenever you see an image of Grubbin or the word GRUBBIN. 

Press the spacebar to start the task",target3,stimuli/t3.jpg,127,83,stimuli/filler41.jpg,filler,False,None,,,,,,,,,,,,,,0,0,0,0,,,,,0,1,1,2,0,82,82,82,,,,,,,,,,,,,,,,,,,,,,,,,,,,,,,,,,,,,,,,,,,,,,,,,,,,,CS1_USneg,None,1,,,,,,,,,,,,,,,,,,20,m,127,n,2019_Nov_20_1114,ec_RRR,3.0.4,59.877819937766084,
Gawronski,"For this task, the target creature is Grubbin:","So whenever Grubbin (his name or his picture) appears on the screen, hit the spacebar as quickly as possible. Hit the spacebar whenever you see an image of Grubbin or the word GRUBBIN. 

Press the spacebar to start the task",target3,stimuli/t3.jpg,127,84,stimuli/target3_6.jpg,target,True,space,,,,,,,,,,,,,,0,0,0,0,,,,,0,1,1,2,0,83,83,83,,,,,,,,,,,,,,,,,,,,,,,,,,,,,,,,,,,,,,,,,,,,,,,,,,,,,CS1_USneg,space,1,1.0029776543742628,,,,,,,,,,,,,,,,,20,m,127,n,2019_Nov_20_1114,ec_RRR,3.0.4,59.877819937766084,
Gawronski,"For this task, the target creature is Grubbin:","So whenever Grubbin (his name or his picture) appears on the screen, hit the spacebar as quickly as possible. Hit the spacebar whenever you see an image of Grubbin or the word GRUBBIN. 

Press the spacebar to start the task",target3,stimuli/t3.jpg,127,85,stimuli/filler38.jpg,filler,False,None,,,,,,,,,,,,,,0,0,0,0,,,,,0,1,1,2,0,84,84,84,,,,,,,,,,,,,,,,,,,,,,,,,,,,,,,,,,,,,,,,,,,,,,,,,,,,,CS1_USneg,None,1,,,,,,,,,,,,,,,,,,20,m,127,n,2019_Nov_20_1114,ec_RRR,3.0.4,59.877819937766084,
Gawronski,"For this task, the target creature is Grubbin:","So whenever Grubbin (his name or his picture) appears on the screen, hit the spacebar as quickly as possible. Hit the spacebar whenever you see an image of Grubbin or the word GRUBBIN. 

Press the spacebar to start the task",target3,stimuli/t3.jpg,127,86,stimuli/filler24.jpg,filler,False,None,,,,,,,,,,,,,,0,0,0,0,,,,,0,1,1,2,0,85,85,85,,,,,,,,,,,,,,,,,,,,,,,,,,,,,,,,,,,,,,,,,,,,,,,,,,,,,CS1_USneg,None,1,,,,,,,,,,,,,,,,,,20,m,127,n,2019_Nov_20_1114,ec_RRR,3.0.4,59.877819937766084,
Gawronski,"For this task, the target creature is Golett:","So whenever Golett (his name or his picture) appears on the screen, hit the spacebar as quickly as possible. Hit the spacebar whenever you see an image of Golett or the word GOLETT. 

Press the spacebar to start the task",target5,stimuli/t5.jpg,127,1,stimuli/filler50.jpg,filler,False,None,,,,,,,,,,,,,,0,0,0,0,,,,,0,2,2,4,0,0,0,0,,,,,,,,,,,,,,,,,,,,,,,,,,,,,,,,,,,,,,,,,,,,,,,,,,,,,CS1_USneg,None,1,,,,,,,,,,,,,,,,,,20,m,127,n,2019_Nov_20_1114,ec_RRR,3.0.4,59.877819937766084,
Gawronski,"For this task, the target creature is Golett:","So whenever Golett (his name or his picture) appears on the screen, hit the spacebar as quickly as possible. Hit the spacebar whenever you see an image of Golett or the word GOLETT. 

Press the spacebar to start the task",target5,stimuli/t5.jpg,127,2,stimuli/target5_1.jpg,target,True,space,,,,,,,,,,,,,,0,0,0,0,,,,,0,2,2,4,0,1,1,1,,,,,,,,,,,,,,,,,,,,,,,,,,,,,,,,,,,,,,,,,,,,,,,,,,,,,CS1_USneg,space,1,0.551814641468809,,,,,,,,,,,,,,,,,20,m,127,n,2019_Nov_20_1114,ec_RRR,3.0.4,59.877819937766084,
Gawronski,"For this task, the target creature is Golett:","So whenever Golett (his name or his picture) appears on the screen, hit the spacebar as quickly as possible. Hit the spacebar whenever you see an image of Golett or the word GOLETT. 

Press the spacebar to start the task",target5,stimuli/t5.jpg,127,3,stimuli/filler23.jpg,filler,False,None,,,,,,,,,,,,,,0,0,0,0,,,,,0,2,2,4,0,2,2,2,,,,,,,,,,,,,,,,,,,,,,,,,,,,,,,,,,,,,,,,,,,,,,,,,,,,,CS1_USneg,None,1,,,,,,,,,,,,,,,,,,20,m,127,n,2019_Nov_20_1114,ec_RRR,3.0.4,59.877819937766084,
Gawronski,"For this task, the target creature is Golett:","So whenever Golett (his name or his picture) appears on the screen, hit the spacebar as quickly as possible. Hit the spacebar whenever you see an image of Golett or the word GOLETT. 

Press the spacebar to start the task",target5,stimuli/t5.jpg,127,4,stimuli/target5_8.jpg,target,True,space,,,,,,,,,,,,,,0,0,0,0,,,,,0,2,2,4,0,3,3,3,,,,,,,,,,,,,,,,,,,,,,,,,,,,,,,,,,,,,,,,,,,,,,,,,,,,,CS1_USneg,space,1,0.6530095191774308,,,,,,,,,,,,,,,,,20,m,127,n,2019_Nov_20_1114,ec_RRR,3.0.4,59.877819937766084,
Gawronski,"For this task, the target creature is Golett:","So whenever Golett (his name or his picture) appears on the screen, hit the spacebar as quickly as possible. Hit the spacebar whenever you see an image of Golett or the word GOLETT. 

