data_collection_site,instructions_text_top,instructions_text_bottom,block_id,example_image,participant,trial_number,stimulus,trial_type,target_trial,surveillance_correct_response,filler_1_items,filler_2_items,middle_text,left_text,right_text,evaluation_stimulus,left_stimulus,right_stimulus,evaluation_response_indicating_CS1_preferred,awareness_1_question_text,awareness_2a_question_text,awareness_2b_question_text,awareness_2_question_text,record_data_collection_site_variable.thisRepN,record_data_collection_site_variable.thisTrialN,record_data_collection_site_variable.thisN,record_data_collection_site_variable.thisIndex,surveillance_instructions_loop.thisRepN,surveillance_instructions_loop.thisTrialN,surveillance_instructions_loop.thisN,surveillance_instructions_loop.thisIndex,surveillance_blocks_loop.thisRepN,surveillance_blocks_loop.thisTrialN,surveillance_blocks_loop.thisN,surveillance_blocks_loop.thisIndex,surveillance_trials_loop.thisRepN,surveillance_trials_loop.thisTrialN,surveillance_trials_loop.thisN,surveillance_trials_loop.thisIndex,filler_1_instructions_loop.thisRepN,filler_1_instructions_loop.thisTrialN,filler_1_instructions_loop.thisN,filler_1_instructions_loop.thisIndex,filler_1_loop.thisRepN,filler_1_loop.thisTrialN,filler_1_loop.thisN,filler_1_loop.thisIndex,filler_2_instructions_loop.thisRepN,filler_2_instructions_loop.thisTrialN,filler_2_instructions_loop.thisN,filler_2_instructions_loop.thisIndex,filler_2_loop.thisRepN,filler_2_loop.thisTrialN,filler_2_loop.thisN,filler_2_loop.thisIndex,evaluation_instructions_loop.thisRepN,evaluation_instructions_loop.thisTrialN,evaluation_instructions_loop.thisN,evaluation_instructions_loop.thisIndex,evaluation_loop.thisRepN,evaluation_loop.thisTrialN,evaluation_loop.thisN,evaluation_loop.thisIndex,evaluation_trials.thisRepN,evaluation_trials.thisTrialN,evaluation_trials.thisN,evaluation_trials.thisIndex,awareness_instructions_loop.thisRepN,awareness_instructions_loop.thisTrialN,awareness_instructions_loop.thisN,awareness_instructions_loop.thisIndex,awareness_1_trials_loop.thisRepN,awareness_1_trials_loop.thisTrialN,awareness_1_trials_loop.thisN,awareness_1_trials_loop.thisIndex,awareness_2a_trials_loop.thisRepN,awareness_2a_trials_loop.thisTrialN,awareness_2a_trials_loop.thisN,awareness_2a_trials_loop.thisIndex,awareness_2b_trials_loop.thisRepN,awareness_2b_trials_loop.thisTrialN,awareness_2b_trials_loop.thisN,awareness_2b_trials_loop.thisIndex,awareness_2c_trials_loop.thisRepN,awareness_2c_trials_loop.thisTrialN,awareness_2c_trials_loop.thisN,awareness_2c_trials_loop.thisIndex,end_message_loop.thisRepN,end_message_loop.thisTrialN,end_message_loop.thisN,end_message_loop.thisIndex,condition,surveillance_response.keys,surveillance_response.corr,surveillance_response.rt,filler_1_rating.response,filler_1_rating.rt,filler_2_rating.response,filler_2_rating.rt,evaluation_response.keys,evaluation_response.corr,evaluation_response.rt,inputText,awareness_1_response.keys,awareness_1_response.rt,awareness_type_2a_rating.response,awareness_type_2a_rating.rt,awareness_type_2b_rating.response,awareness_type_2b_rating.rt,awareness_type_2c_rating.response,awareness_type_2c_rating.rt,age,gender,participant,UseMonkey,date,expName,psychopyVersion,frameRate,
Vadillo,"Para esta tarea, el personaje clave es Shelmet:","De modo que siempre que veas a Shelmet (su nombre o su imagen) en la pantalla, pulsa la barra espaciadora tan rápido como sea posible. Pulsa la barra espaciadora cuando veas una imagen de Shelmet o la palabra SHELMET. 

Pulsa la barra espaciadora para comenzar la tarea.",target2,stimuli/t2.jpg,184,1,stimuli/target2_6.jpg,target,True,space,,,,,,,,,,,,,,0,0,0,0,,,,,0,0,0,1,0,0,0,0,,,,,,,,,,,,,,,,,,,,,,,,,,,,,,,,,,,,,,,,,,,,,,,,,,,,,CS1_USneg,space,1,0.8714121305383742,,,,,,,,,,,,,,,,,19,f,184,n,2019_Dec_05_1501,ec_RRR,3.0.4,59.79616672271678,
Vadillo,"Para esta tarea, el personaje clave es Shelmet:","De modo que siempre que veas a Shelmet (su nombre o su imagen) en la pantalla, pulsa la barra espaciadora tan rápido como sea posible. Pulsa la barra espaciadora cuando veas una imagen de Shelmet o la palabra SHELMET. 

Pulsa la barra espaciadora para comenzar la tarea.",target2,stimuli/t2.jpg,184,2,stimuli/filler7.jpg,filler,False,None,,,,,,,,,,,,,,0,0,0,0,,,,,0,0,0,1,0,1,1,1,,,,,,,,,,,,,,,,,,,,,,,,,,,,,,,,,,,,,,,,,,,,,,,,,,,,,CS1_USneg,None,1,,,,,,,,,,,,,,,,,,19,f,184,n,2019_Dec_05_1501,ec_RRR,3.0.4,59.79616672271678,
Vadillo,"Para esta tarea, el personaje clave es Shelmet:","De modo que siempre que veas a Shelmet (su nombre o su imagen) en la pantalla, pulsa la barra espaciadora tan rápido como sea posible. Pulsa la barra espaciadora cuando veas una imagen de Shelmet o la palabra SHELMET. 

Pulsa la barra espaciadora para comenzar la tarea.",target2,stimuli/t2.jpg,184,3,stimuli/filler22.jpg,filler,False,None,,,,,,,,,,,,,,0,0,0,0,,,,,0,0,0,1,0,2,2,2,,,,,,,,,,,,,,,,,,,,,,,,,,,,,,,,,,,,,,,,,,,,,,,,,,,,,CS1_USneg,None,1,,,,,,,,,,,,,,,,,,19,f,184,n,2019_Dec_05_1501,ec_RRR,3.0.4,59.79616672271678,
Vadillo,"Para esta tarea, el personaje clave es Shelmet:","De modo que siempre que veas a Shelmet (su nombre o su imagen) en la pantalla, pulsa la barra espaciadora tan rápido como sea posible. Pulsa la barra espaciadora cuando veas una imagen de Shelmet o la palabra SHELMET. 

Pulsa la barra espaciadora para comenzar la tarea.",target2,stimuli/t2.jpg,184,4,stimuli/filler50.jpg,filler,False,None,,,,,,,,,,,,,,0,0,0,0,,,,,0,0,0,1,0,3,3,3,,,,,,,,,,,,,,,,,,,,,,,,,,,,,,,,,,,,,,,,,,,,,,,,,,,,,CS1_USneg,None,1,,,,,,,,,,,,,,,,,,19,f,184,n,2019_Dec_05_1501,ec_RRR,3.0.4,59.79616672271678,
Vadillo,"Para esta tarea, el personaje clave es Shelmet:","De modo que siempre que veas a Shelmet (su nombre o su imagen) en la pantalla, pulsa la barra espaciadora tan rápido como sea posible. Pulsa la barra espaciadora cuando veas una imagen de Shelmet o la palabra SHELMET. 

Pulsa la barra espaciadora para comenzar la tarea.",target2,stimuli/t2.jpg,184,5,stimuli/filler45.jpg,filler,False,None,,,,,,,,,,,,,,0,0,0,0,,,,,0,0,0,1,0,4,4,4,,,,,,,,,,,,,,,,,,,,,,,,,,,,,,,,,,,,,,,,,,,,,,,,,,,,,CS1_USneg,None,1,,,,,,,,,,,,,,,,,,19,f,184,n,2019_Dec_05_1501,ec_RRR,3.0.4,59.79616672271678,
Vadillo,"Para esta tarea, el personaje clave es Shelmet:","De modo que siempre que veas a Shelmet (su nombre o su imagen) en la pantalla, pulsa la barra espaciadora tan rápido como sea posible. Pulsa la barra espaciadora cuando veas una imagen de Shelmet o la palabra SHELMET. 

Pulsa la barra espaciadora para comenzar la tarea.",target2,stimuli/t2.jpg,184,6,stimuli/filler20.jpg,filler,False,None,,,,,,,,,,,,,,0,0,0,0,,,,,0,0,0,1,0,5,5,5,,,,,,,,,,,,,,,,,,,,,,,,,,,,,,,,,,,,,,,,,,,,,,,,,,,,,CS1_USneg,None,1,,,,,,,,,,,,,,,,,,19,f,184,n,2019_Dec_05_1501,ec_RRR,3.0.4,59.79616672271678,
Vadillo,"Para esta tarea, el personaje clave es Shelmet:","De modo que siempre que veas a Shelmet (su nombre o su imagen) en la pantalla, pulsa la barra espaciadora tan rápido como sea posible. Pulsa la barra espaciadora cuando veas una imagen de Shelmet o la palabra SHELMET. 

Pulsa la barra espaciadora para comenzar la tarea.",target2,stimuli/t2.jpg,184,7,stimuli/filler9.jpg,filler,False,None,,,,,,,,,,,,,,0,0,0,0,,,,,0,0,0,1,0,6,6,6,,,,,,,,,,,,,,,,,,,,,,,,,,,,,,,,,,,,,,,,,,,,,,,,,,,,,CS1_USneg,None,1,,,,,,,,,,,,,,,,,,19,f,184,n,2019_Dec_05_1501,ec_RRR,3.0.4,59.79616672271678,
Vadillo,"Para esta tarea, el personaje clave es Shelmet:","De modo que siempre que veas a Shelmet (su nombre o su imagen) en la pantalla, pulsa la barra espaciadora tan rápido como sea posible. Pulsa la barra espaciadora cuando veas una imagen de Shelmet o la palabra SHELMET. 

Pulsa la barra espaciadora para comenzar la tarea.",target2,stimuli/t2.jpg,184,8,stimuli/filler24.jpg,filler,False,None,,,,,,,,,,,,,,0,0,0,0,,,,,0,0,0,1,0,7,7,7,,,,,,,,,,,,,,,,,,,,,,,,,,,,,,,,,,,,,,,,,,,,,,,,,,,,,CS1_USneg,None,1,,,,,,,,,,,,,,,,,,19,f,184,n,2019_Dec_05_1501,ec_RRR,3.0.4,59.79616672271678,
Vadillo,"Para esta tarea, el personaje clave es Shelmet:","De modo que siempre que veas a Shelmet (su nombre o su imagen) en la pantalla, pulsa la barra espaciadora tan rápido como sea posible. Pulsa la barra espaciadora cuando veas una imagen de Shelmet o la palabra SHELMET. 

Pulsa la barra espaciadora para comenzar la tarea.",target2,stimuli/t2.jpg,184,9,stimuli/filler42.jpg,filler,False,None,,,,,,,,,,,,,,0,0,0,0,,,,,0,0,0,1,0,8,8,8,,,,,,,,,,,,,,,,,,,,,,,,,,,,,,,,,,,,,,,,,,,,,,,,,,,,,CS1_USneg,None,1,,,,,,,,,,,,,,,,,,19,f,184,n,2019_Dec_05_1501,ec_RRR,3.0.4,59.79616672271678,
Vadillo,"Para esta tarea, el personaje clave es Shelmet:","De modo que siempre que veas a Shelmet (su nombre o su imagen) en la pantalla, pulsa la barra espaciadora tan rápido como sea posible. Pulsa la barra espaciadora cuando veas una imagen de Shelmet o la palabra SHELMET. 

Pulsa la barra espaciadora para comenzar la tarea.",target2,stimuli/t2.jpg,184,10,stimuli/blank.jpg,blank,False,None,,,,,,,,,,,,,,0,0,0,0,,,,,0,0,0,1,0,9,9,9,,,,,,,,,,,,,,,,,,,,,,,,,,,,,,,,,,,,,,,,,,,,,,,,,,,,,CS1_USneg,None,1,,,,,,,,,,,,,,,,,,19,f,184,n,2019_Dec_05_1501,ec_RRR,3.0.4,59.79616672271678,
Vadillo,"Para esta tarea, el personaje clave es Shelmet:","De modo que siempre que veas a Shelmet (su nombre o su imagen) en la pantalla, pulsa la barra espaciadora tan rápido como sea posible. Pulsa la barra espaciadora cuando veas una imagen de Shelmet o la palabra SHELMET. 

Pulsa la barra espaciadora para comenzar la tarea.",target2,stimuli/t2.jpg,184,11,stimuli/cs1_neg14.jpg,CSUS,False,None,,,,,,,,,,,,,,0,0,0,0,,,,,0,0,0,1,0,10,10,10,,,,,,,,,,,,,,,,,,,,,,,,,,,,,,,,,,,,,,,,,,,,,,,,,,,,,CS1_USneg,None,1,,,,,,,,,,,,,,,,,,19,f,184,n,2019_Dec_05_1501,ec_RRR,3.0.4,59.79616672271678,
Vadillo,"Para esta tarea, el personaje clave es Shelmet:","De modo que siempre que veas a Shelmet (su nombre o su imagen) en la pantalla, pulsa la barra espaciadora tan rápido como sea posible. Pulsa la barra espaciadora cuando veas una imagen de Shelmet o la palabra SHELMET. 

Pulsa la barra espaciadora para comenzar la tarea.",target2,stimuli/t2.jpg,184,12,stimuli/blank.jpg,blank,False,None,,,,,,,,,,,,,,0,0,0,0,,,,,0,0,0,1,0,11,11,11,,,,,,,,,,,,,,,,,,,,,,,,,,,,,,,,,,,,,,,,,,,,,,,,,,,,,CS1_USneg,None,1,,,,,,,,,,,,,,,,,,19,f,184,n,2019_Dec_05_1501,ec_RRR,3.0.4,59.79616672271678,
Vadillo,"Para esta tarea, el personaje clave es Shelmet:","De modo que siempre que veas a Shelmet (su nombre o su imagen) en la pantalla, pulsa la barra espaciadora tan rápido como sea posible. Pulsa la barra espaciadora cuando veas una imagen de Shelmet o la palabra SHELMET. 

Pulsa la barra espaciadora para comenzar la tarea.",target2,stimuli/t2.jpg,184,13,stimuli/filler46.jpg,filler,False,None,,,,,,,,,,,,,,0,0,0,0,,,,,0,0,0,1,0,12,12,12,,,,,,,,,,,,,,,,,,,,,,,,,,,,,,,,,,,,,,,,,,,,,,,,,,,,,CS1_USneg,None,1,,,,,,,,,,,,,,,,,,19,f,184,n,2019_Dec_05_1501,ec_RRR,3.0.4,59.79616672271678,
Vadillo,"Para esta tarea, el personaje clave es Shelmet:","De modo que siempre que veas a Shelmet (su nombre o su imagen) en la pantalla, pulsa la barra espaciadora tan rápido como sea posible. Pulsa la barra espaciadora cuando veas una imagen de Shelmet o la palabra SHELMET. 

Pulsa la barra espaciadora para comenzar la tarea.",target2,stimuli/t2.jpg,184,14,stimuli/filler4.jpg,filler,False,None,,,,,,,,,,,,,,0,0,0,0,,,,,0,0,0,1,0,13,13,13,,,,,,,,,,,,,,,,,,,,,,,,,,,,,,,,,,,,,,,,,,,,,,,,,,,,,CS1_USneg,None,1,,,,,,,,,,,,,,,,,,19,f,184,n,2019_Dec_05_1501,ec_RRR,3.0.4,59.79616672271678,
Vadillo,"Para esta tarea, el personaje clave es Shelmet:","De modo que siempre que veas a Shelmet (su nombre o su imagen) en la pantalla, pulsa la barra espaciadora tan rápido como sea posible. Pulsa la barra espaciadora cuando veas una imagen de Shelmet o la palabra SHELMET. 

Pulsa la barra espaciadora para comenzar la tarea.",target2,stimuli/t2.jpg,184,15,stimuli/filler5.jpg,filler,False,None,,,,,,,,,,,,,,0,0,0,0,,,,,0,0,0,1,0,14,14,14,,,,,,,,,,,,,,,,,,,,,,,,,,,,,,,,,,,,,,,,,,,,,,,,,,,,,CS1_USneg,None,1,,,,,,,,,,,,,,,,,,19,f,184,n,2019_Dec_05_1501,ec_RRR,3.0.4,59.79616672271678,
Vadillo,"Para esta tarea, el personaje clave es Shelmet:","De modo que siempre que veas a Shelmet (su nombre o su imagen) en la pantalla, pulsa la barra espaciadora tan rápido como sea posible. Pulsa la barra espaciadora cuando veas una imagen de Shelmet o la palabra SHELMET. 

Pulsa la barra espaciadora para comenzar la tarea.",target2,stimuli/t2.jpg,184,16,stimuli/filler28.jpg,filler,False,None,,,,,,,,,,,,,,0,0,0,0,,,,,0,0,0,1,0,15,15,15,,,,,,,,,,,,,,,,,,,,,,,,,,,,,,,,,,,,,,,,,,,,,,,,,,,,,CS1_USneg,None,1,,,,,,,,,,,,,,,,,,19,f,184,n,2019_Dec_05_1501,ec_RRR,3.0.4,59.79616672271678,
Vadillo,"Para esta tarea, el personaje clave es Shelmet:","De modo que siempre que veas a Shelmet (su nombre o su imagen) en la pantalla, pulsa la barra espaciadora tan rápido como sea posible. Pulsa la barra espaciadora cuando veas una imagen de Shelmet o la palabra SHELMET. 

Pulsa la barra espaciadora para comenzar la tarea.",target2,stimuli/t2.jpg,184,17,stimuli/filler38.jpg,filler,False,None,,,,,,,,,,,,,,0,0,0,0,,,,,0,0,0,1,0,16,16,16,,,,,,,,,,,,,,,,,,,,,,,,,,,,,,,,,,,,,,,,,,,,,,,,,,,,,CS1_USneg,None,1,,,,,,,,,,,,,,,,,,19,f,184,n,2019_Dec_05_1501,ec_RRR,3.0.4,59.79616672271678,
Vadillo,"Para esta tarea, el personaje clave es Shelmet:","De modo que siempre que veas a Shelmet (su nombre o su imagen) en la pantalla, pulsa la barra espaciadora tan rápido como sea posible. Pulsa la barra espaciadora cuando veas una imagen de Shelmet o la palabra SHELMET. 

Pulsa la barra espaciadora para comenzar la tarea.",target2,stimuli/t2.jpg,184,18,stimuli/filler14.jpg,filler,False,None,,,,,,,,,,,,,,0,0,0,0,,,,,0,0,0,1,0,17,17,17,,,,,,,,,,,,,,,,,,,,,,,,,,,,,,,,,,,,,,,,,,,,,,,,,,,,,CS1_USneg,None,1,,,,,,,,,,,,,,,,,,19,f,184,n,2019_Dec_05_1501,ec_RRR,3.0.4,59.79616672271678,
Vadillo,"Para esta tarea, el personaje clave es Shelmet:","De modo que siempre que veas a Shelmet (su nombre o su imagen) en la pantalla, pulsa la barra espaciadora tan rápido como sea posible. Pulsa la barra espaciadora cuando veas una imagen de Shelmet o la palabra SHELMET. 

Pulsa la barra espaciadora para comenzar la tarea.",target2,stimuli/t2.jpg,184,19,stimuli/target2_2.jpg,target,True,space,,,,,,,,,,,,,,0,0,0,0,,,,,0,0,0,1,0,18,18,18,,,,,,,,,,,,,,,,,,,,,,,,,,,,,,,,,,,,,,,,,,,,,,,,,,,,,CS1_USneg,space,1,0.7123036291450262,,,,,,,,,,,,,,,,,19,f,184,n,2019_Dec_05_1501,ec_RRR,3.0.4,59.79616672271678,
Vadillo,"Para esta tarea, el personaje clave es Shelmet:","De modo que siempre que veas a Shelmet (su nombre o su imagen) en la pantalla, pulsa la barra espaciadora tan rápido como sea posible. Pulsa la barra espaciadora cuando veas una imagen de Shelmet o la palabra SHELMET. 

Pulsa la barra espaciadora para comenzar la tarea.",target2,stimuli/t2.jpg,184,20,stimuli/blank.jpg,blank,False,None,,,,,,,,,,,,,,0,0,0,0,,,,,0,0,0,1,0,19,19,19,,,,,,,,,,,,,,,,,,,,,,,,,,,,,,,,,,,,,,,,,,,,,,,,,,,,,CS1_USneg,None,1,,,,,,,,,,,,,,,,,,19,f,184,n,2019_Dec_05_1501,ec_RRR,3.0.4,59.79616672271678,
Vadillo,"Para esta tarea, el personaje clave es Shelmet:","De modo que siempre que veas a Shelmet (su nombre o su imagen) en la pantalla, pulsa la barra espaciadora tan rápido como sea posible. Pulsa la barra espaciadora cuando veas una imagen de Shelmet o la palabra SHELMET. 

Pulsa la barra espaciadora para comenzar la tarea.",target2,stimuli/t2.jpg,184,21,stimuli/cs2_pos19.jpg,CSUS,False,None,,,,,,,,,,,,,,0,0,0,0,,,,,0,0,0,1,0,20,20,20,,,,,,,,,,,,,,,,,,,,,,,,,,,,,,,,,,,,,,,,,,,,,,,,,,,,,CS1_USneg,None,1,,,,,,,,,,,,,,,,,,19,f,184,n,2019_Dec_05_1501,ec_RRR,3.0.4,59.79616672271678,
Vadillo,"Para esta tarea, el personaje clave es Shelmet:","De modo que siempre que veas a Shelmet (su nombre o su imagen) en la pantalla, pulsa la barra espaciadora tan rápido como sea posible. Pulsa la barra espaciadora cuando veas una imagen de Shelmet o la palabra SHELMET. 

Pulsa la barra espaciadora para comenzar la tarea.",target2,stimuli/t2.jpg,184,22,stimuli/blank.jpg,blank,False,None,,,,,,,,,,,,,,0,0,0,0,,,,,0,0,0,1,0,21,21,21,,,,,,,,,,,,,,,,,,,,,,,,,,,,,,,,,,,,,,,,,,,,,,,,,,,,,CS1_USneg,None,1,,,,,,,,,,,,,,,,,,19,f,184,n,2019_Dec_05_1501,ec_RRR,3.0.4,59.79616672271678,
Vadillo,"Para esta tarea, el personaje clave es Shelmet:","De modo que siempre que veas a Shelmet (su nombre o su imagen) en la pantalla, pulsa la barra espaciadora tan rápido como sea posible. Pulsa la barra espaciadora cuando veas una imagen de Shelmet o la palabra SHELMET. 

Pulsa la barra espaciadora para comenzar la tarea.",target2,stimuli/t2.jpg,184,23,stimuli/target2_8.jpg,target,True,space,,,,,,,,,,,,,,0,0,0,0,,,,,0,0,0,1,0,22,22,22,,,,,,,,,,,,,,,,,,,,,,,,,,,,,,,,,,,,,,,,,,,,,,,,,,,,,CS1_USneg,space,1,0.5277756173163652,,,,,,,,,,,,,,,,,19,f,184,n,2019_Dec_05_1501,ec_RRR,3.0.4,59.79616672271678,
Vadillo,"Para esta tarea, el personaje clave es Shelmet:","De modo que siempre que veas a Shelmet (su nombre o su imagen) en la pantalla, pulsa la barra espaciadora tan rápido como sea posible. Pulsa la barra espaciadora cuando veas una imagen de Shelmet o la palabra SHELMET. 

Pulsa la barra espaciadora para comenzar la tarea.",target2,stimuli/t2.jpg,184,24,stimuli/filler33.jpg,filler,False,None,,,,,,,,,,,,,,0,0,0,0,,,,,0,0,0,1,0,23,23,23,,,,,,,,,,,,,,,,,,,,,,,,,,,,,,,,,,,,,,,,,,,,,,,,,,,,,CS1_USneg,None,1,,,,,,,,,,,,,,,,,,19,f,184,n,2019_Dec_05_1501,ec_RRR,3.0.4,59.79616672271678,
Vadillo,"Para esta tarea, el personaje clave es Shelmet:","De modo que siempre que veas a Shelmet (su nombre o su imagen) en la pantalla, pulsa la barra espaciadora tan rápido como sea posible. Pulsa la barra espaciadora cuando veas una imagen de Shelmet o la palabra SHELMET. 

Pulsa la barra espaciadora para comenzar la tarea.",target2,stimuli/t2.jpg,184,25,stimuli/filler18.jpg,filler,False,None,,,,,,,,,,,,,,0,0,0,0,,,,,0,0,0,1,0,24,24,24,,,,,,,,,,,,,,,,,,,,,,,,,,,,,,,,,,,,,,,,,,,,,,,,,,,,,CS1_USneg,None,1,,,,,,,,,,,,,,,,,,19,f,184,n,2019_Dec_05_1501,ec_RRR,3.0.4,59.79616672271678,
Vadillo,"Para esta tarea, el personaje clave es Shelmet:","De modo que siempre que veas a Shelmet (su nombre o su imagen) en la pantalla, pulsa la barra espaciadora tan rápido como sea posible. Pulsa la barra espaciadora cuando veas una imagen de Shelmet o la palabra SHELMET. 

Pulsa la barra espaciadora para comenzar la tarea.",target2,stimuli/t2.jpg,184,26,stimuli/filler43.jpg,filler,False,None,,,,,,,,,,,,,,0,0,0,0,,,,,0,0,0,1,0,25,25,25,,,,,,,,,,,,,,,,,,,,,,,,,,,,,,,,,,,,,,,,,,,,,,,,,,,,,CS1_USneg,None,1,,,,,,,,,,,,,,,,,,19,f,184,n,2019_Dec_05_1501,ec_RRR,3.0.4,59.79616672271678,
Vadillo,"Para esta tarea, el personaje clave es Shelmet:","De modo que siempre que veas a Shelmet (su nombre o su imagen) en la pantalla, pulsa la barra espaciadora tan rápido como sea posible. Pulsa la barra espaciadora cuando veas una imagen de Shelmet o la palabra SHELMET. 

Pulsa la barra espaciadora para comenzar la tarea.",target2,stimuli/t2.jpg,184,27,stimuli/filler19.jpg,filler,False,None,,,,,,,,,,,,,,0,0,0,0,,,,,0,0,0,1,0,26,26,26,,,,,,,,,,,,,,,,,,,,,,,,,,,,,,,,,,,,,,,,,,,,,,,,,,,,,CS1_USneg,None,1,,,,,,,,,,,,,,,,,,19,f,184,n,2019_Dec_05_1501,ec_RRR,3.0.4,59.79616672271678,
Vadillo,"Para esta tarea, el personaje clave es Shelmet:","De modo que siempre que veas a Shelmet (su nombre o su imagen) en la pantalla, pulsa la barra espaciadora tan rápido como sea posible. Pulsa la barra espaciadora cuando veas una imagen de Shelmet o la palabra SHELMET. 

Pulsa la barra espaciadora para comenzar la tarea.",target2,stimuli/t2.jpg,184,28,stimuli/filler44.jpg,filler,False,None,,,,,,,,,,,,,,0,0,0,0,,,,,0,0,0,1,0,27,27,27,,,,,,,,,,,,,,,,,,,,,,,,,,,,,,,,,,,,,,,,,,,,,,,,,,,,,CS1_USneg,None,1,,,,,,,,,,,,,,,,,,19,f,184,n,2019_Dec_05_1501,ec_RRR,3.0.4,59.79616672271678,
Vadillo,"Para esta tarea, el personaje clave es Shelmet:","De modo que siempre que veas a Shelmet (su nombre o su imagen) en la pantalla, pulsa la barra espaciadora tan rápido como sea posible. Pulsa la barra espaciadora cuando veas una imagen de Shelmet o la palabra SHELMET. 

Pulsa la barra espaciadora para comenzar la tarea.",target2,stimuli/t2.jpg,184,29,stimuli/filler32.jpg,filler,False,None,,,,,,,,,,,,,,0,0,0,0,,,,,0,0,0,1,0,28,28,28,,,,,,,,,,,,,,,,,,,,,,,,,,,,,,,,,,,,,,,,,,,,,,,,,,,,,CS1_USneg,None,1,,,,,,,,,,,,,,,,,,19,f,184,n,2019_Dec_05_1501,ec_RRR,3.0.4,59.79616672271678,
Vadillo,"Para esta tarea, el personaje clave es Shelmet:","De modo que siempre que veas a Shelmet (su nombre o su imagen) en la pantalla, pulsa la barra espaciadora tan rápido como sea posible. Pulsa la barra espaciadora cuando veas una imagen de Shelmet o la palabra SHELMET. 

Pulsa la barra espaciadora para comenzar la tarea.",target2,stimuli/t2.jpg,184,30,stimuli/blank.jpg,blank,False,None,,,,,,,,,,,,,,0,0,0,0,,,,,0,0,0,1,0,29,29,29,,,,,,,,,,,,,,,,,,,,,,,,,,,,,,,,,,,,,,,,,,,,,,,,,,,,,CS1_USneg,None,1,,,,,,,,,,,,,,,,,,19,f,184,n,2019_Dec_05_1501,ec_RRR,3.0.4,59.79616672271678,
Vadillo,"Para esta tarea, el personaje clave es Shelmet:","De modo que siempre que veas a Shelmet (su nombre o su imagen) en la pantalla, pulsa la barra espaciadora tan rápido como sea posible. Pulsa la barra espaciadora cuando veas una imagen de Shelmet o la palabra SHELMET. 

Pulsa la barra espaciadora para comenzar la tarea.",target2,stimuli/t2.jpg,184,31,stimuli/cs1_neg1.jpg,CSUS,False,None,,,,,,,,,,,,,,0,0,0,0,,,,,0,0,0,1,0,30,30,30,,,,,,,,,,,,,,,,,,,,,,,,,,,,,,,,,,,,,,,,,,,,,,,,,,,,,CS1_USneg,None,1,,,,,,,,,,,,,,,,,,19,f,184,n,2019_Dec_05_1501,ec_RRR,3.0.4,59.79616672271678,
Vadillo,"Para esta tarea, el personaje clave es Shelmet:","De modo que siempre que veas a Shelmet (su nombre o su imagen) en la pantalla, pulsa la barra espaciadora tan rápido como sea posible. Pulsa la barra espaciadora cuando veas una imagen de Shelmet o la palabra SHELMET. 

Pulsa la barra espaciadora para comenzar la tarea.",target2,stimuli/t2.jpg,184,32,stimuli/blank.jpg,blank,False,None,,,,,,,,,,,,,,0,0,0,0,,,,,0,0,0,1,0,31,31,31,,,,,,,,,,,,,,,,,,,,,,,,,,,,,,,,,,,,,,,,,,,,,,,,,,,,,CS1_USneg,None,1,,,,,,,,,,,,,,,,,,19,f,184,n,2019_Dec_05_1501,ec_RRR,3.0.4,59.79616672271678,
Vadillo,"Para esta tarea, el personaje clave es Shelmet:","De modo que siempre que veas a Shelmet (su nombre o su imagen) en la pantalla, pulsa la barra espaciadora tan rápido como sea posible. Pulsa la barra espaciadora cuando veas una imagen de Shelmet o la palabra SHELMET. 

Pulsa la barra espaciadora para comenzar la tarea.",target2,stimuli/t2.jpg,184,33,stimuli/filler8.jpg,filler,False,None,,,,,,,,,,,,,,0,0,0,0,,,,,0,0,0,1,0,32,32,32,,,,,,,,,,,,,,,,,,,,,,,,,,,,,,,,,,,,,,,,,,,,,,,,,,,,,CS1_USneg,None,1,,,,,,,,,,,,,,,,,,19,f,184,n,2019_Dec_05_1501,ec_RRR,3.0.4,59.79616672271678,
Vadillo,"Para esta tarea, el personaje clave es Shelmet:","De modo que siempre que veas a Shelmet (su nombre o su imagen) en la pantalla, pulsa la barra espaciadora tan rápido como sea posible. Pulsa la barra espaciadora cuando veas una imagen de Shelmet o la palabra SHELMET. 

Pulsa la barra espaciadora para comenzar la tarea.",target2,stimuli/t2.jpg,184,34,stimuli/filler12.jpg,filler,False,None,,,,,,,,,,,,,,0,0,0,0,,,,,0,0,0,1,0,33,33,33,,,,,,,,,,,,,,,,,,,,,,,,,,,,,,,,,,,,,,,,,,,,,,,,,,,,,CS1_USneg,None,1,,,,,,,,,,,,,,,,,,19,f,184,n,2019_Dec_05_1501,ec_RRR,3.0.4,59.79616672271678,
Vadillo,"Para esta tarea, el personaje clave es Shelmet:","De modo que siempre que veas a Shelmet (su nombre o su imagen) en la pantalla, pulsa la barra espaciadora tan rápido como sea posible. Pulsa la barra espaciadora cuando veas una imagen de Shelmet o la palabra SHELMET. 

Pulsa la barra espaciadora para comenzar la tarea.",target2,stimuli/t2.jpg,184,35,stimuli/filler31.jpg,filler,False,None,,,,,,,,,,,,,,0,0,0,0,,,,,0,0,0,1,0,34,34,34,,,,,,,,,,,,,,,,,,,,,,,,,,,,,,,,,,,,,,,,,,,,,,,,,,,,,CS1_USneg,None,1,,,,,,,,,,,,,,,,,,19,f,184,n,2019_Dec_05_1501,ec_RRR,3.0.4,59.79616672271678,
Vadillo,"Para esta tarea, el personaje clave es Shelmet:","De modo que siempre que veas a Shelmet (su nombre o su imagen) en la pantalla, pulsa la barra espaciadora tan rápido como sea posible. Pulsa la barra espaciadora cuando veas una imagen de Shelmet o la palabra SHELMET. 

Pulsa la barra espaciadora para comenzar la tarea.",target2,stimuli/t2.jpg,184,36,stimuli/filler6.jpg,filler,False,None,,,,,,,,,,,,,,0,0,0,0,,,,,0,0,0,1,0,35,35,35,,,,,,,,,,,,,,,,,,,,,,,,,,,,,,,,,,,,,,,,,,,,,,,,,,,,,CS1_USneg,None,1,,,,,,,,,,,,,,,,,,19,f,184,n,2019_Dec_05_1501,ec_RRR,3.0.4,59.79616672271678,
Vadillo,"Para esta tarea, el personaje clave es Shelmet:","De modo que siempre que veas a Shelmet (su nombre o su imagen) en la pantalla, pulsa la barra espaciadora tan rápido como sea posible. Pulsa la barra espaciadora cuando veas una imagen de Shelmet o la palabra SHELMET. 

Pulsa la barra espaciadora para comenzar la tarea.",target2,stimuli/t2.jpg,184,37,stimuli/target2_5.jpg,target,True,space,,,,,,,,,,,,,,0,0,0,0,,,,,0,0,0,1,0,36,36,36,,,,,,,,,,,,,,,,,,,,,,,,,,,,,,,,,,,,,,,,,,,,,,,,,,,,,CS1_USneg,space,1,0.5933176460675895,,,,,,,,,,,,,,,,,19,f,184,n,2019_Dec_05_1501,ec_RRR,3.0.4,59.79616672271678,
Vadillo,"Para esta tarea, el personaje clave es Shelmet:","De modo que siempre que veas a Shelmet (su nombre o su imagen) en la pantalla, pulsa la barra espaciadora tan rápido como sea posible. Pulsa la barra espaciadora cuando veas una imagen de Shelmet o la palabra SHELMET. 

Pulsa la barra espaciadora para comenzar la tarea.",target2,stimuli/t2.jpg,184,38,stimuli/filler39.jpg,filler,False,None,,,,,,,,,,,,,,0,0,0,0,,,,,0,0,0,1,0,37,37,37,,,,,,,,,,,,,,,,,,,,,,,,,,,,,,,,,,,,,,,,,,,,,,,,,,,,,CS1_USneg,None,1,,,,,,,,,,,,,,,,,,19,f,184,n,2019_Dec_05_1501,ec_RRR,3.0.4,59.79616672271678,
Vadillo,"Para esta tarea, el personaje clave es Shelmet:","De modo que siempre que veas a Shelmet (su nombre o su imagen) en la pantalla, pulsa la barra espaciadora tan rápido como sea posible. Pulsa la barra espaciadora cuando veas una imagen de Shelmet o la palabra SHELMET. 

Pulsa la barra espaciadora para comenzar la tarea.",target2,stimuli/t2.jpg,184,39,stimuli/filler47.jpg,filler,False,None,,,,,,,,,,,,,,0,0,0,0,,,,,0,0,0,1,0,38,38,38,,,,,,,,,,,,,,,,,,,,,,,,,,,,,,,,,,,,,,,,,,,,,,,,,,,,,CS1_USneg,None,1,,,,,,,,,,,,,,,,,,19,f,184,n,2019_Dec_05_1501,ec_RRR,3.0.4,59.79616672271678,
Vadillo,"Para esta tarea, el personaje clave es Shelmet:","De modo que siempre que veas a Shelmet (su nombre o su imagen) en la pantalla, pulsa la barra espaciadora tan rápido como sea posible. Pulsa la barra espaciadora cuando veas una imagen de Shelmet o la palabra SHELMET. 

Pulsa la barra espaciadora para comenzar la tarea.",target2,stimuli/t2.jpg,184,40,stimuli/blank.jpg,blank,False,None,,,,,,,,,,,,,,0,0,0,0,,,,,0,0,0,1,0,39,39,39,,,,,,,,,,,,,,,,,,,,,,,,,,,,,,,,,,,,,,,,,,,,,,,,,,,,,CS1_USneg,None,1,,,,,,,,,,,,,,,,,,19,f,184,n,2019_Dec_05_1501,ec_RRR,3.0.4,59.79616672271678,
Vadillo,"Para esta tarea, el personaje clave es Shelmet:","De modo que siempre que veas a Shelmet (su nombre o su imagen) en la pantalla, pulsa la barra espaciadora tan rápido como sea posible. Pulsa la barra espaciadora cuando veas una imagen de Shelmet o la palabra SHELMET. 

Pulsa la barra espaciadora para comenzar la tarea.",target2,stimuli/t2.jpg,184,41,stimuli/cs2_pos11.jpg,CSUS,False,None,,,,,,,,,,,,,,0,0,0,0,,,,,0,0,0,1,0,40,40,40,,,,,,,,,,,,,,,,,,,,,,,,,,,,,,,,,,,,,,,,,,,,,,,,,,,,,CS1_USneg,None,1,,,,,,,,,,,,,,,,,,19,f,184,n,2019_Dec_05_1501,ec_RRR,3.0.4,59.79616672271678,
Vadillo,"Para esta tarea, el personaje clave es Shelmet:","De modo que siempre que veas a Shelmet (su nombre o su imagen) en la pantalla, pulsa la barra espaciadora tan rápido como sea posible. Pulsa la barra espaciadora cuando veas una imagen de Shelmet o la palabra SHELMET. 

Pulsa la barra espaciadora para comenzar la tarea.",target2,stimuli/t2.jpg,184,42,stimuli/blank.jpg,blank,False,None,,,,,,,,,,,,,,0,0,0,0,,,,,0,0,0,1,0,41,41,41,,,,,,,,,,,,,,,,,,,,,,,,,,,,,,,,,,,,,,,,,,,,,,,,,,,,,CS1_USneg,None,1,,,,,,,,,,,,,,,,,,19,f,184,n,2019_Dec_05_1501,ec_RRR,3.0.4,59.79616672271678,
Vadillo,"Para esta tarea, el personaje clave es Shelmet:","De modo que siempre que veas a Shelmet (su nombre o su imagen) en la pantalla, pulsa la barra espaciadora tan rápido como sea posible. Pulsa la barra espaciadora cuando veas una imagen de Shelmet o la palabra SHELMET. 

Pulsa la barra espaciadora para comenzar la tarea.",target2,stimuli/t2.jpg,184,43,stimuli/filler21.jpg,filler,False,None,,,,,,,,,,,,,,0,0,0,0,,,,,0,0,0,1,0,42,42,42,,,,,,,,,,,,,,,,,,,,,,,,,,,,,,,,,,,,,,,,,,,,,,,,,,,,,CS1_USneg,None,1,,,,,,,,,,,,,,,,,,19,f,184,n,2019_Dec_05_1501,ec_RRR,3.0.4,59.79616672271678,
Vadillo,"Para esta tarea, el personaje clave es Shelmet:","De modo que siempre que veas a Shelmet (su nombre o su imagen) en la pantalla, pulsa la barra espaciadora tan rápido como sea posible. Pulsa la barra espaciadora cuando veas una imagen de Shelmet o la palabra SHELMET. 

Pulsa la barra espaciadora para comenzar la tarea.",target2,stimuli/t2.jpg,184,44,stimuli/filler25.jpg,filler,False,None,,,,,,,,,,,,,,0,0,0,0,,,,,0,0,0,1,0,43,43,43,,,,,,,,,,,,,,,,,,,,,,,,,,,,,,,,,,,,,,,,,,,,,,,,,,,,,CS1_USneg,None,1,,,,,,,,,,,,,,,,,,19,f,184,n,2019_Dec_05_1501,ec_RRR,3.0.4,59.79616672271678,
Vadillo,"Para esta tarea, el personaje clave es Shelmet:","De modo que siempre que veas a Shelmet (su nombre o su imagen) en la pantalla, pulsa la barra espaciadora tan rápido como sea posible. Pulsa la barra espaciadora cuando veas una imagen de Shelmet o la palabra SHELMET. 

Pulsa la barra espaciadora para comenzar la tarea.",target2,stimuli/t2.jpg,184,45,stimuli/filler2.jpg,filler,False,None,,,,,,,,,,,,,,0,0,0,0,,,,,0,0,0,1,0,44,44,44,,,,,,,,,,,,,,,,,,,,,,,,,,,,,,,,,,,,,,,,,,,,,,,,,,,,,CS1_USneg,None,1,,,,,,,,,,,,,,,,,,19,f,184,n,2019_Dec_05_1501,ec_RRR,3.0.4,59.79616672271678,
Vadillo,"Para esta tarea, el personaje clave es Shelmet:","De modo que siempre que veas a Shelmet (su nombre o su imagen) en la pantalla, pulsa la barra espaciadora tan rápido como sea posible. Pulsa la barra espaciadora cuando veas una imagen de Shelmet o la palabra SHELMET. 

Pulsa la barra espaciadora para comenzar la tarea.",target2,stimuli/t2.jpg,184,46,stimuli/target2_4.jpg,target,True,space,,,,,,,,,,,,,,0,0,0,0,,,,,0,0,0,1,0,45,45,45,,,,,,,,,,,,,,,,,,,,,,,,,,,,,,,,,,,,,,,,,,,,,,,,,,,,,CS1_USneg,space,1,0.5951949791051447,,,,,,,,,,,,,,,,,19,f,184,n,2019_Dec_05_1501,ec_RRR,3.0.4,59.79616672271678,
Vadillo,"Para esta tarea, el personaje clave es Shelmet:","De modo que siempre que veas a Shelmet (su nombre o su imagen) en la pantalla, pulsa la barra espaciadora tan rápido como sea posible. Pulsa la barra espaciadora cuando veas una imagen de Shelmet o la palabra SHELMET. 

Pulsa la barra espaciadora para comenzar la tarea.",target2,stimuli/t2.jpg,184,47,stimuli/filler40.jpg,filler,False,None,,,,,,,,,,,,,,0,0,0,0,,,,,0,0,0,1,0,46,46,46,,,,,,,,,,,,,,,,,,,,,,,,,,,,,,,,,,,,,,,,,,,,,,,,,,,,,CS1_USneg,None,1,,,,,,,,,,,,,,,,,,19,f,184,n,2019_Dec_05_1501,ec_RRR,3.0.4,59.79616672271678,
Vadillo,"Para esta tarea, el personaje clave es Shelmet:","De modo que siempre que veas a Shelmet (su nombre o su imagen) en la pantalla, pulsa la barra espaciadora tan rápido como sea posible. Pulsa la barra espaciadora cuando veas una imagen de Shelmet o la palabra SHELMET. 

Pulsa la barra espaciadora para comenzar la tarea.",target2,stimuli/t2.jpg,184,48,stimuli/target2_1.jpg,target,True,space,,,,,,,,,,,,,,0,0,0,0,,,,,0,0,0,1,0,47,47,47,,,,,,,,,,,,,,,,,,,,,,,,,,,,,,,,,,,,,,,,,,,,,,,,,,,,,CS1_USneg,space,1,0.6446463917382061,,,,,,,,,,,,,,,,,19,f,184,n,2019_Dec_05_1501,ec_RRR,3.0.4,59.79616672271678,
Vadillo,"Para esta tarea, el personaje clave es Shelmet:","De modo que siempre que veas a Shelmet (su nombre o su imagen) en la pantalla, pulsa la barra espaciadora tan rápido como sea posible. Pulsa la barra espaciadora cuando veas una imagen de Shelmet o la palabra SHELMET. 

Pulsa la barra espaciadora para comenzar la tarea.",target2,stimuli/t2.jpg,184,49,stimuli/filler30.jpg,filler,False,None,,,,,,,,,,,,,,0,0,0,0,,,,,0,0,0,1,0,48,48,48,,,,,,,,,,,,,,,,,,,,,,,,,,,,,,,,,,,,,,,,,,,,,,,,,,,,,CS1_USneg,None,1,,,,,,,,,,,,,,,,,,19,f,184,n,2019_Dec_05_1501,ec_RRR,3.0.4,59.79616672271678,
Vadillo,"Para esta tarea, el personaje clave es Shelmet:","De modo que siempre que veas a Shelmet (su nombre o su imagen) en la pantalla, pulsa la barra espaciadora tan rápido como sea posible. Pulsa la barra espaciadora cuando veas una imagen de Shelmet o la palabra SHELMET. 

Pulsa la barra espaciadora para comenzar la tarea.",target2,stimuli/t2.jpg,184,50,stimuli/blank.jpg,blank,False,None,,,,,,,,,,,,,,0,0,0,0,,,,,0,0,0,1,0,49,49,49,,,,,,,,,,,,,,,,,,,,,,,,,,,,,,,,,,,,,,,,,,,,,,,,,,,,,CS1_USneg,None,1,,,,,,,,,,,,,,,,,,19,f,184,n,2019_Dec_05_1501,ec_RRR,3.0.4,59.79616672271678,
Vadillo,"Para esta tarea, el personaje clave es Shelmet:","De modo que siempre que veas a Shelmet (su nombre o su imagen) en la pantalla, pulsa la barra espaciadora tan rápido como sea posible. Pulsa la barra espaciadora cuando veas una imagen de Shelmet o la palabra SHELMET. 

Pulsa la barra espaciadora para comenzar la tarea.",target2,stimuli/t2.jpg,184,51,stimuli/cs1_neg15.jpg,CSUS,False,None,,,,,,,,,,,,,,0,0,0,0,,,,,0,0,0,1,0,50,50,50,,,,,,,,,,,,,,,,,,,,,,,,,,,,,,,,,,,,,,,,,,,,,,,,,,,,,CS1_USneg,None,1,,,,,,,,,,,,,,,,,,19,f,184,n,2019_Dec_05_1501,ec_RRR,3.0.4,59.79616672271678,
Vadillo,"Para esta tarea, el personaje clave es Shelmet:","De modo que siempre que veas a Shelmet (su nombre o su imagen) en la pantalla, pulsa la barra espaciadora tan rápido como sea posible. Pulsa la barra espaciadora cuando veas una imagen de Shelmet o la palabra SHELMET. 

Pulsa la barra espaciadora para comenzar la tarea.",target2,stimuli/t2.jpg,184,52,stimuli/blank.jpg,blank,False,None,,,,,,,,,,,,,,0,0,0,0,,,,,0,0,0,1,0,51,51,51,,,,,,,,,,,,,,,,,,,,,,,,,,,,,,,,,,,,,,,,,,,,,,,,,,,,,CS1_USneg,None,1,,,,,,,,,,,,,,,,,,19,f,184,n,2019_Dec_05_1501,ec_RRR,3.0.4,59.79616672271678,
Vadillo,"Para esta tarea, el personaje clave es Shelmet:","De modo que siempre que veas a Shelmet (su nombre o su imagen) en la pantalla, pulsa la barra espaciadora tan rápido como sea posible. Pulsa la barra espaciadora cuando veas una imagen de Shelmet o la palabra SHELMET. 

Pulsa la barra espaciadora para comenzar la tarea.",target2,stimuli/t2.jpg,184,53,stimuli/filler11.jpg,filler,False,None,,,,,,,,,,,,,,0,0,0,0,,,,,0,0,0,1,0,52,52,52,,,,,,,,,,,,,,,,,,,,,,,,,,,,,,,,,,,,,,,,,,,,,,,,,,,,,CS1_USneg,None,1,,,,,,,,,,,,,,,,,,19,f,184,n,2019_Dec_05_1501,ec_RRR,3.0.4,59.79616672271678,
Vadillo,"Para esta tarea, el personaje clave es Shelmet:","De modo que siempre que veas a Shelmet (su nombre o su imagen) en la pantalla, pulsa la barra espaciadora tan rápido como sea posible. Pulsa la barra espaciadora cuando veas una imagen de Shelmet o la palabra SHELMET. 

Pulsa la barra espaciadora para comenzar la tarea.",target2,stimuli/t2.jpg,184,54,stimuli/filler16.jpg,filler,False,None,,,,,,,,,,,,,,0,0,0,0,,,,,0,0,0,1,0,53,53,53,,,,,,,,,,,,,,,,,,,,,,,,,,,,,,,,,,,,,,,,,,,,,,,,,,,,,CS1_USneg,None,1,,,,,,,,,,,,,,,,,,19,f,184,n,2019_Dec_05_1501,ec_RRR,3.0.4,59.79616672271678,
Vadillo,"Para esta tarea, el personaje clave es Shelmet:","De modo que siempre que veas a Shelmet (su nombre o su imagen) en la pantalla, pulsa la barra espaciadora tan rápido como sea posible. Pulsa la barra espaciadora cuando veas una imagen de Shelmet o la palabra SHELMET. 

Pulsa la barra espaciadora para comenzar la tarea.",target2,stimuli/t2.jpg,184,55,stimuli/filler37.jpg,filler,False,None,,,,,,,,,,,,,,0,0,0,0,,,,,0,0,0,1,0,54,54,54,,,,,,,,,,,,,,,,,,,,,,,,,,,,,,,,,,,,,,,,,,,,,,,,,,,,,CS1_USneg,None,1,,,,,,,,,,,,,,,,,,19,f,184,n,2019_Dec_05_1501,ec_RRR,3.0.4,59.79616672271678,
Vadillo,"Para esta tarea, el personaje clave es Shelmet:","De modo que siempre que veas a Shelmet (su nombre o su imagen) en la pantalla, pulsa la barra espaciadora tan rápido como sea posible. Pulsa la barra espaciadora cuando veas una imagen de Shelmet o la palabra SHELMET. 

Pulsa la barra espaciadora para comenzar la tarea.",target2,stimuli/t2.jpg,184,56,stimuli/filler15.jpg,filler,False,None,,,,,,,,,,,,,,0,0,0,0,,,,,0,0,0,1,0,55,55,55,,,,,,,,,,,,,,,,,,,,,,,,,,,,,,,,,,,,,,,,,,,,,,,,,,,,,CS1_USneg,None,1,,,,,,,,,,,,,,,,,,19,f,184,n,2019_Dec_05_1501,ec_RRR,3.0.4,59.79616672271678,
Vadillo,"Para esta tarea, el personaje clave es Shelmet:","De modo que siempre que veas a Shelmet (su nombre o su imagen) en la pantalla, pulsa la barra espaciadora tan rápido como sea posible. Pulsa la barra espaciadora cuando veas una imagen de Shelmet o la palabra SHELMET. 

Pulsa la barra espaciadora para comenzar la tarea.",target2,stimuli/t2.jpg,184,57,stimuli/filler10.jpg,filler,False,None,,,,,,,,,,,,,,0,0,0,0,,,,,0,0,0,1,0,56,56,56,,,,,,,,,,,,,,,,,,,,,,,,,,,,,,,,,,,,,,,,,,,,,,,,,,,,,CS1_USneg,None,1,,,,,,,,,,,,,,,,,,19,f,184,n,2019_Dec_05_1501,ec_RRR,3.0.4,59.79616672271678,
Vadillo,"Para esta tarea, el personaje clave es Shelmet:","De modo que siempre que veas a Shelmet (su nombre o su imagen) en la pantalla, pulsa la barra espaciadora tan rápido como sea posible. Pulsa la barra espaciadora cuando veas una imagen de Shelmet o la palabra SHELMET. 

Pulsa la barra espaciadora para comenzar la tarea.",target2,stimuli/t2.jpg,184,58,stimuli/filler36.jpg,filler,False,None,,,,,,,,,,,,,,0,0,0,0,,,,,0,0,0,1,0,57,57,57,,,,,,,,,,,,,,,,,,,,,,,,,,,,,,,,,,,,,,,,,,,,,,,,,,,,,CS1_USneg,None,1,,,,,,,,,,,,,,,,,,19,f,184,n,2019_Dec_05_1501,ec_RRR,3.0.4,59.79616672271678,
Vadillo,"Para esta tarea, el personaje clave es Shelmet:","De modo que siempre que veas a Shelmet (su nombre o su imagen) en la pantalla, pulsa la barra espaciadora tan rápido como sea posible. Pulsa la barra espaciadora cuando veas una imagen de Shelmet o la palabra SHELMET. 

Pulsa la barra espaciadora para comenzar la tarea.",target2,stimuli/t2.jpg,184,59,stimuli/target2_10.jpg,target,True,space,,,,,,,,,,,,,,0,0,0,0,,,,,0,0,0,1,0,58,58,58,,,,,,,,,,,,,,,,,,,,,,,,,,,,,,,,,,,,,,,,,,,,,,,,,,,,,CS1_USneg,space,1,0.5108048594556749,,,,,,,,,,,,,,,,,19,f,184,n,2019_Dec_05_1501,ec_RRR,3.0.4,59.79616672271678,
Vadillo,"Para esta tarea, el personaje clave es Shelmet:","De modo que siempre que veas a Shelmet (su nombre o su imagen) en la pantalla, pulsa la barra espaciadora tan rápido como sea posible. Pulsa la barra espaciadora cuando veas una imagen de Shelmet o la palabra SHELMET. 

Pulsa la barra espaciadora para comenzar la tarea.",target2,stimuli/t2.jpg,184,60,stimuli/blank.jpg,blank,False,None,,,,,,,,,,,,,,0,0,0,0,,,,,0,0,0,1,0,59,59,59,,,,,,,,,,,,,,,,,,,,,,,,,,,,,,,,,,,,,,,,,,,,,,,,,,,,,CS1_USneg,None,1,,,,,,,,,,,,,,,,,,19,f,184,n,2019_Dec_05_1501,ec_RRR,3.0.4,59.79616672271678,
Vadillo,"Para esta tarea, el personaje clave es Shelmet:","De modo que siempre que veas a Shelmet (su nombre o su imagen) en la pantalla, pulsa la barra espaciadora tan rápido como sea posible. Pulsa la barra espaciadora cuando veas una imagen de Shelmet o la palabra SHELMET. 

Pulsa la barra espaciadora para comenzar la tarea.",target2,stimuli/t2.jpg,184,61,stimuli/cs2_pos16.jpg,CSUS,False,None,,,,,,,,,,,,,,0,0,0,0,,,,,0,0,0,1,0,60,60,60,,,,,,,,,,,,,,,,,,,,,,,,,,,,,,,,,,,,,,,,,,,,,,,,,,,,,CS1_USneg,None,1,,,,,,,,,,,,,,,,,,19,f,184,n,2019_Dec_05_1501,ec_RRR,3.0.4,59.79616672271678,
Vadillo,"Para esta tarea, el personaje clave es Shelmet:","De modo que siempre que veas a Shelmet (su nombre o su imagen) en la pantalla, pulsa la barra espaciadora tan rápido como sea posible. Pulsa la barra espaciadora cuando veas una imagen de Shelmet o la palabra SHELMET. 

Pulsa la barra espaciadora para comenzar la tarea.",target2,stimuli/t2.jpg,184,62,stimuli/blank.jpg,blank,False,None,,,,,,,,,,,,,,0,0,0,0,,,,,0,0,0,1,0,61,61,61,,,,,,,,,,,,,,,,,,,,,,,,,,,,,,,,,,,,,,,,,,,,,,,,,,,,,CS1_USneg,None,1,,,,,,,,,,,,,,,,,,19,f,184,n,2019_Dec_05_1501,ec_RRR,3.0.4,59.79616672271678,
Vadillo,"Para esta tarea, el personaje clave es Shelmet:","De modo que siempre que veas a Shelmet (su nombre o su imagen) en la pantalla, pulsa la barra espaciadora tan rápido como sea posible. Pulsa la barra espaciadora cuando veas una imagen de Shelmet o la palabra SHELMET. 

Pulsa la barra espaciadora para comenzar la tarea.",target2,stimuli/t2.jpg,184,63,stimuli/filler27.jpg,filler,False,None,,,,,,,,,,,,,,0,0,0,0,,,,,0,0,0,1,0,62,62,62,,,,,,,,,,,,,,,,,,,,,,,,,,,,,,,,,,,,,,,,,,,,,,,,,,,,,CS1_USneg,None,1,,,,,,,,,,,,,,,,,,19,f,184,n,2019_Dec_05_1501,ec_RRR,3.0.4,59.79616672271678,
Vadillo,"Para esta tarea, el personaje clave es Shelmet:","De modo que siempre que veas a Shelmet (su nombre o su imagen) en la pantalla, pulsa la barra espaciadora tan rápido como sea posible. Pulsa la barra espaciadora cuando veas una imagen de Shelmet o la palabra SHELMET. 

Pulsa la barra espaciadora para comenzar la tarea.",target2,stimuli/t2.jpg,184,64,stimuli/filler17.jpg,filler,False,None,,,,,,,,,,,,,,0,0,0,0,,,,,0,0,0,1,0,63,63,63,,,,,,,,,,,,,,,,,,,,,,,,,,,,,,,,,,,,,,,,,,,,,,,,,,,,,CS1_USneg,None,1,,,,,,,,,,,,,,,,,,19,f,184,n,2019_Dec_05_1501,ec_RRR,3.0.4,59.79616672271678,
Vadillo,"Para esta tarea, el personaje clave es Shelmet:","De modo que siempre que veas a Shelmet (su nombre o su imagen) en la pantalla, pulsa la barra espaciadora tan rápido como sea posible. Pulsa la barra espaciadora cuando veas una imagen de Shelmet o la palabra SHELMET. 

Pulsa la barra espaciadora para comenzar la tarea.",target2,stimuli/t2.jpg,184,65,stimuli/filler48.jpg,filler,False,None,,,,,,,,,,,,,,0,0,0,0,,,,,0,0,0,1,0,64,64,64,,,,,,,,,,,,,,,,,,,,,,,,,,,,,,,,,,,,,,,,,,,,,,,,,,,,,CS1_USneg,None,1,,,,,,,,,,,,,,,,,,19,f,184,n,2019_Dec_05_1501,ec_RRR,3.0.4,59.79616672271678,
Vadillo,"Para esta tarea, el personaje clave es Shelmet:","De modo que siempre que veas a Shelmet (su nombre o su imagen) en la pantalla, pulsa la barra espaciadora tan rápido como sea posible. Pulsa la barra espaciadora cuando veas una imagen de Shelmet o la palabra SHELMET. 

Pulsa la barra espaciadora para comenzar la tarea.",target2,stimuli/t2.jpg,184,66,stimuli/filler26.jpg,filler,False,None,,,,,,,,,,,,,,0,0,0,0,,,,,0,0,0,1,0,65,65,65,,,,,,,,,,,,,,,,,,,,,,,,,,,,,,,,,,,,,,,,,,,,,,,,,,,,,CS1_USneg,None,1,,,,,,,,,,,,,,,,,,19,f,184,n,2019_Dec_05_1501,ec_RRR,3.0.4,59.79616672271678,
Vadillo,"Para esta tarea, el personaje clave es Shelmet:","De modo que siempre que veas a Shelmet (su nombre o su imagen) en la pantalla, pulsa la barra espaciadora tan rápido como sea posible. Pulsa la barra espaciadora cuando veas una imagen de Shelmet o la palabra SHELMET. 

Pulsa la barra espaciadora para comenzar la tarea.",target2,stimuli/t2.jpg,184,67,stimuli/target2_3.jpg,target,True,space,,,,,,,,,,,,,,0,0,0,0,,,,,0,0,0,1,0,66,66,66,,,,,,,,,,,,,,,,,,,,,,,,,,,,,,,,,,,,,,,,,,,,,,,,,,,,,CS1_USneg,space,1,0.6286611203104258,,,,,,,,,,,,,,,,,19,f,184,n,2019_Dec_05_1501,ec_RRR,3.0.4,59.79616672271678,
Vadillo,"Para esta tarea, el personaje clave es Shelmet:","De modo que siempre que veas a Shelmet (su nombre o su imagen) en la pantalla, pulsa la barra espaciadora tan rápido como sea posible. Pulsa la barra espaciadora cuando veas una imagen de Shelmet o la palabra SHELMET. 

Pulsa la barra espaciadora para comenzar la tarea.",target2,stimuli/t2.jpg,184,68,stimuli/filler51.jpg,filler,False,None,,,,,,,,,,,,,,0,0,0,0,,,,,0,0,0,1,0,67,67,67,,,,,,,,,,,,,,,,,,,,,,,,,,,,,,,,,,,,,,,,,,,,,,,,,,,,,CS1_USneg,None,1,,,,,,,,,,,,,,,,,,19,f,184,n,2019_Dec_05_1501,ec_RRR,3.0.4,59.79616672271678,
Vadillo,"Para esta tarea, el personaje clave es Shelmet:","De modo que siempre que veas a Shelmet (su nombre o su imagen) en la pantalla, pulsa la barra espaciadora tan rápido como sea posible. Pulsa la barra espaciadora cuando veas una imagen de Shelmet o la palabra SHELMET. 

Pulsa la barra espaciadora para comenzar la tarea.",target2,stimuli/t2.jpg,184,69,stimuli/filler1.jpg,filler,False,None,,,,,,,,,,,,,,0,0,0,0,,,,,0,0,0,1,0,68,68,68,,,,,,,,,,,,,,,,,,,,,,,,,,,,,,,,,,,,,,,,,,,,,,,,,,,,,CS1_USneg,None,1,,,,,,,,,,,,,,,,,,19,f,184,n,2019_Dec_05_1501,ec_RRR,3.0.4,59.79616672271678,
Vadillo,"Para esta tarea, el personaje clave es Shelmet:","De modo que siempre que veas a Shelmet (su nombre o su imagen) en la pantalla, pulsa la barra espaciadora tan rápido como sea posible. Pulsa la barra espaciadora cuando veas una imagen de Shelmet o la palabra SHELMET. 

Pulsa la barra espaciadora para comenzar la tarea.",target2,stimuli/t2.jpg,184,70,stimuli/blank.jpg,blank,False,None,,,,,,,,,,,,,,0,0,0,0,,,,,0,0,0,1,0,69,69,69,,,,,,,,,,,,,,,,,,,,,,,,,,,,,,,,,,,,,,,,,,,,,,,,,,,,,CS1_USneg,None,1,,,,,,,,,,,,,,,,,,19,f,184,n,2019_Dec_05_1501,ec_RRR,3.0.4,59.79616672271678,
Vadillo,"Para esta tarea, el personaje clave es Shelmet:","De modo que siempre que veas a Shelmet (su nombre o su imagen) en la pantalla, pulsa la barra espaciadora tan rápido como sea posible. Pulsa la barra espaciadora cuando veas una imagen de Shelmet o la palabra SHELMET. 

Pulsa la barra espaciadora para comenzar la tarea.",target2,stimuli/t2.jpg,184,71,stimuli/cs1_neg12.jpg,CSUS,False,None,,,,,,,,,,,,,,0,0,0,0,,,,,0,0,0,1,0,70,70,70,,,,,,,,,,,,,,,,,,,,,,,,,,,,,,,,,,,,,,,,,,,,,,,,,,,,,CS1_USneg,None,1,,,,,,,,,,,,,,,,,,19,f,184,n,2019_Dec_05_1501,ec_RRR,3.0.4,59.79616672271678,
Vadillo,"Para esta tarea, el personaje clave es Shelmet:","De modo que siempre que veas a Shelmet (su nombre o su imagen) en la pantalla, pulsa la barra espaciadora tan rápido como sea posible. Pulsa la barra espaciadora cuando veas una imagen de Shelmet o la palabra SHELMET. 

Pulsa la barra espaciadora para comenzar la tarea.",target2,stimuli/t2.jpg,184,72,stimuli/blank.jpg,blank,False,None,,,,,,,,,,,,,,0,0,0,0,,,,,0,0,0,1,0,71,71,71,,,,,,,,,,,,,,,,,,,,,,,,,,,,,,,,,,,,,,,,,,,,,,,,,,,,,CS1_USneg,None,1,,,,,,,,,,,,,,,,,,19,f,184,n,2019_Dec_05_1501,ec_RRR,3.0.4,59.79616672271678,
Vadillo,"Para esta tarea, el personaje clave es Shelmet:","De modo que siempre que veas a Shelmet (su nombre o su imagen) en la pantalla, pulsa la barra espaciadora tan rápido como sea posible. Pulsa la barra espaciadora cuando veas una imagen de Shelmet o la palabra SHELMET. 

Pulsa la barra espaciadora para comenzar la tarea.",target2,stimuli/t2.jpg,184,73,stimuli/filler41.jpg,filler,False,None,,,,,,,,,,,,,,0,0,0,0,,,,,0,0,0,1,0,72,72,72,,,,,,,,,,,,,,,,,,,,,,,,,,,,,,,,,,,,,,,,,,,,,,,,,,,,,CS1_USneg,None,1,,,,,,,,,,,,,,,,,,19,f,184,n,2019_Dec_05_1501,ec_RRR,3.0.4,59.79616672271678,
Vadillo,"Para esta tarea, el personaje clave es Shelmet:","De modo que siempre que veas a Shelmet (su nombre o su imagen) en la pantalla, pulsa la barra espaciadora tan rápido como sea posible. Pulsa la barra espaciadora cuando veas una imagen de Shelmet o la palabra SHELMET. 

Pulsa la barra espaciadora para comenzar la tarea.",target2,stimuli/t2.jpg,184,74,stimuli/filler35.jpg,filler,False,None,,,,,,,,,,,,,,0,0,0,0,,,,,0,0,0,1,0,73,73,73,,,,,,,,,,,,,,,,,,,,,,,,,,,,,,,,,,,,,,,,,,,,,,,,,,,,,CS1_USneg,None,1,,,,,,,,,,,,,,,,,,19,f,184,n,2019_Dec_05_1501,ec_RRR,3.0.4,59.79616672271678,
Vadillo,"Para esta tarea, el personaje clave es Shelmet:","De modo que siempre que veas a Shelmet (su nombre o su imagen) en la pantalla, pulsa la barra espaciadora tan rápido como sea posible. Pulsa la barra espaciadora cuando veas una imagen de Shelmet o la palabra SHELMET. 

Pulsa la barra espaciadora para comenzar la tarea.",target2,stimuli/t2.jpg,184,75,stimuli/filler49.jpg,filler,False,None,,,,,,,,,,,,,,0,0,0,0,,,,,0,0,0,1,0,74,74,74,,,,,,,,,,,,,,,,,,,,,,,,,,,,,,,,,,,,,,,,,,,,,,,,,,,,,CS1_USneg,None,1,,,,,,,,,,,,,,,,,,19,f,184,n,2019_Dec_05_1501,ec_RRR,3.0.4,59.79616672271678,
Vadillo,"Para esta tarea, el personaje clave es Shelmet:","De modo que siempre que veas a Shelmet (su nombre o su imagen) en la pantalla, pulsa la barra espaciadora tan rápido como sea posible. Pulsa la barra espaciadora cuando veas una imagen de Shelmet o la palabra SHELMET. 

Pulsa la barra espaciadora para comenzar la tarea.",target2,stimuli/t2.jpg,184,76,stimuli/filler34.jpg,filler,False,None,,,,,,,,,,,,,,0,0,0,0,,,,,0,0,0,1,0,75,75,75,,,,,,,,,,,,,,,,,,,,,,,,,,,,,,,,,,,,,,,,,,,,,,,,,,,,,CS1_USneg,None,1,,,,,,,,,,,,,,,,,,19,f,184,n,2019_Dec_05_1501,ec_RRR,3.0.4,59.79616672271678,
Vadillo,"Para esta tarea, el personaje clave es Shelmet:","De modo que siempre que veas a Shelmet (su nombre o su imagen) en la pantalla, pulsa la barra espaciadora tan rápido como sea posible. Pulsa la barra espaciadora cuando veas una imagen de Shelmet o la palabra SHELMET. 

Pulsa la barra espaciadora para comenzar la tarea.",target2,stimuli/t2.jpg,184,77,stimuli/target2_9.jpg,target,True,space,,,,,,,,,,,,,,0,0,0,0,,,,,0,0,0,1,0,76,76,76,,,,,,,,,,,,,,,,,,,,,,,,,,,,,,,,,,,,,,,,,,,,,,,,,,,,,CS1_USneg,space,1,0.5779240443371236,,,,,,,,,,,,,,,,,19,f,184,n,2019_Dec_05_1501,ec_RRR,3.0.4,59.79616672271678,
Vadillo,"Para esta tarea, el personaje clave es Shelmet:","De modo que siempre que veas a Shelmet (su nombre o su imagen) en la pantalla, pulsa la barra espaciadora tan rápido como sea posible. Pulsa la barra espaciadora cuando veas una imagen de Shelmet o la palabra SHELMET. 

Pulsa la barra espaciadora para comenzar la tarea.",target2,stimuli/t2.jpg,184,78,stimuli/filler29.jpg,filler,False,None,,,,,,,,,,,,,,0,0,0,0,,,,,0,0,0,1,0,77,77,77,,,,,,,,,,,,,,,,,,,,,,,,,,,,,,,,,,,,,,,,,,,,,,,,,,,,,CS1_USneg,None,1,,,,,,,,,,,,,,,,,,19,f,184,n,2019_Dec_05_1501,ec_RRR,3.0.4,59.79616672271678,
Vadillo,"Para esta tarea, el personaje clave es Shelmet:","De modo que siempre que veas a Shelmet (su nombre o su imagen) en la pantalla, pulsa la barra espaciadora tan rápido como sea posible. Pulsa la barra espaciadora cuando veas una imagen de Shelmet o la palabra SHELMET. 

Pulsa la barra espaciadora para comenzar la tarea.",target2,stimuli/t2.jpg,184,79,stimuli/filler13.jpg,filler,False,None,,,,,,,,,,,,,,0,0,0,0,,,,,0,0,0,1,0,78,78,78,,,,,,,,,,,,,,,,,,,,,,,,,,,,,,,,,,,,,,,,,,,,,,,,,,,,,CS1_USneg,None,1,,,,,,,,,,,,,,,,,,19,f,184,n,2019_Dec_05_1501,ec_RRR,3.0.4,59.79616672271678,
Vadillo,"Para esta tarea, el personaje clave es Shelmet:","De modo que siempre que veas a Shelmet (su nombre o su imagen) en la pantalla, pulsa la barra espaciadora tan rápido como sea posible. Pulsa la barra espaciadora cuando veas una imagen de Shelmet o la palabra SHELMET. 

Pulsa la barra espaciadora para comenzar la tarea.",target2,stimuli/t2.jpg,184,80,stimuli/blank.jpg,blank,False,None,,,,,,,,,,,,,,0,0,0,0,,,,,0,0,0,1,0,79,79,79,,,,,,,,,,,,,,,,,,,,,,,,,,,,,,,,,,,,,,,,,,,,,,,,,,,,,CS1_USneg,None,1,,,,,,,,,,,,,,,,,,19,f,184,n,2019_Dec_05_1501,ec_RRR,3.0.4,59.79616672271678,
Vadillo,"Para esta tarea, el personaje clave es Shelmet:","De modo que siempre que veas a Shelmet (su nombre o su imagen) en la pantalla, pulsa la barra espaciadora tan rápido como sea posible. Pulsa la barra espaciadora cuando veas una imagen de Shelmet o la palabra SHELMET. 

Pulsa la barra espaciadora para comenzar la tarea.",target2,stimuli/t2.jpg,184,81,stimuli/cs2_pos8.jpg,CSUS,False,None,,,,,,,,,,,,,,0,0,0,0,,,,,0,0,0,1,0,80,80,80,,,,,,,,,,,,,,,,,,,,,,,,,,,,,,,,,,,,,,,,,,,,,,,,,,,,,CS1_USneg,None,1,,,,,,,,,,,,,,,,,,19,f,184,n,2019_Dec_05_1501,ec_RRR,3.0.4,59.79616672271678,
Vadillo,"Para esta tarea, el personaje clave es Shelmet:","De modo que siempre que veas a Shelmet (su nombre o su imagen) en la pantalla, pulsa la barra espaciadora tan rápido como sea posible. Pulsa la barra espaciadora cuando veas una imagen de Shelmet o la palabra SHELMET. 

Pulsa la barra espaciadora para comenzar la tarea.",target2,stimuli/t2.jpg,184,82,stimuli/blank.jpg,blank,False,None,,,,,,,,,,,,,,0,0,0,0,,,,,0,0,0,1,0,81,81,81,,,,,,,,,,,,,,,,,,,,,,,,,,,,,,,,,,,,,,,,,,,,,,,,,,,,,CS1_USneg,None,1,,,,,,,,,,,,,,,,,,19,f,184,n,2019_Dec_05_1501,ec_RRR,3.0.4,59.79616672271678,
Vadillo,"Para esta tarea, el personaje clave es Shelmet:","De modo que siempre que veas a Shelmet (su nombre o su imagen) en la pantalla, pulsa la barra espaciadora tan rápido como sea posible. Pulsa la barra espaciadora cuando veas una imagen de Shelmet o la palabra SHELMET. 

Pulsa la barra espaciadora para comenzar la tarea.",target2,stimuli/t2.jpg,184,83,stimuli/filler3.jpg,filler,False,None,,,,,,,,,,,,,,0,0,0,0,,,,,0,0,0,1,0,82,82,82,,,,,,,,,,,,,,,,,,,,,,,,,,,,,,,,,,,,,,,,,,,,,,,,,,,,,CS1_USneg,None,1,,,,,,,,,,,,,,,,,,19,f,184,n,2019_Dec_05_1501,ec_RRR,3.0.4,59.79616672271678,
Vadillo,"Para esta tarea, el personaje clave es Shelmet:","De modo que siempre que veas a Shelmet (su nombre o su imagen) en la pantalla, pulsa la barra espaciadora tan rápido como sea posible. Pulsa la barra espaciadora cuando veas una imagen de Shelmet o la palabra SHELMET. 

Pulsa la barra espaciadora para comenzar la tarea.",target2,stimuli/t2.jpg,184,84,stimuli/target2_7.jpg,target,True,space,,,,,,,,,,,,,,0,0,0,0,,,,,0,0,0,1,0,83,83,83,,,,,,,,,,,,,,,,,,,,,,,,,,,,,,,,,,,,,,,,,,,,,,,,,,,,,CS1_USneg,space,1,0.5946954395622015,,,,,,,,,,,,,,,,,19,f,184,n,2019_Dec_05_1501,ec_RRR,3.0.4,59.79616672271678,
Vadillo,"Para esta tarea, el personaje clave es Shelmet:","De modo que siempre que veas a Shelmet (su nombre o su imagen) en la pantalla, pulsa la barra espaciadora tan rápido como sea posible. Pulsa la barra espaciadora cuando veas una imagen de Shelmet o la palabra SHELMET. 

Pulsa la barra espaciadora para comenzar la tarea.",target2,stimuli/t2.jpg,184,85,stimuli/filler52.jpg,filler,False,None,,,,,,,,,,,,,,0,0,0,0,,,,,0,0,0,1,0,84,84,84,,,,,,,,,,,,,,,,,,,,,,,,,,,,,,,,,,,,,,,,,,,,,,,,,,,,,CS1_USneg,None,1,,,,,,,,,,,,,,,,,,19,f,184,n,2019_Dec_05_1501,ec_RRR,3.0.4,59.79616672271678,
Vadillo,"Para esta tarea, el personaje clave es Shelmet:","De modo que siempre que veas a Shelmet (su nombre o su imagen) en la pantalla, pulsa la barra espaciadora tan rápido como sea posible. Pulsa la barra espaciadora cuando veas una imagen de Shelmet o la palabra SHELMET. 

Pulsa la barra espaciadora para comenzar la tarea.",target2,stimuli/t2.jpg,184,86,stimuli/filler23.jpg,filler,False,None,,,,,,,,,,,,,,0,0,0,0,,,,,0,0,0,1,0,85,85,85,,,,,,,,,,,,,,,,,,,,,,,,,,,,,,,,,,,,,,,,,,,,,,,,,,,,,CS1_USneg,None,1,,,,,,,,,,,,,,,,,,19,f,184,n,2019_Dec_05_1501,ec_RRR,3.0.4,59.79616672271678,
Vadillo,"Para esta tarea, el personaje clave es Bergmite:","De modo que siempre que veas a Bergmite (su nombre o su imagen) en la pantalla, pulsa la barra espaciadora tan rápido como sea posible. Pulsa la barra espaciadora cuando veas una imagen de Bergmite o la palabra BERGMITE. 

Pulsa la barra espaciadora para comenzar la tarea.",target3,stimuli/t3.jpg,184,1,stimuli/filler1.jpg,filler,False,None,,,,,,,,,,,,,,0,0,0,0,,,,,0,1,1,2,0,0,0,0,,,,,,,,,,,,,,,,,,,,,,,,,,,,,,,,,,,,,,,,,,,,,,,,,,,,,CS1_USneg,None,1,,,,,,,,,,,,,,,,,,19,f,184,n,2019_Dec_05_1501,ec_RRR,3.0.4,59.79616672271678,
Vadillo,"Para esta tarea, el personaje clave es Bergmite:","De modo que siempre que veas a Bergmite (su nombre o su imagen) en la pantalla, pulsa la barra espaciadora tan rápido como sea posible. Pulsa la barra espaciadora cuando veas una imagen de Bergmite o la palabra BERGMITE. 

Pulsa la barra espaciadora para comenzar la tarea.",target3,stimuli/t3.jpg,184,2,stimuli/filler42.jpg,filler,False,None,,,,,,,,,,,,,,0,0,0,0,,,,,0,1,1,2,0,1,1,1,,,,,,,,,,,,,,,,,,,,,,,,,,,,,,,,,,,,,,,,,,,,,,,,,,,,,CS1_USneg,None,1,,,,,,,,,,,,,,,,,,19,f,184,n,2019_Dec_05_1501,ec_RRR,3.0.4,59.79616672271678,
Vadillo,"Para esta tarea, el personaje clave es Bergmite:","De modo que siempre que veas a Bergmite (su nombre o su imagen) en la pantalla, pulsa la barra espaciadora tan rápido como sea posible. Pulsa la barra espaciadora cuando veas una imagen de Bergmite o la palabra BERGMITE. 

Pulsa la barra espaciadora para comenzar la tarea.",target3,stimuli/t3.jpg,184,3,stimuli/filler20.jpg,filler,False,None,,,,,,,,,,,,,,0,0,0,0,,,,,0,1,1,2,0,2,2,2,,,,,,,,,,,,,,,,,,,,,,,,,,,,,,,,,,,,,,,,,,,,,,,,,,,,,CS1_USneg,None,1,,,,,,,,,,,,,,,,,,19,f,184,n,2019_Dec_05_1501,ec_RRR,3.0.4,59.79616672271678,
Vadillo,"Para esta tarea, el personaje clave es Bergmite:","De modo que siempre que veas a Bergmite (su nombre o su imagen) en la pantalla, pulsa la barra espaciadora tan rápido como sea posible. Pulsa la barra espaciadora cuando veas una imagen de Bergmite o la palabra BERGMITE. 

Pulsa la barra espaciadora para comenzar la tarea.",target3,stimuli/t3.jpg,184,4,stimuli/filler12.jpg,filler,False,None,,,,,,,,,,,,,,0,0,0,0,,,,,0,1,1,2,0,3,3,3,,,,,,,,,,,,,,,,,,,,,,,,,,,,,,,,,,,,,,,,,,,,,,,,,,,,,CS1_USneg,None,1,,,,,,,,,,,,,,,,,,19,f,184,n,2019_Dec_05_1501,ec_RRR,3.0.4,59.79616672271678,
Vadillo,"Para esta tarea, el personaje clave es Bergmite:","De modo que siempre que veas a Bergmite (su nombre o su imagen) en la pantalla, pulsa la barra espaciadora tan rápido como sea posible. Pulsa la barra espaciadora cuando veas una imagen de Bergmite o la palabra BERGMITE. 

Pulsa la barra espaciadora para comenzar la tarea.",target3,stimuli/t3.jpg,184,5,stimuli/filler19.jpg,filler,False,None,,,,,,,,,,,,,,0,0,0,0,,,,,0,1,1,2,0,4,4,4,,,,,,,,,,,,,,,,,,,,,,,,,,,,,,,,,,,,,,,,,,,,,,,,,,,,,CS1_USneg,None,1,,,,,,,,,,,,,,,,,,19,f,184,n,2019_Dec_05_1501,ec_RRR,3.0.4,59.79616672271678,
Vadillo,"Para esta tarea, el personaje clave es Bergmite:","De modo que siempre que veas a Bergmite (su nombre o su imagen) en la pantalla, pulsa la barra espaciadora tan rápido como sea posible. Pulsa la barra espaciadora cuando veas una imagen de Bergmite o la palabra BERGMITE. 

Pulsa la barra espaciadora para comenzar la tarea.",target3,stimuli/t3.jpg,184,6,stimuli/target3_7.jpg,target,True,space,,,,,,,,,,,,,,0,0,0,0,,,,,0,1,1,2,0,5,5,5,,,,,,,,,,,,,,,,,,,,,,,,,,,,,,,,,,,,,,,,,,,,,,,,,,,,,CS1_USneg,space,1,1.052268544677645,,,,,,,,,,,,,,,,,19,f,184,n,2019_Dec_05_1501,ec_RRR,3.0.4,59.79616672271678,
Vadillo,"Para esta tarea, el personaje clave es Bergmite:","De modo que siempre que veas a Bergmite (su nombre o su imagen) en la pantalla, pulsa la barra espaciadora tan rápido como sea posible. Pulsa la barra espaciadora cuando veas una imagen de Bergmite o la palabra BERGMITE. 

Pulsa la barra espaciadora para comenzar la tarea.",target3,stimuli/t3.jpg,184,7,stimuli/filler29.jpg,filler,False,None,,,,,,,,,,,,,,0,0,0,0,,,,,0,1,1,2,0,6,6,6,,,,,,,,,,,,,,,,,,,,,,,,,,,,,,,,,,,,,,,,,,,,,,,,,,,,,CS1_USneg,None,1,,,,,,,,,,,,,,,,,,19,f,184,n,2019_Dec_05_1501,ec_RRR,3.0.4,59.79616672271678,
Vadillo,"Para esta tarea, el personaje clave es Bergmite:","De modo que siempre que veas a Bergmite (su nombre o su imagen) en la pantalla, pulsa la barra espaciadora tan rápido como sea posible. Pulsa la barra espaciadora cuando veas una imagen de Bergmite o la palabra BERGMITE. 

Pulsa la barra espaciadora para comenzar la tarea.",target3,stimuli/t3.jpg,184,8,stimuli/target3_5.jpg,target,True,space,,,,,,,,,,,,,,0,0,0,0,,,,,0,1,1,2,0,7,7,7,,,,,,,,,,,,,,,,,,,,,,,,,,,,,,,,,,,,,,,,,,,,,,,,,,,,,CS1_USneg,space,1,0.5267731393687427,,,,,,,,,,,,,,,,,19,f,184,n,2019_Dec_05_1501,ec_RRR,3.0.4,59.79616672271678,
Vadillo,"Para esta tarea, el personaje clave es Bergmite:","De modo que siempre que veas a Bergmite (su nombre o su imagen) en la pantalla, pulsa la barra espaciadora tan rápido como sea posible. Pulsa la barra espaciadora cuando veas una imagen de Bergmite o la palabra BERGMITE. 

Pulsa la barra espaciadora para comenzar la tarea.",target3,stimuli/t3.jpg,184,9,stimuli/filler9.jpg,filler,False,None,,,,,,,,,,,,,,0,0,0,0,,,,,0,1,1,2,0,8,8,8,,,,,,,,,,,,,,,,,,,,,,,,,,,,,,,,,,,,,,,,,,,,,,,,,,,,,CS1_USneg,None,1,,,,,,,,,,,,,,,,,,19,f,184,n,2019_Dec_05_1501,ec_RRR,3.0.4,59.79616672271678,
Vadillo,"Para esta tarea, el personaje clave es Bergmite:","De modo que siempre que veas a Bergmite (su nombre o su imagen) en la pantalla, pulsa la barra espaciadora tan rápido como sea posible. Pulsa la barra espaciadora cuando veas una imagen de Bergmite o la palabra BERGMITE. 

Pulsa la barra espaciadora para comenzar la tarea.",target3,stimuli/t3.jpg,184,10,stimuli/blank.jpg,blank,False,None,,,,,,,,,,,,,,0,0,0,0,,,,,0,1,1,2,0,9,9,9,,,,,,,,,,,,,,,,,,,,,,,,,,,,,,,,,,,,,,,,,,,,,,,,,,,,,CS1_USneg,None,1,,,,,,,,,,,,,,,,,,19,f,184,n,2019_Dec_05_1501,ec_RRR,3.0.4,59.79616672271678,
Vadillo,"Para esta tarea, el personaje clave es Bergmite:","De modo que siempre que veas a Bergmite (su nombre o su imagen) en la pantalla, pulsa la barra espaciadora tan rápido como sea posible. Pulsa la barra espaciadora cuando veas una imagen de Bergmite o la palabra BERGMITE. 

Pulsa la barra espaciadora para comenzar la tarea.",target3,stimuli/t3.jpg,184,11,stimuli/cs1_neg4.jpg,CSUS,False,None,,,,,,,,,,,,,,0,0,0,0,,,,,0,1,1,2,0,10,10,10,,,,,,,,,,,,,,,,,,,,,,,,,,,,,,,,,,,,,,,,,,,,,,,,,,,,,CS1_USneg,None,1,,,,,,,,,,,,,,,,,,19,f,184,n,2019_Dec_05_1501,ec_RRR,3.0.4,59.79616672271678,
Vadillo,"Para esta tarea, el personaje clave es Bergmite:","De modo que siempre que veas a Bergmite (su nombre o su imagen) en la pantalla, pulsa la barra espaciadora tan rápido como sea posible. Pulsa la barra espaciadora cuando veas una imagen de Bergmite o la palabra BERGMITE. 

Pulsa la barra espaciadora para comenzar la tarea.",target3,stimuli/t3.jpg,184,12,stimuli/blank.jpg,blank,False,None,,,,,,,,,,,,,,0,0,0,0,,,,,0,1,1,2,0,11,11,11,,,,,,,,,,,,,,,,,,,,,,,,,,,,,,,,,,,,,,,,,,,,,,,,,,,,,CS1_USneg,None,1,,,,,,,,,,,,,,,,,,19,f,184,n,2019_Dec_05_1501,ec_RRR,3.0.4,59.79616672271678,
Vadillo,"Para esta tarea, el personaje clave es Bergmite:","De modo que siempre que veas a Bergmite (su nombre o su imagen) en la pantalla, pulsa la barra espaciadora tan rápido como sea posible. Pulsa la barra espaciadora cuando veas una imagen de Bergmite o la palabra BERGMITE. 

Pulsa la barra espaciadora para comenzar la tarea.",target3,stimuli/t3.jpg,184,13,stimuli/filler31.jpg,filler,False,None,,,,,,,,,,,,,,0,0,0,0,,,,,0,1,1,2,0,12,12,12,,,,,,,,,,,,,,,,,,,,,,,,,,,,,,,,,,,,,,,,,,,,,,,,,,,,,CS1_USneg,None,1,,,,,,,,,,,,,,,,,,19,f,184,n,2019_Dec_05_1501,ec_RRR,3.0.4,59.79616672271678,
Vadillo,"Para esta tarea, el personaje clave es Bergmite:","De modo que siempre que veas a Bergmite (su nombre o su imagen) en la pantalla, pulsa la barra espaciadora tan rápido como sea posible. Pulsa la barra espaciadora cuando veas una imagen de Bergmite o la palabra BERGMITE. 

Pulsa la barra espaciadora para comenzar la tarea.",target3,stimuli/t3.jpg,184,14,stimuli/target3_10.jpg,target,True,space,,,,,,,,,,,,,,0,0,0,0,,,,,0,1,1,2,0,13,13,13,,,,,,,,,,,,,,,,,,,,,,,,,,,,,,,,,,,,,,,,,,,,,,,,,,,,,CS1_USneg,space,1,0.4272495713084936,,,,,,,,,,,,,,,,,19,f,184,n,2019_Dec_05_1501,ec_RRR,3.0.4,59.79616672271678,
Vadillo,"Para esta tarea, el personaje clave es Bergmite:","De modo que siempre que veas a Bergmite (su nombre o su imagen) en la pantalla, pulsa la barra espaciadora tan rápido como sea posible. Pulsa la barra espaciadora cuando veas una imagen de Bergmite o la palabra BERGMITE. 

Pulsa la barra espaciadora para comenzar la tarea.",target3,stimuli/t3.jpg,184,15,stimuli/target3_3.jpg,target,True,space,,,,,,,,,,,,,,0,0,0,0,,,,,0,1,1,2,0,14,14,14,,,,,,,,,,,,,,,,,,,,,,,,,,,,,,,,,,,,,,,,,,,,,,,,,,,,,CS1_USneg,space,1,0.6787563082762063,,,,,,,,,,,,,,,,,19,f,184,n,2019_Dec_05_1501,ec_RRR,3.0.4,59.79616672271678,
Vadillo,"Para esta tarea, el personaje clave es Bergmite:","De modo que siempre que veas a Bergmite (su nombre o su imagen) en la pantalla, pulsa la barra espaciadora tan rápido como sea posible. Pulsa la barra espaciadora cuando veas una imagen de Bergmite o la palabra BERGMITE. 

Pulsa la barra espaciadora para comenzar la tarea.",target3,stimuli/t3.jpg,184,16,stimuli/filler24.jpg,filler,False,None,,,,,,,,,,,,,,0,0,0,0,,,,,0,1,1,2,0,15,15,15,,,,,,,,,,,,,,,,,,,,,,,,,,,,,,,,,,,,,,,,,,,,,,,,,,,,,CS1_USneg,None,1,,,,,,,,,,,,,,,,,,19,f,184,n,2019_Dec_05_1501,ec_RRR,3.0.4,59.79616672271678,
Vadillo,"Para esta tarea, el personaje clave es Bergmite:","De modo que siempre que veas a Bergmite (su nombre o su imagen) en la pantalla, pulsa la barra espaciadora tan rápido como sea posible. Pulsa la barra espaciadora cuando veas una imagen de Bergmite o la palabra BERGMITE. 

Pulsa la barra espaciadora para comenzar la tarea.",target3,stimuli/t3.jpg,184,17,stimuli/filler46.jpg,filler,False,None,,,,,,,,,,,,,,0,0,0,0,,,,,0,1,1,2,0,16,16,16,,,,,,,,,,,,,,,,,,,,,,,,,,,,,,,,,,,,,,,,,,,,,,,,,,,,,CS1_USneg,None,1,,,,,,,,,,,,,,,,,,19,f,184,n,2019_Dec_05_1501,ec_RRR,3.0.4,59.79616672271678,
Vadillo,"Para esta tarea, el personaje clave es Bergmite:","De modo que siempre que veas a Bergmite (su nombre o su imagen) en la pantalla, pulsa la barra espaciadora tan rápido como sea posible. Pulsa la barra espaciadora cuando veas una imagen de Bergmite o la palabra BERGMITE. 

Pulsa la barra espaciadora para comenzar la tarea.",target3,stimuli/t3.jpg,184,18,stimuli/filler30.jpg,filler,False,None,,,,,,,,,,,,,,0,0,0,0,,,,,0,1,1,2,0,17,17,17,,,,,,,,,,,,,,,,,,,,,,,,,,,,,,,,,,,,,,,,,,,,,,,,,,,,,CS1_USneg,None,1,,,,,,,,,,,,,,,,,,19,f,184,n,2019_Dec_05_1501,ec_RRR,3.0.4,59.79616672271678,
Vadillo,"Para esta tarea, el personaje clave es Bergmite:","De modo que siempre que veas a Bergmite (su nombre o su imagen) en la pantalla, pulsa la barra espaciadora tan rápido como sea posible. Pulsa la barra espaciadora cuando veas una imagen de Bergmite o la palabra BERGMITE. 

Pulsa la barra espaciadora para comenzar la tarea.",target3,stimuli/t3.jpg,184,19,stimuli/filler18.jpg,filler,False,None,,,,,,,,,,,,,,0,0,0,0,,,,,0,1,1,2,0,18,18,18,,,,,,,,,,,,,,,,,,,,,,,,,,,,,,,,,,,,,,,,,,,,,,,,,,,,,CS1_USneg,None,1,,,,,,,,,,,,,,,,,,19,f,184,n,2019_Dec_05_1501,ec_RRR,3.0.4,59.79616672271678,
Vadillo,"Para esta tarea, el personaje clave es Bergmite:","De modo que siempre que veas a Bergmite (su nombre o su imagen) en la pantalla, pulsa la barra espaciadora tan rápido como sea posible. Pulsa la barra espaciadora cuando veas una imagen de Bergmite o la palabra BERGMITE. 

Pulsa la barra espaciadora para comenzar la tarea.",target3,stimuli/t3.jpg,184,20,stimuli/blank.jpg,blank,False,None,,,,,,,,,,,,,,0,0,0,0,,,,,0,1,1,2,0,19,19,19,,,,,,,,,,,,,,,,,,,,,,,,,,,,,,,,,,,,,,,,,,,,,,,,,,,,,CS1_USneg,None,1,,,,,,,,,,,,,,,,,,19,f,184,n,2019_Dec_05_1501,ec_RRR,3.0.4,59.79616672271678,
Vadillo,"Para esta tarea, el personaje clave es Bergmite:","De modo que siempre que veas a Bergmite (su nombre o su imagen) en la pantalla, pulsa la barra espaciadora tan rápido como sea posible. Pulsa la barra espaciadora cuando veas una imagen de Bergmite o la palabra BERGMITE. 

Pulsa la barra espaciadora para comenzar la tarea.",target3,stimuli/t3.jpg,184,21,stimuli/cs2_pos17.jpg,CSUS,False,None,,,,,,,,,,,,,,0,0,0,0,,,,,0,1,1,2,0,20,20,20,,,,,,,,,,,,,,,,,,,,,,,,,,,,,,,,,,,,,,,,,,,,,,,,,,,,,CS1_USneg,None,1,,,,,,,,,,,,,,,,,,19,f,184,n,2019_Dec_05_1501,ec_RRR,3.0.4,59.79616672271678,
Vadillo,"Para esta tarea, el personaje clave es Bergmite:","De modo que siempre que veas a Bergmite (su nombre o su imagen) en la pantalla, pulsa la barra espaciadora tan rápido como sea posible. Pulsa la barra espaciadora cuando veas una imagen de Bergmite o la palabra BERGMITE. 

Pulsa la barra espaciadora para comenzar la tarea.",target3,stimuli/t3.jpg,184,22,stimuli/blank.jpg,blank,False,None,,,,,,,,,,,,,,0,0,0,0,,,,,0,1,1,2,0,21,21,21,,,,,,,,,,,,,,,,,,,,,,,,,,,,,,,,,,,,,,,,,,,,,,,,,,,,,CS1_USneg,None,1,,,,,,,,,,,,,,,,,,19,f,184,n,2019_Dec_05_1501,ec_RRR,3.0.4,59.79616672271678,
Vadillo,"Para esta tarea, el personaje clave es Bergmite:","De modo que siempre que veas a Bergmite (su nombre o su imagen) en la pantalla, pulsa la barra espaciadora tan rápido como sea posible. Pulsa la barra espaciadora cuando veas una imagen de Bergmite o la palabra BERGMITE. 

Pulsa la barra espaciadora para comenzar la tarea.",target3,stimuli/t3.jpg,184,23,stimuli/filler36.jpg,filler,False,None,,,,,,,,,,,,,,0,0,0,0,,,,,0,1,1,2,0,22,22,22,,,,,,,,,,,,,,,,,,,,,,,,,,,,,,,,,,,,,,,,,,,,,,,,,,,,,CS1_USneg,None,1,,,,,,,,,,,,,,,,,,19,f,184,n,2019_Dec_05_1501,ec_RRR,3.0.4,59.79616672271678,
Vadillo,"Para esta tarea, el personaje clave es Bergmite:","De modo que siempre que veas a Bergmite (su nombre o su imagen) en la pantalla, pulsa la barra espaciadora tan rápido como sea posible. Pulsa la barra espaciadora cuando veas una imagen de Bergmite o la palabra BERGMITE. 

Pulsa la barra espaciadora para comenzar la tarea.",target3,stimuli/t3.jpg,184,24,stimuli/filler17.jpg,filler,False,None,,,,,,,,,,,,,,0,0,0,0,,,,,0,1,1,2,0,23,23,23,,,,,,,,,,,,,,,,,,,,,,,,,,,,,,,,,,,,,,,,,,,,,,,,,,,,,CS1_USneg,None,1,,,,,,,,,,,,,,,,,,19,f,184,n,2019_Dec_05_1501,ec_RRR,3.0.4,59.79616672271678,
Vadillo,"Para esta tarea, el personaje clave es Bergmite:","De modo que siempre que veas a Bergmite (su nombre o su imagen) en la pantalla, pulsa la barra espaciadora tan rápido como sea posible. Pulsa la barra espaciadora cuando veas una imagen de Bergmite o la palabra BERGMITE. 

Pulsa la barra espaciadora para comenzar la tarea.",target3,stimuli/t3.jpg,184,25,stimuli/filler16.jpg,filler,False,None,,,,,,,,,,,,,,0,0,0,0,,,,,0,1,1,2,0,24,24,24,,,,,,,,,,,,,,,,,,,,,,,,,,,,,,,,,,,,,,,,,,,,,,,,,,,,,CS1_USneg,None,1,,,,,,,,,,,,,,,,,,19,f,184,n,2019_Dec_05_1501,ec_RRR,3.0.4,59.79616672271678,
Vadillo,"Para esta tarea, el personaje clave es Bergmite:","De modo que siempre que veas a Bergmite (su nombre o su imagen) en la pantalla, pulsa la barra espaciadora tan rápido como sea posible. Pulsa la barra espaciadora cuando veas una imagen de Bergmite o la palabra BERGMITE. 

Pulsa la barra espaciadora para comenzar la tarea.",target3,stimuli/t3.jpg,184,26,stimuli/filler28.jpg,filler,False,None,,,,,,,,,,,,,,0,0,0,0,,,,,0,1,1,2,0,25,25,25,,,,,,,,,,,,,,,,,,,,,,,,,,,,,,,,,,,,,,,,,,,,,,,,,,,,,CS1_USneg,None,1,,,,,,,,,,,,,,,,,,19,f,184,n,2019_Dec_05_1501,ec_RRR,3.0.4,59.79616672271678,
Vadillo,"Para esta tarea, el personaje clave es Bergmite:","De modo que siempre que veas a Bergmite (su nombre o su imagen) en la pantalla, pulsa la barra espaciadora tan rápido como sea posible. Pulsa la barra espaciadora cuando veas una imagen de Bergmite o la palabra BERGMITE. 

Pulsa la barra espaciadora para comenzar la tarea.",target3,stimuli/t3.jpg,184,27,stimuli/filler26.jpg,filler,False,None,,,,,,,,,,,,,,0,0,0,0,,,,,0,1,1,2,0,26,26,26,,,,,,,,,,,,,,,,,,,,,,,,,,,,,,,,,,,,,,,,,,,,,,,,,,,,,CS1_USneg,None,1,,,,,,,,,,,,,,,,,,19,f,184,n,2019_Dec_05_1501,ec_RRR,3.0.4,59.79616672271678,
Vadillo,"Para esta tarea, el personaje clave es Bergmite:","De modo que siempre que veas a Bergmite (su nombre o su imagen) en la pantalla, pulsa la barra espaciadora tan rápido como sea posible. Pulsa la barra espaciadora cuando veas una imagen de Bergmite o la palabra BERGMITE. 

Pulsa la barra espaciadora para comenzar la tarea.",target3,stimuli/t3.jpg,184,28,stimuli/filler52.jpg,filler,False,None,,,,,,,,,,,,,,0,0,0,0,,,,,0,1,1,2,0,27,27,27,,,,,,,,,,,,,,,,,,,,,,,,,,,,,,,,,,,,,,,,,,,,,,,,,,,,,CS1_USneg,None,1,,,,,,,,,,,,,,,,,,19,f,184,n,2019_Dec_05_1501,ec_RRR,3.0.4,59.79616672271678,
Vadillo,"Para esta tarea, el personaje clave es Bergmite:","De modo que siempre que veas a Bergmite (su nombre o su imagen) en la pantalla, pulsa la barra espaciadora tan rápido como sea posible. Pulsa la barra espaciadora cuando veas una imagen de Bergmite o la palabra BERGMITE. 

Pulsa la barra espaciadora para comenzar la tarea.",target3,stimuli/t3.jpg,184,29,stimuli/filler4.jpg,filler,False,None,,,,,,,,,,,,,,0,0,0,0,,,,,0,1,1,2,0,28,28,28,,,,,,,,,,,,,,,,,,,,,,,,,,,,,,,,,,,,,,,,,,,,,,,,,,,,,CS1_USneg,None,1,,,,,,,,,,,,,,,,,,19,f,184,n,2019_Dec_05_1501,ec_RRR,3.0.4,59.79616672271678,
Vadillo,"Para esta tarea, el personaje clave es Bergmite:","De modo que siempre que veas a Bergmite (su nombre o su imagen) en la pantalla, pulsa la barra espaciadora tan rápido como sea posible. Pulsa la barra espaciadora cuando veas una imagen de Bergmite o la palabra BERGMITE. 

Pulsa la barra espaciadora para comenzar la tarea.",target3,stimuli/t3.jpg,184,30,stimuli/blank.jpg,blank,False,None,,,,,,,,,,,,,,0,0,0,0,,,,,0,1,1,2,0,29,29,29,,,,,,,,,,,,,,,,,,,,,,,,,,,,,,,,,,,,,,,,,,,,,,,,,,,,,CS1_USneg,None,1,,,,,,,,,,,,,,,,,,19,f,184,n,2019_Dec_05_1501,ec_RRR,3.0.4,59.79616672271678,
Vadillo,"Para esta tarea, el personaje clave es Bergmite:","De modo que siempre que veas a Bergmite (su nombre o su imagen) en la pantalla, pulsa la barra espaciadora tan rápido como sea posible. Pulsa la barra espaciadora cuando veas una imagen de Bergmite o la palabra BERGMITE. 

Pulsa la barra espaciadora para comenzar la tarea.",target3,stimuli/t3.jpg,184,31,stimuli/cs1_neg16.jpg,CSUS,False,None,,,,,,,,,,,,,,0,0,0,0,,,,,0,1,1,2,0,30,30,30,,,,,,,,,,,,,,,,,,,,,,,,,,,,,,,,,,,,,,,,,,,,,,,,,,,,,CS1_USneg,None,1,,,,,,,,,,,,,,,,,,19,f,184,n,2019_Dec_05_1501,ec_RRR,3.0.4,59.79616672271678,
Vadillo,"Para esta tarea, el personaje clave es Bergmite:","De modo que siempre que veas a Bergmite (su nombre o su imagen) en la pantalla, pulsa la barra espaciadora tan rápido como sea posible. Pulsa la barra espaciadora cuando veas una imagen de Bergmite o la palabra BERGMITE. 

Pulsa la barra espaciadora para comenzar la tarea.",target3,stimuli/t3.jpg,184,32,stimuli/blank.jpg,blank,False,None,,,,,,,,,,,,,,0,0,0,0,,,,,0,1,1,2,0,31,31,31,,,,,,,,,,,,,,,,,,,,,,,,,,,,,,,,,,,,,,,,,,,,,,,,,,,,,CS1_USneg,None,1,,,,,,,,,,,,,,,,,,19,f,184,n,2019_Dec_05_1501,ec_RRR,3.0.4,59.79616672271678,
Vadillo,"Para esta tarea, el personaje clave es Bergmite:","De modo que siempre que veas a Bergmite (su nombre o su imagen) en la pantalla, pulsa la barra espaciadora tan rápido como sea posible. Pulsa la barra espaciadora cuando veas una imagen de Bergmite o la palabra BERGMITE. 

Pulsa la barra espaciadora para comenzar la tarea.",target3,stimuli/t3.jpg,184,33,stimuli/target3_6.jpg,target,True,space,,,,,,,,,,,,,,0,0,0,0,,,,,0,1,1,2,0,32,32,32,,,,,,,,,,,,,,,,,,,,,,,,,,,,,,,,,,,,,,,,,,,,,,,,,,,,,CS1_USneg,space,1,0.511150723323226,,,,,,,,,,,,,,,,,19,f,184,n,2019_Dec_05_1501,ec_RRR,3.0.4,59.79616672271678,
Vadillo,"Para esta tarea, el personaje clave es Bergmite:","De modo que siempre que veas a Bergmite (su nombre o su imagen) en la pantalla, pulsa la barra espaciadora tan rápido como sea posible. Pulsa la barra espaciadora cuando veas una imagen de Bergmite o la palabra BERGMITE. 

Pulsa la barra espaciadora para comenzar la tarea.",target3,stimuli/t3.jpg,184,34,stimuli/filler14.jpg,filler,False,None,,,,,,,,,,,,,,0,0,0,0,,,,,0,1,1,2,0,33,33,33,,,,,,,,,,,,,,,,,,,,,,,,,,,,,,,,,,,,,,,,,,,,,,,,,,,,,CS1_USneg,None,1,,,,,,,,,,,,,,,,,,19,f,184,n,2019_Dec_05_1501,ec_RRR,3.0.4,59.79616672271678,
Vadillo,"Para esta tarea, el personaje clave es Bergmite:","De modo que siempre que veas a Bergmite (su nombre o su imagen) en la pantalla, pulsa la barra espaciadora tan rápido como sea posible. Pulsa la barra espaciadora cuando veas una imagen de Bergmite o la palabra BERGMITE. 

Pulsa la barra espaciadora para comenzar la tarea.",target3,stimuli/t3.jpg,184,35,stimuli/filler13.jpg,filler,False,None,,,,,,,,,,,,,,0,0,0,0,,,,,0,1,1,2,0,34,34,34,,,,,,,,,,,,,,,,,,,,,,,,,,,,,,,,,,,,,,,,,,,,,,,,,,,,,CS1_USneg,None,1,,,,,,,,,,,,,,,,,,19,f,184,n,2019_Dec_05_1501,ec_RRR,3.0.4,59.79616672271678,
Vadillo,"Para esta tarea, el personaje clave es Bergmite:","De modo que siempre que veas a Bergmite (su nombre o su imagen) en la pantalla, pulsa la barra espaciadora tan rápido como sea posible. Pulsa la barra espaciadora cuando veas una imagen de Bergmite o la palabra BERGMITE. 

Pulsa la barra espaciadora para comenzar la tarea.",target3,stimuli/t3.jpg,184,36,stimuli/filler15.jpg,filler,False,None,,,,,,,,,,,,,,0,0,0,0,,,,,0,1,1,2,0,35,35,35,,,,,,,,,,,,,,,,,,,,,,,,,,,,,,,,,,,,,,,,,,,,,,,,,,,,,CS1_USneg,None,1,,,,,,,,,,,,,,,,,,19,f,184,n,2019_Dec_05_1501,ec_RRR,3.0.4,59.79616672271678,
Vadillo,"Para esta tarea, el personaje clave es Bergmite:","De modo que siempre que veas a Bergmite (su nombre o su imagen) en la pantalla, pulsa la barra espaciadora tan rápido como sea posible. Pulsa la barra espaciadora cuando veas una imagen de Bergmite o la palabra BERGMITE. 

Pulsa la barra espaciadora para comenzar la tarea.",target3,stimuli/t3.jpg,184,37,stimuli/filler25.jpg,filler,False,None,,,,,,,,,,,,,,0,0,0,0,,,,,0,1,1,2,0,36,36,36,,,,,,,,,,,,,,,,,,,,,,,,,,,,,,,,,,,,,,,,,,,,,,,,,,,,,CS1_USneg,None,1,,,,,,,,,,,,,,,,,,19,f,184,n,2019_Dec_05_1501,ec_RRR,3.0.4,59.79616672271678,
Vadillo,"Para esta tarea, el personaje clave es Bergmite:","De modo que siempre que veas a Bergmite (su nombre o su imagen) en la pantalla, pulsa la barra espaciadora tan rápido como sea posible. Pulsa la barra espaciadora cuando veas una imagen de Bergmite o la palabra BERGMITE. 

Pulsa la barra espaciadora para comenzar la tarea.",target3,stimuli/t3.jpg,184,38,stimuli/filler23.jpg,filler,False,None,,,,,,,,,,,,,,0,0,0,0,,,,,0,1,1,2,0,37,37,37,,,,,,,,,,,,,,,,,,,,,,,,,,,,,,,,,,,,,,,,,,,,,,,,,,,,,CS1_USneg,None,1,,,,,,,,,,,,,,,,,,19,f,184,n,2019_Dec_05_1501,ec_RRR,3.0.4,59.79616672271678,
Vadillo,"Para esta tarea, el personaje clave es Bergmite:","De modo que siempre que veas a Bergmite (su nombre o su imagen) en la pantalla, pulsa la barra espaciadora tan rápido como sea posible. Pulsa la barra espaciadora cuando veas una imagen de Bergmite o la palabra BERGMITE. 

Pulsa la barra espaciadora para comenzar la tarea.",target3,stimuli/t3.jpg,184,39,stimuli/filler3.jpg,filler,False,None,,,,,,,,,,,,,,0,0,0,0,,,,,0,1,1,2,0,38,38,38,,,,,,,,,,,,,,,,,,,,,,,,,,,,,,,,,,,,,,,,,,,,,,,,,,,,,CS1_USneg,None,1,,,,,,,,,,,,,,,,,,19,f,184,n,2019_Dec_05_1501,ec_RRR,3.0.4,59.79616672271678,
Vadillo,"Para esta tarea, el personaje clave es Bergmite:","De modo que siempre que veas a Bergmite (su nombre o su imagen) en la pantalla, pulsa la barra espaciadora tan rápido como sea posible. Pulsa la barra espaciadora cuando veas una imagen de Bergmite o la palabra BERGMITE. 

Pulsa la barra espaciadora para comenzar la tarea.",target3,stimuli/t3.jpg,184,40,stimuli/blank.jpg,blank,False,None,,,,,,,,,,,,,,0,0,0,0,,,,,0,1,1,2,0,39,39,39,,,,,,,,,,,,,,,,,,,,,,,,,,,,,,,,,,,,,,,,,,,,,,,,,,,,,CS1_USneg,None,1,,,,,,,,,,,,,,,,,,19,f,184,n,2019_Dec_05_1501,ec_RRR,3.0.4,59.79616672271678,
Vadillo,"Para esta tarea, el personaje clave es Bergmite:","De modo que siempre que veas a Bergmite (su nombre o su imagen) en la pantalla, pulsa la barra espaciadora tan rápido como sea posible. Pulsa la barra espaciadora cuando veas una imagen de Bergmite o la palabra BERGMITE. 

Pulsa la barra espaciadora para comenzar la tarea.",target3,stimuli/t3.jpg,184,41,stimuli/cs2_pos6.jpg,CSUS,False,None,,,,,,,,,,,,,,0,0,0,0,,,,,0,1,1,2,0,40,40,40,,,,,,,,,,,,,,,,,,,,,,,,,,,,,,,,,,,,,,,,,,,,,,,,,,,,,CS1_USneg,None,1,,,,,,,,,,,,,,,,,,19,f,184,n,2019_Dec_05_1501,ec_RRR,3.0.4,59.79616672271678,
Vadillo,"Para esta tarea, el personaje clave es Bergmite:","De modo que siempre que veas a Bergmite (su nombre o su imagen) en la pantalla, pulsa la barra espaciadora tan rápido como sea posible. Pulsa la barra espaciadora cuando veas una imagen de Bergmite o la palabra BERGMITE. 

Pulsa la barra espaciadora para comenzar la tarea.",target3,stimuli/t3.jpg,184,42,stimuli/blank.jpg,blank,False,None,,,,,,,,,,,,,,0,0,0,0,,,,,0,1,1,2,0,41,41,41,,,,,,,,,,,,,,,,,,,,,,,,,,,,,,,,,,,,,,,,,,,,,,,,,,,,,CS1_USneg,None,1,,,,,,,,,,,,,,,,,,19,f,184,n,2019_Dec_05_1501,ec_RRR,3.0.4,59.79616672271678,
Vadillo,"Para esta tarea, el personaje clave es Bergmite:","De modo que siempre que veas a Bergmite (su nombre o su imagen) en la pantalla, pulsa la barra espaciadora tan rápido como sea posible. Pulsa la barra espaciadora cuando veas una imagen de Bergmite o la palabra BERGMITE. 

Pulsa la barra espaciadora para comenzar la tarea.",target3,stimuli/t3.jpg,184,43,stimuli/target3_2.jpg,target,True,space,,,,,,,,,,,,,,0,0,0,0,,,,,0,1,1,2,0,42,42,42,,,,,,,,,,,,,,,,,,,,,,,,,,,,,,,,,,,,,,,,,,,,,,,,,,,,,CS1_USneg,space,1,0.5276547912508249,,,,,,,,,,,,,,,,,19,f,184,n,2019_Dec_05_1501,ec_RRR,3.0.4,59.79616672271678,
Vadillo,"Para esta tarea, el personaje clave es Bergmite:","De modo que siempre que veas a Bergmite (su nombre o su imagen) en la pantalla, pulsa la barra espaciadora tan rápido como sea posible. Pulsa la barra espaciadora cuando veas una imagen de Bergmite o la palabra BERGMITE. 

Pulsa la barra espaciadora para comenzar la tarea.",target3,stimuli/t3.jpg,184,44,stimuli/filler2.jpg,filler,False,None,,,,,,,,,,,,,,0,0,0,0,,,,,0,1,1,2,0,43,43,43,,,,,,,,,,,,,,,,,,,,,,,,,,,,,,,,,,,,,,,,,,,,,,,,,,,,,CS1_USneg,None,1,,,,,,,,,,,,,,,,,,19,f,184,n,2019_Dec_05_1501,ec_RRR,3.0.4,59.79616672271678,
Vadillo,"Para esta tarea, el personaje clave es Bergmite:","De modo que siempre que veas a Bergmite (su nombre o su imagen) en la pantalla, pulsa la barra espaciadora tan rápido como sea posible. Pulsa la barra espaciadora cuando veas una imagen de Bergmite o la palabra BERGMITE. 

Pulsa la barra espaciadora para comenzar la tarea.",target3,stimuli/t3.jpg,184,45,stimuli/filler6.jpg,filler,False,None,,,,,,,,,,,,,,0,0,0,0,,,,,0,1,1,2,0,44,44,44,,,,,,,,,,,,,,,,,,,,,,,,,,,,,,,,,,,,,,,,,,,,,,,,,,,,,CS1_USneg,None,1,,,,,,,,,,,,,,,,,,19,f,184,n,2019_Dec_05_1501,ec_RRR,3.0.4,59.79616672271678,
Vadillo,"Para esta tarea, el personaje clave es Bergmite:","De modo que siempre que veas a Bergmite (su nombre o su imagen) en la pantalla, pulsa la barra espaciadora tan rápido como sea posible. Pulsa la barra espaciadora cuando veas una imagen de Bergmite o la palabra BERGMITE. 

Pulsa la barra espaciadora para comenzar la tarea.",target3,stimuli/t3.jpg,184,46,stimuli/filler43.jpg,filler,False,None,,,,,,,,,,,,,,0,0,0,0,,,,,0,1,1,2,0,45,45,45,,,,,,,,,,,,,,,,,,,,,,,,,,,,,,,,,,,,,,,,,,,,,,,,,,,,,CS1_USneg,None,1,,,,,,,,,,,,,,,,,,19,f,184,n,2019_Dec_05_1501,ec_RRR,3.0.4,59.79616672271678,
Vadillo,"Para esta tarea, el personaje clave es Bergmite:","De modo que siempre que veas a Bergmite (su nombre o su imagen) en la pantalla, pulsa la barra espaciadora tan rápido como sea posible. Pulsa la barra espaciadora cuando veas una imagen de Bergmite o la palabra BERGMITE. 

Pulsa la barra espaciadora para comenzar la tarea.",target3,stimuli/t3.jpg,184,47,stimuli/filler11.jpg,filler,False,None,,,,,,,,,,,,,,0,0,0,0,,,,,0,1,1,2,0,46,46,46,,,,,,,,,,,,,,,,,,,,,,,,,,,,,,,,,,,,,,,,,,,,,,,,,,,,,CS1_USneg,None,1,,,,,,,,,,,,,,,,,,19,f,184,n,2019_Dec_05_1501,ec_RRR,3.0.4,59.79616672271678,
Vadillo,"Para esta tarea, el personaje clave es Bergmite:","De modo que siempre que veas a Bergmite (su nombre o su imagen) en la pantalla, pulsa la barra espaciadora tan rápido como sea posible. Pulsa la barra espaciadora cuando veas una imagen de Bergmite o la palabra BERGMITE. 

Pulsa la barra espaciadora para comenzar la tarea.",target3,stimuli/t3.jpg,184,48,stimuli/filler45.jpg,filler,False,None,,,,,,,,,,,,,,0,0,0,0,,,,,0,1,1,2,0,47,47,47,,,,,,,,,,,,,,,,,,,,,,,,,,,,,,,,,,,,,,,,,,,,,,,,,,,,,CS1_USneg,None,1,,,,,,,,,,,,,,,,,,19,f,184,n,2019_Dec_05_1501,ec_RRR,3.0.4,59.79616672271678,
Vadillo,"Para esta tarea, el personaje clave es Bergmite:","De modo que siempre que veas a Bergmite (su nombre o su imagen) en la pantalla, pulsa la barra espaciadora tan rápido como sea posible. Pulsa la barra espaciadora cuando veas una imagen de Bergmite o la palabra BERGMITE. 

Pulsa la barra espaciadora para comenzar la tarea.",target3,stimuli/t3.jpg,184,49,stimuli/filler10.jpg,filler,False,None,,,,,,,,,,,,,,0,0,0,0,,,,,0,1,1,2,0,48,48,48,,,,,,,,,,,,,,,,,,,,,,,,,,,,,,,,,,,,,,,,,,,,,,,,,,,,,CS1_USneg,None,1,,,,,,,,,,,,,,,,,,19,f,184,n,2019_Dec_05_1501,ec_RRR,3.0.4,59.79616672271678,
Vadillo,"Para esta tarea, el personaje clave es Bergmite:","De modo que siempre que veas a Bergmite (su nombre o su imagen) en la pantalla, pulsa la barra espaciadora tan rápido como sea posible. Pulsa la barra espaciadora cuando veas una imagen de Bergmite o la palabra BERGMITE. 

Pulsa la barra espaciadora para comenzar la tarea.",target3,stimuli/t3.jpg,184,50,stimuli/blank.jpg,blank,False,None,,,,,,,,,,,,,,0,0,0,0,,,,,0,1,1,2,0,49,49,49,,,,,,,,,,,,,,,,,,,,,,,,,,,,,,,,,,,,,,,,,,,,,,,,,,,,,CS1_USneg,None,1,,,,,,,,,,,,,,,,,,19,f,184,n,2019_Dec_05_1501,ec_RRR,3.0.4,59.79616672271678,
Vadillo,"Para esta tarea, el personaje clave es Bergmite:","De modo que siempre que veas a Bergmite (su nombre o su imagen) en la pantalla, pulsa la barra espaciadora tan rápido como sea posible. Pulsa la barra espaciadora cuando veas una imagen de Bergmite o la palabra BERGMITE. 

Pulsa la barra espaciadora para comenzar la tarea.",target3,stimuli/t3.jpg,184,51,stimuli/cs1_neg3.jpg,CSUS,False,None,,,,,,,,,,,,,,0,0,0,0,,,,,0,1,1,2,0,50,50,50,,,,,,,,,,,,,,,,,,,,,,,,,,,,,,,,,,,,,,,,,,,,,,,,,,,,,CS1_USneg,None,1,,,,,,,,,,,,,,,,,,19,f,184,n,2019_Dec_05_1501,ec_RRR,3.0.4,59.79616672271678,
Vadillo,"Para esta tarea, el personaje clave es Bergmite:","De modo que siempre que veas a Bergmite (su nombre o su imagen) en la pantalla, pulsa la barra espaciadora tan rápido como sea posible. Pulsa la barra espaciadora cuando veas una imagen de Bergmite o la palabra BERGMITE. 

Pulsa la barra espaciadora para comenzar la tarea.",target3,stimuli/t3.jpg,184,52,stimuli/blank.jpg,blank,False,None,,,,,,,,,,,,,,0,0,0,0,,,,,0,1,1,2,0,51,51,51,,,,,,,,,,,,,,,,,,,,,,,,,,,,,,,,,,,,,,,,,,,,,,,,,,,,,CS1_USneg,None,1,,,,,,,,,,,,,,,,,,19,f,184,n,2019_Dec_05_1501,ec_RRR,3.0.4,59.79616672271678,
Vadillo,"Para esta tarea, el personaje clave es Bergmite:","De modo que siempre que veas a Bergmite (su nombre o su imagen) en la pantalla, pulsa la barra espaciadora tan rápido como sea posible. Pulsa la barra espaciadora cuando veas una imagen de Bergmite o la palabra BERGMITE. 

Pulsa la barra espaciadora para comenzar la tarea.",target3,stimuli/t3.jpg,184,53,stimuli/filler37.jpg,filler,False,None,,,,,,,,,,,,,,0,0,0,0,,,,,0,1,1,2,0,52,52,52,,,,,,,,,,,,,,,,,,,,,,,,,,,,,,,,,,,,,,,,,,,,,,,,,,,,,CS1_USneg,None,1,,,,,,,,,,,,,,,,,,19,f,184,n,2019_Dec_05_1501,ec_RRR,3.0.4,59.79616672271678,
Vadillo,"Para esta tarea, el personaje clave es Bergmite:","De modo que siempre que veas a Bergmite (su nombre o su imagen) en la pantalla, pulsa la barra espaciadora tan rápido como sea posible. Pulsa la barra espaciadora cuando veas una imagen de Bergmite o la palabra BERGMITE. 

Pulsa la barra espaciadora para comenzar la tarea.",target3,stimuli/t3.jpg,184,54,stimuli/filler47.jpg,filler,False,None,,,,,,,,,,,,,,0,0,0,0,,,,,0,1,1,2,0,53,53,53,,,,,,,,,,,,,,,,,,,,,,,,,,,,,,,,,,,,,,,,,,,,,,,,,,,,,CS1_USneg,None,1,,,,,,,,,,,,,,,,,,19,f,184,n,2019_Dec_05_1501,ec_RRR,3.0.4,59.79616672271678,
Vadillo,"Para esta tarea, el personaje clave es Bergmite:","De modo que siempre que veas a Bergmite (su nombre o su imagen) en la pantalla, pulsa la barra espaciadora tan rápido como sea posible. Pulsa la barra espaciadora cuando veas una imagen de Bergmite o la palabra BERGMITE. 

Pulsa la barra espaciadora para comenzar la tarea.",target3,stimuli/t3.jpg,184,55,stimuli/filler22.jpg,filler,False,None,,,,,,,,,,,,,,0,0,0,0,,,,,0,1,1,2,0,54,54,54,,,,,,,,,,,,,,,,,,,,,,,,,,,,,,,,,,,,,,,,,,,,,,,,,,,,,CS1_USneg,None,1,,,,,,,,,,,,,,,,,,19,f,184,n,2019_Dec_05_1501,ec_RRR,3.0.4,59.79616672271678,
Vadillo,"Para esta tarea, el personaje clave es Bergmite:","De modo que siempre que veas a Bergmite (su nombre o su imagen) en la pantalla, pulsa la barra espaciadora tan rápido como sea posible. Pulsa la barra espaciadora cuando veas una imagen de Bergmite o la palabra BERGMITE. 

Pulsa la barra espaciadora para comenzar la tarea.",target3,stimuli/t3.jpg,184,56,stimuli/filler49.jpg,filler,False,None,,,,,,,,,,,,,,0,0,0,0,,,,,0,1,1,2,0,55,55,55,,,,,,,,,,,,,,,,,,,,,,,,,,,,,,,,,,,,,,,,,,,,,,,,,,,,,CS1_USneg,None,1,,,,,,,,,,,,,,,,,,19,f,184,n,2019_Dec_05_1501,ec_RRR,3.0.4,59.79616672271678,
Vadillo,"Para esta tarea, el personaje clave es Bergmite:","De modo que siempre que veas a Bergmite (su nombre o su imagen) en la pantalla, pulsa la barra espaciadora tan rápido como sea posible. Pulsa la barra espaciadora cuando veas una imagen de Bergmite o la palabra BERGMITE. 

Pulsa la barra espaciadora para comenzar la tarea.",target3,stimuli/t3.jpg,184,57,stimuli/filler40.jpg,filler,False,None,,,,,,,,,,,,,,0,0,0,0,,,,,0,1,1,2,0,56,56,56,,,,,,,,,,,,,,,,,,,,,,,,,,,,,,,,,,,,,,,,,,,,,,,,,,,,,CS1_USneg,None,1,,,,,,,,,,,,,,,,,,19,f,184,n,2019_Dec_05_1501,ec_RRR,3.0.4,59.79616672271678,
Vadillo,"Para esta tarea, el personaje clave es Bergmite:","De modo que siempre que veas a Bergmite (su nombre o su imagen) en la pantalla, pulsa la barra espaciadora tan rápido como sea posible. Pulsa la barra espaciadora cuando veas una imagen de Bergmite o la palabra BERGMITE. 

Pulsa la barra espaciadora para comenzar la tarea.",target3,stimuli/t3.jpg,184,58,stimuli/filler44.jpg,filler,False,None,,,,,,,,,,,,,,0,0,0,0,,,,,0,1,1,2,0,57,57,57,,,,,,,,,,,,,,,,,,,,,,,,,,,,,,,,,,,,,,,,,,,,,,,,,,,,,CS1_USneg,None,1,,,,,,,,,,,,,,,,,,19,f,184,n,2019_Dec_05_1501,ec_RRR,3.0.4,59.79616672271678,
Vadillo,"Para esta tarea, el personaje clave es Bergmite:","De modo que siempre que veas a Bergmite (su nombre o su imagen) en la pantalla, pulsa la barra espaciadora tan rápido como sea posible. Pulsa la barra espaciadora cuando veas una imagen de Bergmite o la palabra BERGMITE. 

Pulsa la barra espaciadora para comenzar la tarea.",target3,stimuli/t3.jpg,184,59,stimuli/filler41.jpg,filler,False,None,,,,,,,,,,,,,,0,0,0,0,,,,,0,1,1,2,0,58,58,58,,,,,,,,,,,,,,,,,,,,,,,,,,,,,,,,,,,,,,,,,,,,,,,,,,,,,CS1_USneg,None,1,,,,,,,,,,,,,,,,,,19,f,184,n,2019_Dec_05_1501,ec_RRR,3.0.4,59.79616672271678,
Vadillo,"Para esta tarea, el personaje clave es Bergmite:","De modo que siempre que veas a Bergmite (su nombre o su imagen) en la pantalla, pulsa la barra espaciadora tan rápido como sea posible. Pulsa la barra espaciadora cuando veas una imagen de Bergmite o la palabra BERGMITE. 

Pulsa la barra espaciadora para comenzar la tarea.",target3,stimuli/t3.jpg,184,60,stimuli/blank.jpg,blank,False,None,,,,,,,,,,,,,,0,0,0,0,,,,,0,1,1,2,0,59,59,59,,,,,,,,,,,,,,,,,,,,,,,,,,,,,,,,,,,,,,,,,,,,,,,,,,,,,CS1_USneg,None,1,,,,,,,,,,,,,,,,,,19,f,184,n,2019_Dec_05_1501,ec_RRR,3.0.4,59.79616672271678,
Vadillo,"Para esta tarea, el personaje clave es Bergmite:","De modo que siempre que veas a Bergmite (su nombre o su imagen) en la pantalla, pulsa la barra espaciadora tan rápido como sea posible. Pulsa la barra espaciadora cuando veas una imagen de Bergmite o la palabra BERGMITE. 

Pulsa la barra espaciadora para comenzar la tarea.",target3,stimuli/t3.jpg,184,61,stimuli/cs2_pos20.jpg,CSUS,False,None,,,,,,,,,,,,,,0,0,0,0,,,,,0,1,1,2,0,60,60,60,,,,,,,,,,,,,,,,,,,,,,,,,,,,,,,,,,,,,,,,,,,,,,,,,,,,,CS1_USneg,None,1,,,,,,,,,,,,,,,,,,19,f,184,n,2019_Dec_05_1501,ec_RRR,3.0.4,59.79616672271678,
Vadillo,"Para esta tarea, el personaje clave es Bergmite:","De modo que siempre que veas a Bergmite (su nombre o su imagen) en la pantalla, pulsa la barra espaciadora tan rápido como sea posible. Pulsa la barra espaciadora cuando veas una imagen de Bergmite o la palabra BERGMITE. 

Pulsa la barra espaciadora para comenzar la tarea.",target3,stimuli/t3.jpg,184,62,stimuli/blank.jpg,blank,False,None,,,,,,,,,,,,,,0,0,0,0,,,,,0,1,1,2,0,61,61,61,,,,,,,,,,,,,,,,,,,,,,,,,,,,,,,,,,,,,,,,,,,,,,,,,,,,,CS1_USneg,None,1,,,,,,,,,,,,,,,,,,19,f,184,n,2019_Dec_05_1501,ec_RRR,3.0.4,59.79616672271678,
Vadillo,"Para esta tarea, el personaje clave es Bergmite:","De modo que siempre que veas a Bergmite (su nombre o su imagen) en la pantalla, pulsa la barra espaciadora tan rápido como sea posible. Pulsa la barra espaciadora cuando veas una imagen de Bergmite o la palabra BERGMITE. 

Pulsa la barra espaciadora para comenzar la tarea.",target3,stimuli/t3.jpg,184,63,stimuli/target3_4.jpg,target,True,space,,,,,,,,,,,,,,0,0,0,0,,,,,0,1,1,2,0,62,62,62,,,,,,,,,,,,,,,,,,,,,,,,,,,,,,,,,,,,,,,,,,,,,,,,,,,,,CS1_USneg,space,1,0.8795678811147809,,,,,,,,,,,,,,,,,19,f,184,n,2019_Dec_05_1501,ec_RRR,3.0.4,59.79616672271678,
Vadillo,"Para esta tarea, el personaje clave es Bergmite:","De modo que siempre que veas a Bergmite (su nombre o su imagen) en la pantalla, pulsa la barra espaciadora tan rápido como sea posible. Pulsa la barra espaciadora cuando veas una imagen de Bergmite o la palabra BERGMITE. 

Pulsa la barra espaciadora para comenzar la tarea.",target3,stimuli/t3.jpg,184,64,stimuli/filler39.jpg,filler,False,None,,,,,,,,,,,,,,0,0,0,0,,,,,0,1,1,2,0,63,63,63,,,,,,,,,,,,,,,,,,,,,,,,,,,,,,,,,,,,,,,,,,,,,,,,,,,,,CS1_USneg,None,1,,,,,,,,,,,,,,,,,,19,f,184,n,2019_Dec_05_1501,ec_RRR,3.0.4,59.79616672271678,
Vadillo,"Para esta tarea, el personaje clave es Bergmite:","De modo que siempre que veas a Bergmite (su nombre o su imagen) en la pantalla, pulsa la barra espaciadora tan rápido como sea posible. Pulsa la barra espaciadora cuando veas una imagen de Bergmite o la palabra BERGMITE. 

Pulsa la barra espaciadora para comenzar la tarea.",target3,stimuli/t3.jpg,184,65,stimuli/filler8.jpg,filler,False,None,,,,,,,,,,,,,,0,0,0,0,,,,,0,1,1,2,0,64,64,64,,,,,,,,,,,,,,,,,,,,,,,,,,,,,,,,,,,,,,,,,,,,,,,,,,,,,CS1_USneg,None,1,,,,,,,,,,,,,,,,,,19,f,184,n,2019_Dec_05_1501,ec_RRR,3.0.4,59.79616672271678,
Vadillo,"Para esta tarea, el personaje clave es Bergmite:","De modo que siempre que veas a Bergmite (su nombre o su imagen) en la pantalla, pulsa la barra espaciadora tan rápido como sea posible. Pulsa la barra espaciadora cuando veas una imagen de Bergmite o la palabra BERGMITE. 

Pulsa la barra espaciadora para comenzar la tarea.",target3,stimuli/t3.jpg,184,66,stimuli/filler51.jpg,filler,False,None,,,,,,,,,,,,,,0,0,0,0,,,,,0,1,1,2,0,65,65,65,,,,,,,,,,,,,,,,,,,,,,,,,,,,,,,,,,,,,,,,,,,,,,,,,,,,,CS1_USneg,None,1,,,,,,,,,,,,,,,,,,19,f,184,n,2019_Dec_05_1501,ec_RRR,3.0.4,59.79616672271678,
Vadillo,"Para esta tarea, el personaje clave es Bergmite:","De modo que siempre que veas a Bergmite (su nombre o su imagen) en la pantalla, pulsa la barra espaciadora tan rápido como sea posible. Pulsa la barra espaciadora cuando veas una imagen de Bergmite o la palabra BERGMITE. 

Pulsa la barra espaciadora para comenzar la tarea.",target3,stimuli/t3.jpg,184,67,stimuli/filler32.jpg,filler,False,None,,,,,,,,,,,,,,0,0,0,0,,,,,0,1,1,2,0,66,66,66,,,,,,,,,,,,,,,,,,,,,,,,,,,,,,,,,,,,,,,,,,,,,,,,,,,,,CS1_USneg,None,1,,,,,,,,,,,,,,,,,,19,f,184,n,2019_Dec_05_1501,ec_RRR,3.0.4,59.79616672271678,
Vadillo,"Para esta tarea, el personaje clave es Bergmite:","De modo que siempre que veas a Bergmite (su nombre o su imagen) en la pantalla, pulsa la barra espaciadora tan rápido como sea posible. Pulsa la barra espaciadora cuando veas una imagen de Bergmite o la palabra BERGMITE. 

Pulsa la barra espaciadora para comenzar la tarea.",target3,stimuli/t3.jpg,184,68,stimuli/filler21.jpg,filler,False,None,,,,,,,,,,,,,,0,0,0,0,,,,,0,1,1,2,0,67,67,67,,,,,,,,,,,,,,,,,,,,,,,,,,,,,,,,,,,,,,,,,,,,,,,,,,,,,CS1_USneg,None,1,,,,,,,,,,,,,,,,,,19,f,184,n,2019_Dec_05_1501,ec_RRR,3.0.4,59.79616672271678,
Vadillo,"Para esta tarea, el personaje clave es Bergmite:","De modo que siempre que veas a Bergmite (su nombre o su imagen) en la pantalla, pulsa la barra espaciadora tan rápido como sea posible. Pulsa la barra espaciadora cuando veas una imagen de Bergmite o la palabra BERGMITE. 

Pulsa la barra espaciadora para comenzar la tarea.",target3,stimuli/t3.jpg,184,69,stimuli/filler38.jpg,filler,False,None,,,,,,,,,,,,,,0,0,0,0,,,,,0,1,1,2,0,68,68,68,,,,,,,,,,,,,,,,,,,,,,,,,,,,,,,,,,,,,,,,,,,,,,,,,,,,,CS1_USneg,None,1,,,,,,,,,,,,,,,,,,19,f,184,n,2019_Dec_05_1501,ec_RRR,3.0.4,59.79616672271678,
Vadillo,"Para esta tarea, el personaje clave es Bergmite:","De modo que siempre que veas a Bergmite (su nombre o su imagen) en la pantalla, pulsa la barra espaciadora tan rápido como sea posible. Pulsa la barra espaciadora cuando veas una imagen de Bergmite o la palabra BERGMITE. 

Pulsa la barra espaciadora para comenzar la tarea.",target3,stimuli/t3.jpg,184,70,stimuli/blank.jpg,blank,False,None,,,,,,,,,,,,,,0,0,0,0,,,,,0,1,1,2,0,69,69,69,,,,,,,,,,,,,,,,,,,,,,,,,,,,,,,,,,,,,,,,,,,,,,,,,,,,,CS1_USneg,None,1,,,,,,,,,,,,,,,,,,19,f,184,n,2019_Dec_05_1501,ec_RRR,3.0.4,59.79616672271678,
Vadillo,"Para esta tarea, el personaje clave es Bergmite:","De modo que siempre que veas a Bergmite (su nombre o su imagen) en la pantalla, pulsa la barra espaciadora tan rápido como sea posible. Pulsa la barra espaciadora cuando veas una imagen de Bergmite o la palabra BERGMITE. 

Pulsa la barra espaciadora para comenzar la tarea.",target3,stimuli/t3.jpg,184,71,stimuli/cs1_neg11.jpg,CSUS,False,None,,,,,,,,,,,,,,0,0,0,0,,,,,0,1,1,2,0,70,70,70,,,,,,,,,,,,,,,,,,,,,,,,,,,,,,,,,,,,,,,,,,,,,,,,,,,,,CS1_USneg,None,1,,,,,,,,,,,,,,,,,,19,f,184,n,2019_Dec_05_1501,ec_RRR,3.0.4,59.79616672271678,
Vadillo,"Para esta tarea, el personaje clave es Bergmite:","De modo que siempre que veas a Bergmite (su nombre o su imagen) en la pantalla, pulsa la barra espaciadora tan rápido como sea posible. Pulsa la barra espaciadora cuando veas una imagen de Bergmite o la palabra BERGMITE. 

Pulsa la barra espaciadora para comenzar la tarea.",target3,stimuli/t3.jpg,184,72,stimuli/blank.jpg,blank,False,None,,,,,,,,,,,,,,0,0,0,0,,,,,0,1,1,2,0,71,71,71,,,,,,,,,,,,,,,,,,,,,,,,,,,,,,,,,,,,,,,,,,,,,,,,,,,,,CS1_USneg,None,1,,,,,,,,,,,,,,,,,,19,f,184,n,2019_Dec_05_1501,ec_RRR,3.0.4,59.79616672271678,
Vadillo,"Para esta tarea, el personaje clave es Bergmite:","De modo que siempre que veas a Bergmite (su nombre o su imagen) en la pantalla, pulsa la barra espaciadora tan rápido como sea posible. Pulsa la barra espaciadora cuando veas una imagen de Bergmite o la palabra BERGMITE. 

Pulsa la barra espaciadora para comenzar la tarea.",target3,stimuli/t3.jpg,184,73,stimuli/filler27.jpg,filler,False,None,,,,,,,,,,,,,,0,0,0,0,,,,,0,1,1,2,0,72,72,72,,,,,,,,,,,,,,,,,,,,,,,,,,,,,,,,,,,,,,,,,,,,,,,,,,,,,CS1_USneg,None,1,,,,,,,,,,,,,,,,,,19,f,184,n,2019_Dec_05_1501,ec_RRR,3.0.4,59.79616672271678,
Vadillo,"Para esta tarea, el personaje clave es Bergmite:","De modo que siempre que veas a Bergmite (su nombre o su imagen) en la pantalla, pulsa la barra espaciadora tan rápido como sea posible. Pulsa la barra espaciadora cuando veas una imagen de Bergmite o la palabra BERGMITE. 

Pulsa la barra espaciadora para comenzar la tarea.",target3,stimuli/t3.jpg,184,74,stimuli/target3_9.jpg,target,True,space,,,,,,,,,,,,,,0,0,0,0,,,,,0,1,1,2,0,73,73,73,,,,,,,,,,,,,,,,,,,,,,,,,,,,,,,,,,,,,,,,,,,,,,,,,,,,,CS1_USneg,space,1,0.5834148279391229,,,,,,,,,,,,,,,,,19,f,184,n,2019_Dec_05_1501,ec_RRR,3.0.4,59.79616672271678,
Vadillo,"Para esta tarea, el personaje clave es Bergmite:","De modo que siempre que veas a Bergmite (su nombre o su imagen) en la pantalla, pulsa la barra espaciadora tan rápido como sea posible. Pulsa la barra espaciadora cuando veas una imagen de Bergmite o la palabra BERGMITE. 

Pulsa la barra espaciadora para comenzar la tarea.",target3,stimuli/t3.jpg,184,75,stimuli/target3_8.jpg,target,True,space,,,,,,,,,,,,,,0,0,0,0,,,,,0,1,1,2,0,74,74,74,,,,,,,,,,,,,,,,,,,,,,,,,,,,,,,,,,,,,,,,,,,,,,,,,,,,,CS1_USneg,space,1,0.4764238391071558,,,,,,,,,,,,,,,,,19,f,184,n,2019_Dec_05_1501,ec_RRR,3.0.4,59.79616672271678,
Vadillo,"Para esta tarea, el personaje clave es Bergmite:","De modo que siempre que veas a Bergmite (su nombre o su imagen) en la pantalla, pulsa la barra espaciadora tan rápido como sea posible. Pulsa la barra espaciadora cuando veas una imagen de Bergmite o la palabra BERGMITE. 

Pulsa la barra espaciadora para comenzar la tarea.",target3,stimuli/t3.jpg,184,76,stimuli/filler5.jpg,filler,False,None,,,,,,,,,,,,,,0,0,0,0,,,,,0,1,1,2,0,75,75,75,,,,,,,,,,,,,,,,,,,,,,,,,,,,,,,,,,,,,,,,,,,,,,,,,,,,,CS1_USneg,None,1,,,,,,,,,,,,,,,,,,19,f,184,n,2019_Dec_05_1501,ec_RRR,3.0.4,59.79616672271678,
Vadillo,"Para esta tarea, el personaje clave es Bergmite:","De modo que siempre que veas a Bergmite (su nombre o su imagen) en la pantalla, pulsa la barra espaciadora tan rápido como sea posible. Pulsa la barra espaciadora cuando veas una imagen de Bergmite o la palabra BERGMITE. 

Pulsa la barra espaciadora para comenzar la tarea.",target3,stimuli/t3.jpg,184,77,stimuli/filler48.jpg,filler,False,None,,,,,,,,,,,,,,0,0,0,0,,,,,0,1,1,2,0,76,76,76,,,,,,,,,,,,,,,,,,,,,,,,,,,,,,,,,,,,,,,,,,,,,,,,,,,,,CS1_USneg,None,1,,,,,,,,,,,,,,,,,,19,f,184,n,2019_Dec_05_1501,ec_RRR,3.0.4,59.79616672271678,
