data_collection_site,instructions_text_top,instructions_text_bottom,block_id,example_image,participant,trial_number,stimulus,trial_type,target_trial,surveillance_correct_response,filler_1_items,filler_2_items,middle_text,left_text,right_text,evaluation_stimulus,left_stimulus,right_stimulus,evaluation_response_indicating_CS1_preferred,awareness_1_question_text,awareness_2a_question_text,awareness_2b_question_text,awareness_2_question_text,record_data_collection_site_variable.thisRepN,record_data_collection_site_variable.thisTrialN,record_data_collection_site_variable.thisN,record_data_collection_site_variable.thisIndex,surveillance_instructions_loop.thisRepN,surveillance_instructions_loop.thisTrialN,surveillance_instructions_loop.thisN,surveillance_instructions_loop.thisIndex,surveillance_blocks_loop.thisRepN,surveillance_blocks_loop.thisTrialN,surveillance_blocks_loop.thisN,surveillance_blocks_loop.thisIndex,surveillance_trials_loop.thisRepN,surveillance_trials_loop.thisTrialN,surveillance_trials_loop.thisN,surveillance_trials_loop.thisIndex,filler_1_instructions_loop.thisRepN,filler_1_instructions_loop.thisTrialN,filler_1_instructions_loop.thisN,filler_1_instructions_loop.thisIndex,filler_1_loop.thisRepN,filler_1_loop.thisTrialN,filler_1_loop.thisN,filler_1_loop.thisIndex,filler_2_instructions_loop.thisRepN,filler_2_instructions_loop.thisTrialN,filler_2_instructions_loop.thisN,filler_2_instructions_loop.thisIndex,filler_2_loop.thisRepN,filler_2_loop.thisTrialN,filler_2_loop.thisN,filler_2_loop.thisIndex,evaluation_instructions_loop.thisRepN,evaluation_instructions_loop.thisTrialN,evaluation_instructions_loop.thisN,evaluation_instructions_loop.thisIndex,evaluation_loop.thisRepN,evaluation_loop.thisTrialN,evaluation_loop.thisN,evaluation_loop.thisIndex,evaluation_trials.thisRepN,evaluation_trials.thisTrialN,evaluation_trials.thisN,evaluation_trials.thisIndex,awareness_instructions_loop.thisRepN,awareness_instructions_loop.thisTrialN,awareness_instructions_loop.thisN,awareness_instructions_loop.thisIndex,awareness_1_trials_loop.thisRepN,awareness_1_trials_loop.thisTrialN,awareness_1_trials_loop.thisN,awareness_1_trials_loop.thisIndex,awareness_2a_trials_loop.thisRepN,awareness_2a_trials_loop.thisTrialN,awareness_2a_trials_loop.thisN,awareness_2a_trials_loop.thisIndex,awareness_2b_trials_loop.thisRepN,awareness_2b_trials_loop.thisTrialN,awareness_2b_trials_loop.thisN,awareness_2b_trials_loop.thisIndex,awareness_2c_trials_loop.thisRepN,awareness_2c_trials_loop.thisTrialN,awareness_2c_trials_loop.thisN,awareness_2c_trials_loop.thisIndex,end_message_loop.thisRepN,end_message_loop.thisTrialN,end_message_loop.thisN,end_message_loop.thisIndex,condition,surveillance_response.keys,surveillance_response.corr,surveillance_response.rt,filler_1_rating.response,filler_1_rating.rt,filler_2_rating.response,filler_2_rating.rt,evaluation_response.keys,evaluation_response.corr,evaluation_response.rt,inputText,awareness_1_response.keys,awareness_1_response.rt,awareness_type_2a_rating.response,awareness_type_2a_rating.rt,awareness_type_2b_rating.response,awareness_type_2b_rating.rt,awareness_type_2c_rating.response,awareness_type_2c_rating.rt,age,gender,participant,UseMonkey,date,expName,psychopyVersion,frameRate,
Vadillo,"Para esta tarea, el personaje clave es Golett:","De modo que siempre que veas a Golett (su nombre o su imagen) en la pantalla, pulsa la barra espaciadora tan rápido como sea posible. Pulsa la barra espaciadora cuando veas una imagen de Golett o la palabra GOLETT. 

Pulsa la barra espaciadora para comenzar la tarea.",target5,stimuli/t5.jpg,82,1,stimuli/target5_7.jpg,target,True,space,,,,,,,,,,,,,,0,0,0,0,,,,,0,0,0,4,0,0,0,0,,,,,,,,,,,,,,,,,,,,,,,,,,,,,,,,,,,,,,,,,,,,,,,,,,,,,CS1_USneg,space,1,0.7614633520133793,,,,,,,,,,,,,,,,,19,f,82,n,2019_Dec_04_1332,ec_RRR,3.0.4,59.74630083560713,
Vadillo,"Para esta tarea, el personaje clave es Golett:","De modo que siempre que veas a Golett (su nombre o su imagen) en la pantalla, pulsa la barra espaciadora tan rápido como sea posible. Pulsa la barra espaciadora cuando veas una imagen de Golett o la palabra GOLETT. 

Pulsa la barra espaciadora para comenzar la tarea.",target5,stimuli/t5.jpg,82,2,stimuli/filler41.jpg,filler,False,None,,,,,,,,,,,,,,0,0,0,0,,,,,0,0,0,4,0,1,1,1,,,,,,,,,,,,,,,,,,,,,,,,,,,,,,,,,,,,,,,,,,,,,,,,,,,,,CS1_USneg,None,1,,,,,,,,,,,,,,,,,,19,f,82,n,2019_Dec_04_1332,ec_RRR,3.0.4,59.74630083560713,
Vadillo,"Para esta tarea, el personaje clave es Golett:","De modo que siempre que veas a Golett (su nombre o su imagen) en la pantalla, pulsa la barra espaciadora tan rápido como sea posible. Pulsa la barra espaciadora cuando veas una imagen de Golett o la palabra GOLETT. 

Pulsa la barra espaciadora para comenzar la tarea.",target5,stimuli/t5.jpg,82,3,stimuli/filler32.jpg,filler,False,None,,,,,,,,,,,,,,0,0,0,0,,,,,0,0,0,4,0,2,2,2,,,,,,,,,,,,,,,,,,,,,,,,,,,,,,,,,,,,,,,,,,,,,,,,,,,,,CS1_USneg,None,1,,,,,,,,,,,,,,,,,,19,f,82,n,2019_Dec_04_1332,ec_RRR,3.0.4,59.74630083560713,
Vadillo,"Para esta tarea, el personaje clave es Golett:","De modo que siempre que veas a Golett (su nombre o su imagen) en la pantalla, pulsa la barra espaciadora tan rápido como sea posible. Pulsa la barra espaciadora cuando veas una imagen de Golett o la palabra GOLETT. 

Pulsa la barra espaciadora para comenzar la tarea.",target5,stimuli/t5.jpg,82,4,stimuli/target5_5.jpg,target,True,space,,,,,,,,,,,,,,0,0,0,0,,,,,0,0,0,4,0,3,3,3,,,,,,,,,,,,,,,,,,,,,,,,,,,,,,,,,,,,,,,,,,,,,,,,,,,,,CS1_USneg,space,1,0.5532906162552536,,,,,,,,,,,,,,,,,19,f,82,n,2019_Dec_04_1332,ec_RRR,3.0.4,59.74630083560713,
Vadillo,"Para esta tarea, el personaje clave es Golett:","De modo que siempre que veas a Golett (su nombre o su imagen) en la pantalla, pulsa la barra espaciadora tan rápido como sea posible. Pulsa la barra espaciadora cuando veas una imagen de Golett o la palabra GOLETT. 

Pulsa la barra espaciadora para comenzar la tarea.",target5,stimuli/t5.jpg,82,5,stimuli/filler28.jpg,filler,False,None,,,,,,,,,,,,,,0,0,0,0,,,,,0,0,0,4,0,4,4,4,,,,,,,,,,,,,,,,,,,,,,,,,,,,,,,,,,,,,,,,,,,,,,,,,,,,,CS1_USneg,None,1,,,,,,,,,,,,,,,,,,19,f,82,n,2019_Dec_04_1332,ec_RRR,3.0.4,59.74630083560713,
Vadillo,"Para esta tarea, el personaje clave es Golett:","De modo que siempre que veas a Golett (su nombre o su imagen) en la pantalla, pulsa la barra espaciadora tan rápido como sea posible. Pulsa la barra espaciadora cuando veas una imagen de Golett o la palabra GOLETT. 

Pulsa la barra espaciadora para comenzar la tarea.",target5,stimuli/t5.jpg,82,6,stimuli/filler24.jpg,filler,False,None,,,,,,,,,,,,,,0,0,0,0,,,,,0,0,0,4,0,5,5,5,,,,,,,,,,,,,,,,,,,,,,,,,,,,,,,,,,,,,,,,,,,,,,,,,,,,,CS1_USneg,None,1,,,,,,,,,,,,,,,,,,19,f,82,n,2019_Dec_04_1332,ec_RRR,3.0.4,59.74630083560713,
Vadillo,"Para esta tarea, el personaje clave es Golett:","De modo que siempre que veas a Golett (su nombre o su imagen) en la pantalla, pulsa la barra espaciadora tan rápido como sea posible. Pulsa la barra espaciadora cuando veas una imagen de Golett o la palabra GOLETT. 

Pulsa la barra espaciadora para comenzar la tarea.",target5,stimuli/t5.jpg,82,7,stimuli/target5_10.jpg,target,True,space,,,,,,,,,,,,,,0,0,0,0,,,,,0,0,0,4,0,6,6,6,,,,,,,,,,,,,,,,,,,,,,,,,,,,,,,,,,,,,,,,,,,,,,,,,,,,,CS1_USneg,space,1,0.47073447005823255,,,,,,,,,,,,,,,,,19,f,82,n,2019_Dec_04_1332,ec_RRR,3.0.4,59.74630083560713,
Vadillo,"Para esta tarea, el personaje clave es Golett:","De modo que siempre que veas a Golett (su nombre o su imagen) en la pantalla, pulsa la barra espaciadora tan rápido como sea posible. Pulsa la barra espaciadora cuando veas una imagen de Golett o la palabra GOLETT. 

Pulsa la barra espaciadora para comenzar la tarea.",target5,stimuli/t5.jpg,82,8,stimuli/target5_3.jpg,target,True,space,,,,,,,,,,,,,,0,0,0,0,,,,,0,0,0,4,0,7,7,7,,,,,,,,,,,,,,,,,,,,,,,,,,,,,,,,,,,,,,,,,,,,,,,,,,,,,CS1_USneg,space,1,0.5559835224412382,,,,,,,,,,,,,,,,,19,f,82,n,2019_Dec_04_1332,ec_RRR,3.0.4,59.74630083560713,
Vadillo,"Para esta tarea, el personaje clave es Golett:","De modo que siempre que veas a Golett (su nombre o su imagen) en la pantalla, pulsa la barra espaciadora tan rápido como sea posible. Pulsa la barra espaciadora cuando veas una imagen de Golett o la palabra GOLETT. 

Pulsa la barra espaciadora para comenzar la tarea.",target5,stimuli/t5.jpg,82,9,stimuli/filler12.jpg,filler,False,None,,,,,,,,,,,,,,0,0,0,0,,,,,0,0,0,4,0,8,8,8,,,,,,,,,,,,,,,,,,,,,,,,,,,,,,,,,,,,,,,,,,,,,,,,,,,,,CS1_USneg,None,1,,,,,,,,,,,,,,,,,,19,f,82,n,2019_Dec_04_1332,ec_RRR,3.0.4,59.74630083560713,
Vadillo,"Para esta tarea, el personaje clave es Golett:","De modo que siempre que veas a Golett (su nombre o su imagen) en la pantalla, pulsa la barra espaciadora tan rápido como sea posible. Pulsa la barra espaciadora cuando veas una imagen de Golett o la palabra GOLETT. 

Pulsa la barra espaciadora para comenzar la tarea.",target5,stimuli/t5.jpg,82,10,stimuli/blank.jpg,blank,False,None,,,,,,,,,,,,,,0,0,0,0,,,,,0,0,0,4,0,9,9,9,,,,,,,,,,,,,,,,,,,,,,,,,,,,,,,,,,,,,,,,,,,,,,,,,,,,,CS1_USneg,None,1,,,,,,,,,,,,,,,,,,19,f,82,n,2019_Dec_04_1332,ec_RRR,3.0.4,59.74630083560713,
Vadillo,"Para esta tarea, el personaje clave es Golett:","De modo que siempre que veas a Golett (su nombre o su imagen) en la pantalla, pulsa la barra espaciadora tan rápido como sea posible. Pulsa la barra espaciadora cuando veas una imagen de Golett o la palabra GOLETT. 

Pulsa la barra espaciadora para comenzar la tarea.",target5,stimuli/t5.jpg,82,11,stimuli/cs1_neg20.jpg,CSUS,False,None,,,,,,,,,,,,,,0,0,0,0,,,,,0,0,0,4,0,10,10,10,,,,,,,,,,,,,,,,,,,,,,,,,,,,,,,,,,,,,,,,,,,,,,,,,,,,,CS1_USneg,None,1,,,,,,,,,,,,,,,,,,19,f,82,n,2019_Dec_04_1332,ec_RRR,3.0.4,59.74630083560713,
Vadillo,"Para esta tarea, el personaje clave es Golett:","De modo que siempre que veas a Golett (su nombre o su imagen) en la pantalla, pulsa la barra espaciadora tan rápido como sea posible. Pulsa la barra espaciadora cuando veas una imagen de Golett o la palabra GOLETT. 

Pulsa la barra espaciadora para comenzar la tarea.",target5,stimuli/t5.jpg,82,12,stimuli/blank.jpg,blank,False,None,,,,,,,,,,,,,,0,0,0,0,,,,,0,0,0,4,0,11,11,11,,,,,,,,,,,,,,,,,,,,,,,,,,,,,,,,,,,,,,,,,,,,,,,,,,,,,CS1_USneg,None,1,,,,,,,,,,,,,,,,,,19,f,82,n,2019_Dec_04_1332,ec_RRR,3.0.4,59.74630083560713,
Vadillo,"Para esta tarea, el personaje clave es Golett:","De modo que siempre que veas a Golett (su nombre o su imagen) en la pantalla, pulsa la barra espaciadora tan rápido como sea posible. Pulsa la barra espaciadora cuando veas una imagen de Golett o la palabra GOLETT. 

Pulsa la barra espaciadora para comenzar la tarea.",target5,stimuli/t5.jpg,82,13,stimuli/filler37.jpg,filler,False,None,,,,,,,,,,,,,,0,0,0,0,,,,,0,0,0,4,0,12,12,12,,,,,,,,,,,,,,,,,,,,,,,,,,,,,,,,,,,,,,,,,,,,,,,,,,,,,CS1_USneg,None,1,,,,,,,,,,,,,,,,,,19,f,82,n,2019_Dec_04_1332,ec_RRR,3.0.4,59.74630083560713,
Vadillo,"Para esta tarea, el personaje clave es Golett:","De modo que siempre que veas a Golett (su nombre o su imagen) en la pantalla, pulsa la barra espaciadora tan rápido como sea posible. Pulsa la barra espaciadora cuando veas una imagen de Golett o la palabra GOLETT. 

Pulsa la barra espaciadora para comenzar la tarea.",target5,stimuli/t5.jpg,82,14,stimuli/filler10.jpg,filler,False,None,,,,,,,,,,,,,,0,0,0,0,,,,,0,0,0,4,0,13,13,13,,,,,,,,,,,,,,,,,,,,,,,,,,,,,,,,,,,,,,,,,,,,,,,,,,,,,CS1_USneg,None,1,,,,,,,,,,,,,,,,,,19,f,82,n,2019_Dec_04_1332,ec_RRR,3.0.4,59.74630083560713,
Vadillo,"Para esta tarea, el personaje clave es Golett:","De modo que siempre que veas a Golett (su nombre o su imagen) en la pantalla, pulsa la barra espaciadora tan rápido como sea posible. Pulsa la barra espaciadora cuando veas una imagen de Golett o la palabra GOLETT. 

Pulsa la barra espaciadora para comenzar la tarea.",target5,stimuli/t5.jpg,82,15,stimuli/target5_2.jpg,target,True,space,,,,,,,,,,,,,,0,0,0,0,,,,,0,0,0,4,0,14,14,14,,,,,,,,,,,,,,,,,,,,,,,,,,,,,,,,,,,,,,,,,,,,,,,,,,,,,CS1_USneg,space,1,0.503883418161422,,,,,,,,,,,,,,,,,19,f,82,n,2019_Dec_04_1332,ec_RRR,3.0.4,59.74630083560713,
Vadillo,"Para esta tarea, el personaje clave es Golett:","De modo que siempre que veas a Golett (su nombre o su imagen) en la pantalla, pulsa la barra espaciadora tan rápido como sea posible. Pulsa la barra espaciadora cuando veas una imagen de Golett o la palabra GOLETT. 

Pulsa la barra espaciadora para comenzar la tarea.",target5,stimuli/t5.jpg,82,16,stimuli/filler4.jpg,filler,False,None,,,,,,,,,,,,,,0,0,0,0,,,,,0,0,0,4,0,15,15,15,,,,,,,,,,,,,,,,,,,,,,,,,,,,,,,,,,,,,,,,,,,,,,,,,,,,,CS1_USneg,None,1,,,,,,,,,,,,,,,,,,19,f,82,n,2019_Dec_04_1332,ec_RRR,3.0.4,59.74630083560713,
Vadillo,"Para esta tarea, el personaje clave es Golett:","De modo que siempre que veas a Golett (su nombre o su imagen) en la pantalla, pulsa la barra espaciadora tan rápido como sea posible. Pulsa la barra espaciadora cuando veas una imagen de Golett o la palabra GOLETT. 

Pulsa la barra espaciadora para comenzar la tarea.",target5,stimuli/t5.jpg,82,17,stimuli/target5_4.jpg,target,True,space,,,,,,,,,,,,,,0,0,0,0,,,,,0,0,0,4,0,16,16,16,,,,,,,,,,,,,,,,,,,,,,,,,,,,,,,,,,,,,,,,,,,,,,,,,,,,,CS1_USneg,space,1,0.5051464261487126,,,,,,,,,,,,,,,,,19,f,82,n,2019_Dec_04_1332,ec_RRR,3.0.4,59.74630083560713,
Vadillo,"Para esta tarea, el personaje clave es Golett:","De modo que siempre que veas a Golett (su nombre o su imagen) en la pantalla, pulsa la barra espaciadora tan rápido como sea posible. Pulsa la barra espaciadora cuando veas una imagen de Golett o la palabra GOLETT. 

Pulsa la barra espaciadora para comenzar la tarea.",target5,stimuli/t5.jpg,82,18,stimuli/filler51.jpg,filler,False,None,,,,,,,,,,,,,,0,0,0,0,,,,,0,0,0,4,0,17,17,17,,,,,,,,,,,,,,,,,,,,,,,,,,,,,,,,,,,,,,,,,,,,,,,,,,,,,CS1_USneg,None,1,,,,,,,,,,,,,,,,,,19,f,82,n,2019_Dec_04_1332,ec_RRR,3.0.4,59.74630083560713,
Vadillo,"Para esta tarea, el personaje clave es Golett:","De modo que siempre que veas a Golett (su nombre o su imagen) en la pantalla, pulsa la barra espaciadora tan rápido como sea posible. Pulsa la barra espaciadora cuando veas una imagen de Golett o la palabra GOLETT. 

Pulsa la barra espaciadora para comenzar la tarea.",target5,stimuli/t5.jpg,82,19,stimuli/filler31.jpg,filler,False,None,,,,,,,,,,,,,,0,0,0,0,,,,,0,0,0,4,0,18,18,18,,,,,,,,,,,,,,,,,,,,,,,,,,,,,,,,,,,,,,,,,,,,,,,,,,,,,CS1_USneg,None,1,,,,,,,,,,,,,,,,,,19,f,82,n,2019_Dec_04_1332,ec_RRR,3.0.4,59.74630083560713,
Vadillo,"Para esta tarea, el personaje clave es Golett:","De modo que siempre que veas a Golett (su nombre o su imagen) en la pantalla, pulsa la barra espaciadora tan rápido como sea posible. Pulsa la barra espaciadora cuando veas una imagen de Golett o la palabra GOLETT. 

Pulsa la barra espaciadora para comenzar la tarea.",target5,stimuli/t5.jpg,82,20,stimuli/blank.jpg,blank,False,None,,,,,,,,,,,,,,0,0,0,0,,,,,0,0,0,4,0,19,19,19,,,,,,,,,,,,,,,,,,,,,,,,,,,,,,,,,,,,,,,,,,,,,,,,,,,,,CS1_USneg,None,1,,,,,,,,,,,,,,,,,,19,f,82,n,2019_Dec_04_1332,ec_RRR,3.0.4,59.74630083560713,
Vadillo,"Para esta tarea, el personaje clave es Golett:","De modo que siempre que veas a Golett (su nombre o su imagen) en la pantalla, pulsa la barra espaciadora tan rápido como sea posible. Pulsa la barra espaciadora cuando veas una imagen de Golett o la palabra GOLETT. 

Pulsa la barra espaciadora para comenzar la tarea.",target5,stimuli/t5.jpg,82,21,stimuli/cs2_pos3.jpg,CSUS,False,None,,,,,,,,,,,,,,0,0,0,0,,,,,0,0,0,4,0,20,20,20,,,,,,,,,,,,,,,,,,,,,,,,,,,,,,,,,,,,,,,,,,,,,,,,,,,,,CS1_USneg,None,1,,,,,,,,,,,,,,,,,,19,f,82,n,2019_Dec_04_1332,ec_RRR,3.0.4,59.74630083560713,
Vadillo,"Para esta tarea, el personaje clave es Golett:","De modo que siempre que veas a Golett (su nombre o su imagen) en la pantalla, pulsa la barra espaciadora tan rápido como sea posible. Pulsa la barra espaciadora cuando veas una imagen de Golett o la palabra GOLETT. 

Pulsa la barra espaciadora para comenzar la tarea.",target5,stimuli/t5.jpg,82,22,stimuli/blank.jpg,blank,False,None,,,,,,,,,,,,,,0,0,0,0,,,,,0,0,0,4,0,21,21,21,,,,,,,,,,,,,,,,,,,,,,,,,,,,,,,,,,,,,,,,,,,,,,,,,,,,,CS1_USneg,None,1,,,,,,,,,,,,,,,,,,19,f,82,n,2019_Dec_04_1332,ec_RRR,3.0.4,59.74630083560713,
Vadillo,"Para esta tarea, el personaje clave es Golett:","De modo que siempre que veas a Golett (su nombre o su imagen) en la pantalla, pulsa la barra espaciadora tan rápido como sea posible. Pulsa la barra espaciadora cuando veas una imagen de Golett o la palabra GOLETT. 

Pulsa la barra espaciadora para comenzar la tarea.",target5,stimuli/t5.jpg,82,23,stimuli/filler1.jpg,filler,False,None,,,,,,,,,,,,,,0,0,0,0,,,,,0,0,0,4,0,22,22,22,,,,,,,,,,,,,,,,,,,,,,,,,,,,,,,,,,,,,,,,,,,,,,,,,,,,,CS1_USneg,None,1,,,,,,,,,,,,,,,,,,19,f,82,n,2019_Dec_04_1332,ec_RRR,3.0.4,59.74630083560713,
Vadillo,"Para esta tarea, el personaje clave es Golett:","De modo que siempre que veas a Golett (su nombre o su imagen) en la pantalla, pulsa la barra espaciadora tan rápido como sea posible. Pulsa la barra espaciadora cuando veas una imagen de Golett o la palabra GOLETT. 

Pulsa la barra espaciadora para comenzar la tarea.",target5,stimuli/t5.jpg,82,24,stimuli/filler11.jpg,filler,False,None,,,,,,,,,,,,,,0,0,0,0,,,,,0,0,0,4,0,23,23,23,,,,,,,,,,,,,,,,,,,,,,,,,,,,,,,,,,,,,,,,,,,,,,,,,,,,,CS1_USneg,None,1,,,,,,,,,,,,,,,,,,19,f,82,n,2019_Dec_04_1332,ec_RRR,3.0.4,59.74630083560713,
Vadillo,"Para esta tarea, el personaje clave es Golett:","De modo que siempre que veas a Golett (su nombre o su imagen) en la pantalla, pulsa la barra espaciadora tan rápido como sea posible. Pulsa la barra espaciadora cuando veas una imagen de Golett o la palabra GOLETT. 

Pulsa la barra espaciadora para comenzar la tarea.",target5,stimuli/t5.jpg,82,25,stimuli/filler13.jpg,filler,False,None,,,,,,,,,,,,,,0,0,0,0,,,,,0,0,0,4,0,24,24,24,,,,,,,,,,,,,,,,,,,,,,,,,,,,,,,,,,,,,,,,,,,,,,,,,,,,,CS1_USneg,None,1,,,,,,,,,,,,,,,,,,19,f,82,n,2019_Dec_04_1332,ec_RRR,3.0.4,59.74630083560713,
Vadillo,"Para esta tarea, el personaje clave es Golett:","De modo que siempre que veas a Golett (su nombre o su imagen) en la pantalla, pulsa la barra espaciadora tan rápido como sea posible. Pulsa la barra espaciadora cuando veas una imagen de Golett o la palabra GOLETT. 

Pulsa la barra espaciadora para comenzar la tarea.",target5,stimuli/t5.jpg,82,26,stimuli/filler47.jpg,filler,False,None,,,,,,,,,,,,,,0,0,0,0,,,,,0,0,0,4,0,25,25,25,,,,,,,,,,,,,,,,,,,,,,,,,,,,,,,,,,,,,,,,,,,,,,,,,,,,,CS1_USneg,None,1,,,,,,,,,,,,,,,,,,19,f,82,n,2019_Dec_04_1332,ec_RRR,3.0.4,59.74630083560713,
Vadillo,"Para esta tarea, el personaje clave es Golett:","De modo que siempre que veas a Golett (su nombre o su imagen) en la pantalla, pulsa la barra espaciadora tan rápido como sea posible. Pulsa la barra espaciadora cuando veas una imagen de Golett o la palabra GOLETT. 

Pulsa la barra espaciadora para comenzar la tarea.",target5,stimuli/t5.jpg,82,27,stimuli/filler42.jpg,filler,False,None,,,,,,,,,,,,,,0,0,0,0,,,,,0,0,0,4,0,26,26,26,,,,,,,,,,,,,,,,,,,,,,,,,,,,,,,,,,,,,,,,,,,,,,,,,,,,,CS1_USneg,None,1,,,,,,,,,,,,,,,,,,19,f,82,n,2019_Dec_04_1332,ec_RRR,3.0.4,59.74630083560713,
Vadillo,"Para esta tarea, el personaje clave es Golett:","De modo que siempre que veas a Golett (su nombre o su imagen) en la pantalla, pulsa la barra espaciadora tan rápido como sea posible. Pulsa la barra espaciadora cuando veas una imagen de Golett o la palabra GOLETT. 

Pulsa la barra espaciadora para comenzar la tarea.",target5,stimuli/t5.jpg,82,28,stimuli/filler22.jpg,filler,False,None,,,,,,,,,,,,,,0,0,0,0,,,,,0,0,0,4,0,27,27,27,,,,,,,,,,,,,,,,,,,,,,,,,,,,,,,,,,,,,,,,,,,,,,,,,,,,,CS1_USneg,None,1,,,,,,,,,,,,,,,,,,19,f,82,n,2019_Dec_04_1332,ec_RRR,3.0.4,59.74630083560713,
Vadillo,"Para esta tarea, el personaje clave es Golett:","De modo que siempre que veas a Golett (su nombre o su imagen) en la pantalla, pulsa la barra espaciadora tan rápido como sea posible. Pulsa la barra espaciadora cuando veas una imagen de Golett o la palabra GOLETT. 

Pulsa la barra espaciadora para comenzar la tarea.",target5,stimuli/t5.jpg,82,29,stimuli/filler20.jpg,filler,False,None,,,,,,,,,,,,,,0,0,0,0,,,,,0,0,0,4,0,28,28,28,,,,,,,,,,,,,,,,,,,,,,,,,,,,,,,,,,,,,,,,,,,,,,,,,,,,,CS1_USneg,None,1,,,,,,,,,,,,,,,,,,19,f,82,n,2019_Dec_04_1332,ec_RRR,3.0.4,59.74630083560713,
Vadillo,"Para esta tarea, el personaje clave es Golett:","De modo que siempre que veas a Golett (su nombre o su imagen) en la pantalla, pulsa la barra espaciadora tan rápido como sea posible. Pulsa la barra espaciadora cuando veas una imagen de Golett o la palabra GOLETT. 

Pulsa la barra espaciadora para comenzar la tarea.",target5,stimuli/t5.jpg,82,30,stimuli/blank.jpg,blank,False,None,,,,,,,,,,,,,,0,0,0,0,,,,,0,0,0,4,0,29,29,29,,,,,,,,,,,,,,,,,,,,,,,,,,,,,,,,,,,,,,,,,,,,,,,,,,,,,CS1_USneg,None,1,,,,,,,,,,,,,,,,,,19,f,82,n,2019_Dec_04_1332,ec_RRR,3.0.4,59.74630083560713,
Vadillo,"Para esta tarea, el personaje clave es Golett:","De modo que siempre que veas a Golett (su nombre o su imagen) en la pantalla, pulsa la barra espaciadora tan rápido como sea posible. Pulsa la barra espaciadora cuando veas una imagen de Golett o la palabra GOLETT. 

Pulsa la barra espaciadora para comenzar la tarea.",target5,stimuli/t5.jpg,82,31,stimuli/cs1_neg12.jpg,CSUS,False,None,,,,,,,,,,,,,,0,0,0,0,,,,,0,0,0,4,0,30,30,30,,,,,,,,,,,,,,,,,,,,,,,,,,,,,,,,,,,,,,,,,,,,,,,,,,,,,CS1_USneg,None,1,,,,,,,,,,,,,,,,,,19,f,82,n,2019_Dec_04_1332,ec_RRR,3.0.4,59.74630083560713,
Vadillo,"Para esta tarea, el personaje clave es Golett:","De modo que siempre que veas a Golett (su nombre o su imagen) en la pantalla, pulsa la barra espaciadora tan rápido como sea posible. Pulsa la barra espaciadora cuando veas una imagen de Golett o la palabra GOLETT. 

Pulsa la barra espaciadora para comenzar la tarea.",target5,stimuli/t5.jpg,82,32,stimuli/blank.jpg,blank,False,None,,,,,,,,,,,,,,0,0,0,0,,,,,0,0,0,4,0,31,31,31,,,,,,,,,,,,,,,,,,,,,,,,,,,,,,,,,,,,,,,,,,,,,,,,,,,,,CS1_USneg,None,1,,,,,,,,,,,,,,,,,,19,f,82,n,2019_Dec_04_1332,ec_RRR,3.0.4,59.74630083560713,
Vadillo,"Para esta tarea, el personaje clave es Golett:","De modo que siempre que veas a Golett (su nombre o su imagen) en la pantalla, pulsa la barra espaciadora tan rápido como sea posible. Pulsa la barra espaciadora cuando veas una imagen de Golett o la palabra GOLETT. 

Pulsa la barra espaciadora para comenzar la tarea.",target5,stimuli/t5.jpg,82,33,stimuli/filler48.jpg,filler,False,None,,,,,,,,,,,,,,0,0,0,0,,,,,0,0,0,4,0,32,32,32,,,,,,,,,,,,,,,,,,,,,,,,,,,,,,,,,,,,,,,,,,,,,,,,,,,,,CS1_USneg,None,1,,,,,,,,,,,,,,,,,,19,f,82,n,2019_Dec_04_1332,ec_RRR,3.0.4,59.74630083560713,
Vadillo,"Para esta tarea, el personaje clave es Golett:","De modo que siempre que veas a Golett (su nombre o su imagen) en la pantalla, pulsa la barra espaciadora tan rápido como sea posible. Pulsa la barra espaciadora cuando veas una imagen de Golett o la palabra GOLETT. 

Pulsa la barra espaciadora para comenzar la tarea.",target5,stimuli/t5.jpg,82,34,stimuli/target5_9.jpg,target,True,space,,,,,,,,,,,,,,0,0,0,0,,,,,0,0,0,4,0,33,33,33,,,,,,,,,,,,,,,,,,,,,,,,,,,,,,,,,,,,,,,,,,,,,,,,,,,,,CS1_USneg,space,1,0.48714488558471203,,,,,,,,,,,,,,,,,19,f,82,n,2019_Dec_04_1332,ec_RRR,3.0.4,59.74630083560713,
Vadillo,"Para esta tarea, el personaje clave es Golett:","De modo que siempre que veas a Golett (su nombre o su imagen) en la pantalla, pulsa la barra espaciadora tan rápido como sea posible. Pulsa la barra espaciadora cuando veas una imagen de Golett o la palabra GOLETT. 

Pulsa la barra espaciadora para comenzar la tarea.",target5,stimuli/t5.jpg,82,35,stimuli/filler45.jpg,filler,False,None,,,,,,,,,,,,,,0,0,0,0,,,,,0,0,0,4,0,34,34,34,,,,,,,,,,,,,,,,,,,,,,,,,,,,,,,,,,,,,,,,,,,,,,,,,,,,,CS1_USneg,None,1,,,,,,,,,,,,,,,,,,19,f,82,n,2019_Dec_04_1332,ec_RRR,3.0.4,59.74630083560713,
Vadillo,"Para esta tarea, el personaje clave es Golett:","De modo que siempre que veas a Golett (su nombre o su imagen) en la pantalla, pulsa la barra espaciadora tan rápido como sea posible. Pulsa la barra espaciadora cuando veas una imagen de Golett o la palabra GOLETT. 

Pulsa la barra espaciadora para comenzar la tarea.",target5,stimuli/t5.jpg,82,36,stimuli/filler44.jpg,filler,False,None,,,,,,,,,,,,,,0,0,0,0,,,,,0,0,0,4,0,35,35,35,,,,,,,,,,,,,,,,,,,,,,,,,,,,,,,,,,,,,,,,,,,,,,,,,,,,,CS1_USneg,None,1,,,,,,,,,,,,,,,,,,19,f,82,n,2019_Dec_04_1332,ec_RRR,3.0.4,59.74630083560713,
Vadillo,"Para esta tarea, el personaje clave es Golett:","De modo que siempre que veas a Golett (su nombre o su imagen) en la pantalla, pulsa la barra espaciadora tan rápido como sea posible. Pulsa la barra espaciadora cuando veas una imagen de Golett o la palabra GOLETT. 

Pulsa la barra espaciadora para comenzar la tarea.",target5,stimuli/t5.jpg,82,37,stimuli/filler35.jpg,filler,False,None,,,,,,,,,,,,,,0,0,0,0,,,,,0,0,0,4,0,36,36,36,,,,,,,,,,,,,,,,,,,,,,,,,,,,,,,,,,,,,,,,,,,,,,,,,,,,,CS1_USneg,None,1,,,,,,,,,,,,,,,,,,19,f,82,n,2019_Dec_04_1332,ec_RRR,3.0.4,59.74630083560713,
Vadillo,"Para esta tarea, el personaje clave es Golett:","De modo que siempre que veas a Golett (su nombre o su imagen) en la pantalla, pulsa la barra espaciadora tan rápido como sea posible. Pulsa la barra espaciadora cuando veas una imagen de Golett o la palabra GOLETT. 

Pulsa la barra espaciadora para comenzar la tarea.",target5,stimuli/t5.jpg,82,38,stimuli/filler38.jpg,filler,False,None,,,,,,,,,,,,,,0,0,0,0,,,,,0,0,0,4,0,37,37,37,,,,,,,,,,,,,,,,,,,,,,,,,,,,,,,,,,,,,,,,,,,,,,,,,,,,,CS1_USneg,None,1,,,,,,,,,,,,,,,,,,19,f,82,n,2019_Dec_04_1332,ec_RRR,3.0.4,59.74630083560713,
Vadillo,"Para esta tarea, el personaje clave es Golett:","De modo que siempre que veas a Golett (su nombre o su imagen) en la pantalla, pulsa la barra espaciadora tan rápido como sea posible. Pulsa la barra espaciadora cuando veas una imagen de Golett o la palabra GOLETT. 

Pulsa la barra espaciadora para comenzar la tarea.",target5,stimuli/t5.jpg,82,39,stimuli/filler27.jpg,filler,False,None,,,,,,,,,,,,,,0,0,0,0,,,,,0,0,0,4,0,38,38,38,,,,,,,,,,,,,,,,,,,,,,,,,,,,,,,,,,,,,,,,,,,,,,,,,,,,,CS1_USneg,None,1,,,,,,,,,,,,,,,,,,19,f,82,n,2019_Dec_04_1332,ec_RRR,3.0.4,59.74630083560713,
Vadillo,"Para esta tarea, el personaje clave es Golett:","De modo que siempre que veas a Golett (su nombre o su imagen) en la pantalla, pulsa la barra espaciadora tan rápido como sea posible. Pulsa la barra espaciadora cuando veas una imagen de Golett o la palabra GOLETT. 

Pulsa la barra espaciadora para comenzar la tarea.",target5,stimuli/t5.jpg,82,40,stimuli/blank.jpg,blank,False,None,,,,,,,,,,,,,,0,0,0,0,,,,,0,0,0,4,0,39,39,39,,,,,,,,,,,,,,,,,,,,,,,,,,,,,,,,,,,,,,,,,,,,,,,,,,,,,CS1_USneg,None,1,,,,,,,,,,,,,,,,,,19,f,82,n,2019_Dec_04_1332,ec_RRR,3.0.4,59.74630083560713,
Vadillo,"Para esta tarea, el personaje clave es Golett:","De modo que siempre que veas a Golett (su nombre o su imagen) en la pantalla, pulsa la barra espaciadora tan rápido como sea posible. Pulsa la barra espaciadora cuando veas una imagen de Golett o la palabra GOLETT. 

Pulsa la barra espaciadora para comenzar la tarea.",target5,stimuli/t5.jpg,82,41,stimuli/cs2_pos7.jpg,CSUS,False,None,,,,,,,,,,,,,,0,0,0,0,,,,,0,0,0,4,0,40,40,40,,,,,,,,,,,,,,,,,,,,,,,,,,,,,,,,,,,,,,,,,,,,,,,,,,,,,CS1_USneg,None,1,,,,,,,,,,,,,,,,,,19,f,82,n,2019_Dec_04_1332,ec_RRR,3.0.4,59.74630083560713,
Vadillo,"Para esta tarea, el personaje clave es Golett:","De modo que siempre que veas a Golett (su nombre o su imagen) en la pantalla, pulsa la barra espaciadora tan rápido como sea posible. Pulsa la barra espaciadora cuando veas una imagen de Golett o la palabra GOLETT. 

Pulsa la barra espaciadora para comenzar la tarea.",target5,stimuli/t5.jpg,82,42,stimuli/blank.jpg,blank,False,None,,,,,,,,,,,,,,0,0,0,0,,,,,0,0,0,4,0,41,41,41,,,,,,,,,,,,,,,,,,,,,,,,,,,,,,,,,,,,,,,,,,,,,,,,,,,,,CS1_USneg,None,1,,,,,,,,,,,,,,,,,,19,f,82,n,2019_Dec_04_1332,ec_RRR,3.0.4,59.74630083560713,
Vadillo,"Para esta tarea, el personaje clave es Golett:","De modo que siempre que veas a Golett (su nombre o su imagen) en la pantalla, pulsa la barra espaciadora tan rápido como sea posible. Pulsa la barra espaciadora cuando veas una imagen de Golett o la palabra GOLETT. 

Pulsa la barra espaciadora para comenzar la tarea.",target5,stimuli/t5.jpg,82,43,stimuli/filler30.jpg,filler,False,None,,,,,,,,,,,,,,0,0,0,0,,,,,0,0,0,4,0,42,42,42,,,,,,,,,,,,,,,,,,,,,,,,,,,,,,,,,,,,,,,,,,,,,,,,,,,,,CS1_USneg,None,1,,,,,,,,,,,,,,,,,,19,f,82,n,2019_Dec_04_1332,ec_RRR,3.0.4,59.74630083560713,
Vadillo,"Para esta tarea, el personaje clave es Golett:","De modo que siempre que veas a Golett (su nombre o su imagen) en la pantalla, pulsa la barra espaciadora tan rápido como sea posible. Pulsa la barra espaciadora cuando veas una imagen de Golett o la palabra GOLETT. 

Pulsa la barra espaciadora para comenzar la tarea.",target5,stimuli/t5.jpg,82,44,stimuli/filler9.jpg,filler,False,None,,,,,,,,,,,,,,0,0,0,0,,,,,0,0,0,4,0,43,43,43,,,,,,,,,,,,,,,,,,,,,,,,,,,,,,,,,,,,,,,,,,,,,,,,,,,,,CS1_USneg,None,1,,,,,,,,,,,,,,,,,,19,f,82,n,2019_Dec_04_1332,ec_RRR,3.0.4,59.74630083560713,
Vadillo,"Para esta tarea, el personaje clave es Golett:","De modo que siempre que veas a Golett (su nombre o su imagen) en la pantalla, pulsa la barra espaciadora tan rápido como sea posible. Pulsa la barra espaciadora cuando veas una imagen de Golett o la palabra GOLETT. 

Pulsa la barra espaciadora para comenzar la tarea.",target5,stimuli/t5.jpg,82,45,stimuli/filler2.jpg,filler,False,None,,,,,,,,,,,,,,0,0,0,0,,,,,0,0,0,4,0,44,44,44,,,,,,,,,,,,,,,,,,,,,,,,,,,,,,,,,,,,,,,,,,,,,,,,,,,,,CS1_USneg,None,1,,,,,,,,,,,,,,,,,,19,f,82,n,2019_Dec_04_1332,ec_RRR,3.0.4,59.74630083560713,
Vadillo,"Para esta tarea, el personaje clave es Golett:","De modo que siempre que veas a Golett (su nombre o su imagen) en la pantalla, pulsa la barra espaciadora tan rápido como sea posible. Pulsa la barra espaciadora cuando veas una imagen de Golett o la palabra GOLETT. 

Pulsa la barra espaciadora para comenzar la tarea.",target5,stimuli/t5.jpg,82,46,stimuli/target5_1.jpg,target,True,space,,,,,,,,,,,,,,0,0,0,0,,,,,0,0,0,4,0,45,45,45,,,,,,,,,,,,,,,,,,,,,,,,,,,,,,,,,,,,,,,,,,,,,,,,,,,,,CS1_USneg,space,1,0.5542523143813014,,,,,,,,,,,,,,,,,19,f,82,n,2019_Dec_04_1332,ec_RRR,3.0.4,59.74630083560713,
Vadillo,"Para esta tarea, el personaje clave es Golett:","De modo que siempre que veas a Golett (su nombre o su imagen) en la pantalla, pulsa la barra espaciadora tan rápido como sea posible. Pulsa la barra espaciadora cuando veas una imagen de Golett o la palabra GOLETT. 

Pulsa la barra espaciadora para comenzar la tarea.",target5,stimuli/t5.jpg,82,47,stimuli/filler26.jpg,filler,False,None,,,,,,,,,,,,,,0,0,0,0,,,,,0,0,0,4,0,46,46,46,,,,,,,,,,,,,,,,,,,,,,,,,,,,,,,,,,,,,,,,,,,,,,,,,,,,,CS1_USneg,None,1,,,,,,,,,,,,,,,,,,19,f,82,n,2019_Dec_04_1332,ec_RRR,3.0.4,59.74630083560713,
Vadillo,"Para esta tarea, el personaje clave es Golett:","De modo que siempre que veas a Golett (su nombre o su imagen) en la pantalla, pulsa la barra espaciadora tan rápido como sea posible. Pulsa la barra espaciadora cuando veas una imagen de Golett o la palabra GOLETT. 

Pulsa la barra espaciadora para comenzar la tarea.",target5,stimuli/t5.jpg,82,48,stimuli/filler50.jpg,filler,False,None,,,,,,,,,,,,,,0,0,0,0,,,,,0,0,0,4,0,47,47,47,,,,,,,,,,,,,,,,,,,,,,,,,,,,,,,,,,,,,,,,,,,,,,,,,,,,,CS1_USneg,None,1,,,,,,,,,,,,,,,,,,19,f,82,n,2019_Dec_04_1332,ec_RRR,3.0.4,59.74630083560713,
Vadillo,"Para esta tarea, el personaje clave es Golett:","De modo que siempre que veas a Golett (su nombre o su imagen) en la pantalla, pulsa la barra espaciadora tan rápido como sea posible. Pulsa la barra espaciadora cuando veas una imagen de Golett o la palabra GOLETT. 

Pulsa la barra espaciadora para comenzar la tarea.",target5,stimuli/t5.jpg,82,49,stimuli/target5_8.jpg,target,True,space,,,,,,,,,,,,,,0,0,0,0,,,,,0,0,0,4,0,48,48,48,,,,,,,,,,,,,,,,,,,,,,,,,,,,,,,,,,,,,,,,,,,,,,,,,,,,,CS1_USneg,space,1,0.4869519416242838,,,,,,,,,,,,,,,,,19,f,82,n,2019_Dec_04_1332,ec_RRR,3.0.4,59.74630083560713,
Vadillo,"Para esta tarea, el personaje clave es Golett:","De modo que siempre que veas a Golett (su nombre o su imagen) en la pantalla, pulsa la barra espaciadora tan rápido como sea posible. Pulsa la barra espaciadora cuando veas una imagen de Golett o la palabra GOLETT. 

Pulsa la barra espaciadora para comenzar la tarea.",target5,stimuli/t5.jpg,82,50,stimuli/blank.jpg,blank,False,None,,,,,,,,,,,,,,0,0,0,0,,,,,0,0,0,4,0,49,49,49,,,,,,,,,,,,,,,,,,,,,,,,,,,,,,,,,,,,,,,,,,,,,,,,,,,,,CS1_USneg,None,1,,,,,,,,,,,,,,,,,,19,f,82,n,2019_Dec_04_1332,ec_RRR,3.0.4,59.74630083560713,
Vadillo,"Para esta tarea, el personaje clave es Golett:","De modo que siempre que veas a Golett (su nombre o su imagen) en la pantalla, pulsa la barra espaciadora tan rápido como sea posible. Pulsa la barra espaciadora cuando veas una imagen de Golett o la palabra GOLETT. 

Pulsa la barra espaciadora para comenzar la tarea.",target5,stimuli/t5.jpg,82,51,stimuli/cs1_neg4.jpg,CSUS,False,None,,,,,,,,,,,,,,0,0,0,0,,,,,0,0,0,4,0,50,50,50,,,,,,,,,,,,,,,,,,,,,,,,,,,,,,,,,,,,,,,,,,,,,,,,,,,,,CS1_USneg,None,1,,,,,,,,,,,,,,,,,,19,f,82,n,2019_Dec_04_1332,ec_RRR,3.0.4,59.74630083560713,
Vadillo,"Para esta tarea, el personaje clave es Golett:","De modo que siempre que veas a Golett (su nombre o su imagen) en la pantalla, pulsa la barra espaciadora tan rápido como sea posible. Pulsa la barra espaciadora cuando veas una imagen de Golett o la palabra GOLETT. 

Pulsa la barra espaciadora para comenzar la tarea.",target5,stimuli/t5.jpg,82,52,stimuli/blank.jpg,blank,False,None,,,,,,,,,,,,,,0,0,0,0,,,,,0,0,0,4,0,51,51,51,,,,,,,,,,,,,,,,,,,,,,,,,,,,,,,,,,,,,,,,,,,,,,,,,,,,,CS1_USneg,None,1,,,,,,,,,,,,,,,,,,19,f,82,n,2019_Dec_04_1332,ec_RRR,3.0.4,59.74630083560713,
Vadillo,"Para esta tarea, el personaje clave es Golett:","De modo que siempre que veas a Golett (su nombre o su imagen) en la pantalla, pulsa la barra espaciadora tan rápido como sea posible. Pulsa la barra espaciadora cuando veas una imagen de Golett o la palabra GOLETT. 

Pulsa la barra espaciadora para comenzar la tarea.",target5,stimuli/t5.jpg,82,53,stimuli/filler40.jpg,filler,False,None,,,,,,,,,,,,,,0,0,0,0,,,,,0,0,0,4,0,52,52,52,,,,,,,,,,,,,,,,,,,,,,,,,,,,,,,,,,,,,,,,,,,,,,,,,,,,,CS1_USneg,None,1,,,,,,,,,,,,,,,,,,19,f,82,n,2019_Dec_04_1332,ec_RRR,3.0.4,59.74630083560713,
Vadillo,"Para esta tarea, el personaje clave es Golett:","De modo que siempre que veas a Golett (su nombre o su imagen) en la pantalla, pulsa la barra espaciadora tan rápido como sea posible. Pulsa la barra espaciadora cuando veas una imagen de Golett o la palabra GOLETT. 

Pulsa la barra espaciadora para comenzar la tarea.",target5,stimuli/t5.jpg,82,54,stimuli/filler29.jpg,filler,False,None,,,,,,,,,,,,,,0,0,0,0,,,,,0,0,0,4,0,53,53,53,,,,,,,,,,,,,,,,,,,,,,,,,,,,,,,,,,,,,,,,,,,,,,,,,,,,,CS1_USneg,None,1,,,,,,,,,,,,,,,,,,19,f,82,n,2019_Dec_04_1332,ec_RRR,3.0.4,59.74630083560713,
Vadillo,"Para esta tarea, el personaje clave es Golett:","De modo que siempre que veas a Golett (su nombre o su imagen) en la pantalla, pulsa la barra espaciadora tan rápido como sea posible. Pulsa la barra espaciadora cuando veas una imagen de Golett o la palabra GOLETT. 

Pulsa la barra espaciadora para comenzar la tarea.",target5,stimuli/t5.jpg,82,55,stimuli/target5_6.jpg,target,True,space,,,,,,,,,,,,,,0,0,0,0,,,,,0,0,0,4,0,54,54,54,,,,,,,,,,,,,,,,,,,,,,,,,,,,,,,,,,,,,,,,,,,,,,,,,,,,,CS1_USneg,space,1,0.5710875079967082,,,,,,,,,,,,,,,,,19,f,82,n,2019_Dec_04_1332,ec_RRR,3.0.4,59.74630083560713,
Vadillo,"Para esta tarea, el personaje clave es Golett:","De modo que siempre que veas a Golett (su nombre o su imagen) en la pantalla, pulsa la barra espaciadora tan rápido como sea posible. Pulsa la barra espaciadora cuando veas una imagen de Golett o la palabra GOLETT. 

Pulsa la barra espaciadora para comenzar la tarea.",target5,stimuli/t5.jpg,82,56,stimuli/filler33.jpg,filler,False,None,,,,,,,,,,,,,,0,0,0,0,,,,,0,0,0,4,0,55,55,55,,,,,,,,,,,,,,,,,,,,,,,,,,,,,,,,,,,,,,,,,,,,,,,,,,,,,CS1_USneg,None,1,,,,,,,,,,,,,,,,,,19,f,82,n,2019_Dec_04_1332,ec_RRR,3.0.4,59.74630083560713,
Vadillo,"Para esta tarea, el personaje clave es Golett:","De modo que siempre que veas a Golett (su nombre o su imagen) en la pantalla, pulsa la barra espaciadora tan rápido como sea posible. Pulsa la barra espaciadora cuando veas una imagen de Golett o la palabra GOLETT. 

Pulsa la barra espaciadora para comenzar la tarea.",target5,stimuli/t5.jpg,82,57,stimuli/filler3.jpg,filler,False,None,,,,,,,,,,,,,,0,0,0,0,,,,,0,0,0,4,0,56,56,56,,,,,,,,,,,,,,,,,,,,,,,,,,,,,,,,,,,,,,,,,,,,,,,,,,,,,CS1_USneg,None,1,,,,,,,,,,,,,,,,,,19,f,82,n,2019_Dec_04_1332,ec_RRR,3.0.4,59.74630083560713,
Vadillo,"Para esta tarea, el personaje clave es Golett:","De modo que siempre que veas a Golett (su nombre o su imagen) en la pantalla, pulsa la barra espaciadora tan rápido como sea posible. Pulsa la barra espaciadora cuando veas una imagen de Golett o la palabra GOLETT. 

Pulsa la barra espaciadora para comenzar la tarea.",target5,stimuli/t5.jpg,82,58,stimuli/filler16.jpg,filler,False,None,,,,,,,,,,,,,,0,0,0,0,,,,,0,0,0,4,0,57,57,57,,,,,,,,,,,,,,,,,,,,,,,,,,,,,,,,,,,,,,,,,,,,,,,,,,,,,CS1_USneg,None,1,,,,,,,,,,,,,,,,,,19,f,82,n,2019_Dec_04_1332,ec_RRR,3.0.4,59.74630083560713,
Vadillo,"Para esta tarea, el personaje clave es Golett:","De modo que siempre que veas a Golett (su nombre o su imagen) en la pantalla, pulsa la barra espaciadora tan rápido como sea posible. Pulsa la barra espaciadora cuando veas una imagen de Golett o la palabra GOLETT. 

Pulsa la barra espaciadora para comenzar la tarea.",target5,stimuli/t5.jpg,82,59,stimuli/filler49.jpg,filler,False,None,,,,,,,,,,,,,,0,0,0,0,,,,,0,0,0,4,0,58,58,58,,,,,,,,,,,,,,,,,,,,,,,,,,,,,,,,,,,,,,,,,,,,,,,,,,,,,CS1_USneg,None,1,,,,,,,,,,,,,,,,,,19,f,82,n,2019_Dec_04_1332,ec_RRR,3.0.4,59.74630083560713,
Vadillo,"Para esta tarea, el personaje clave es Golett:","De modo que siempre que veas a Golett (su nombre o su imagen) en la pantalla, pulsa la barra espaciadora tan rápido como sea posible. Pulsa la barra espaciadora cuando veas una imagen de Golett o la palabra GOLETT. 

Pulsa la barra espaciadora para comenzar la tarea.",target5,stimuli/t5.jpg,82,60,stimuli/blank.jpg,blank,False,None,,,,,,,,,,,,,,0,0,0,0,,,,,0,0,0,4,0,59,59,59,,,,,,,,,,,,,,,,,,,,,,,,,,,,,,,,,,,,,,,,,,,,,,,,,,,,,CS1_USneg,None,1,,,,,,,,,,,,,,,,,,19,f,82,n,2019_Dec_04_1332,ec_RRR,3.0.4,59.74630083560713,
Vadillo,"Para esta tarea, el personaje clave es Golett:","De modo que siempre que veas a Golett (su nombre o su imagen) en la pantalla, pulsa la barra espaciadora tan rápido como sea posible. Pulsa la barra espaciadora cuando veas una imagen de Golett o la palabra GOLETT. 

Pulsa la barra espaciadora para comenzar la tarea.",target5,stimuli/t5.jpg,82,61,stimuli/cs2_pos15.jpg,CSUS,False,None,,,,,,,,,,,,,,0,0,0,0,,,,,0,0,0,4,0,60,60,60,,,,,,,,,,,,,,,,,,,,,,,,,,,,,,,,,,,,,,,,,,,,,,,,,,,,,CS1_USneg,None,1,,,,,,,,,,,,,,,,,,19,f,82,n,2019_Dec_04_1332,ec_RRR,3.0.4,59.74630083560713,
Vadillo,"Para esta tarea, el personaje clave es Golett:","De modo que siempre que veas a Golett (su nombre o su imagen) en la pantalla, pulsa la barra espaciadora tan rápido como sea posible. Pulsa la barra espaciadora cuando veas una imagen de Golett o la palabra GOLETT. 

Pulsa la barra espaciadora para comenzar la tarea.",target5,stimuli/t5.jpg,82,62,stimuli/blank.jpg,blank,False,None,,,,,,,,,,,,,,0,0,0,0,,,,,0,0,0,4,0,61,61,61,,,,,,,,,,,,,,,,,,,,,,,,,,,,,,,,,,,,,,,,,,,,,,,,,,,,,CS1_USneg,None,1,,,,,,,,,,,,,,,,,,19,f,82,n,2019_Dec_04_1332,ec_RRR,3.0.4,59.74630083560713,
Vadillo,"Para esta tarea, el personaje clave es Golett:","De modo que siempre que veas a Golett (su nombre o su imagen) en la pantalla, pulsa la barra espaciadora tan rápido como sea posible. Pulsa la barra espaciadora cuando veas una imagen de Golett o la palabra GOLETT. 

Pulsa la barra espaciadora para comenzar la tarea.",target5,stimuli/t5.jpg,82,63,stimuli/filler6.jpg,filler,False,None,,,,,,,,,,,,,,0,0,0,0,,,,,0,0,0,4,0,62,62,62,,,,,,,,,,,,,,,,,,,,,,,,,,,,,,,,,,,,,,,,,,,,,,,,,,,,,CS1_USneg,None,1,,,,,,,,,,,,,,,,,,19,f,82,n,2019_Dec_04_1332,ec_RRR,3.0.4,59.74630083560713,
Vadillo,"Para esta tarea, el personaje clave es Golett:","De modo que siempre que veas a Golett (su nombre o su imagen) en la pantalla, pulsa la barra espaciadora tan rápido como sea posible. Pulsa la barra espaciadora cuando veas una imagen de Golett o la palabra GOLETT. 

Pulsa la barra espaciadora para comenzar la tarea.",target5,stimuli/t5.jpg,82,64,stimuli/filler39.jpg,filler,False,None,,,,,,,,,,,,,,0,0,0,0,,,,,0,0,0,4,0,63,63,63,,,,,,,,,,,,,,,,,,,,,,,,,,,,,,,,,,,,,,,,,,,,,,,,,,,,,CS1_USneg,None,1,,,,,,,,,,,,,,,,,,19,f,82,n,2019_Dec_04_1332,ec_RRR,3.0.4,59.74630083560713,
Vadillo,"Para esta tarea, el personaje clave es Golett:","De modo que siempre que veas a Golett (su nombre o su imagen) en la pantalla, pulsa la barra espaciadora tan rápido como sea posible. Pulsa la barra espaciadora cuando veas una imagen de Golett o la palabra GOLETT. 

Pulsa la barra espaciadora para comenzar la tarea.",target5,stimuli/t5.jpg,82,65,stimuli/filler14.jpg,filler,False,None,,,,,,,,,,,,,,0,0,0,0,,,,,0,0,0,4,0,64,64,64,,,,,,,,,,,,,,,,,,,,,,,,,,,,,,,,,,,,,,,,,,,,,,,,,,,,,CS1_USneg,None,1,,,,,,,,,,,,,,,,,,19,f,82,n,2019_Dec_04_1332,ec_RRR,3.0.4,59.74630083560713,
Vadillo,"Para esta tarea, el personaje clave es Golett:","De modo que siempre que veas a Golett (su nombre o su imagen) en la pantalla, pulsa la barra espaciadora tan rápido como sea posible. Pulsa la barra espaciadora cuando veas una imagen de Golett o la palabra GOLETT. 

Pulsa la barra espaciadora para comenzar la tarea.",target5,stimuli/t5.jpg,82,66,stimuli/filler15.jpg,filler,False,None,,,,,,,,,,,,,,0,0,0,0,,,,,0,0,0,4,0,65,65,65,,,,,,,,,,,,,,,,,,,,,,,,,,,,,,,,,,,,,,,,,,,,,,,,,,,,,CS1_USneg,None,1,,,,,,,,,,,,,,,,,,19,f,82,n,2019_Dec_04_1332,ec_RRR,3.0.4,59.74630083560713,
Vadillo,"Para esta tarea, el personaje clave es Golett:","De modo que siempre que veas a Golett (su nombre o su imagen) en la pantalla, pulsa la barra espaciadora tan rápido como sea posible. Pulsa la barra espaciadora cuando veas una imagen de Golett o la palabra GOLETT. 

Pulsa la barra espaciadora para comenzar la tarea.",target5,stimuli/t5.jpg,82,67,stimuli/filler25.jpg,filler,False,None,,,,,,,,,,,,,,0,0,0,0,,,,,0,0,0,4,0,66,66,66,,,,,,,,,,,,,,,,,,,,,,,,,,,,,,,,,,,,,,,,,,,,,,,,,,,,,CS1_USneg,None,1,,,,,,,,,,,,,,,,,,19,f,82,n,2019_Dec_04_1332,ec_RRR,3.0.4,59.74630083560713,
Vadillo,"Para esta tarea, el personaje clave es Golett:","De modo que siempre que veas a Golett (su nombre o su imagen) en la pantalla, pulsa la barra espaciadora tan rápido como sea posible. Pulsa la barra espaciadora cuando veas una imagen de Golett o la palabra GOLETT. 

Pulsa la barra espaciadora para comenzar la tarea.",target5,stimuli/t5.jpg,82,68,stimuli/filler19.jpg,filler,False,None,,,,,,,,,,,,,,0,0,0,0,,,,,0,0,0,4,0,67,67,67,,,,,,,,,,,,,,,,,,,,,,,,,,,,,,,,,,,,,,,,,,,,,,,,,,,,,CS1_USneg,None,1,,,,,,,,,,,,,,,,,,19,f,82,n,2019_Dec_04_1332,ec_RRR,3.0.4,59.74630083560713,
Vadillo,"Para esta tarea, el personaje clave es Golett:","De modo que siempre que veas a Golett (su nombre o su imagen) en la pantalla, pulsa la barra espaciadora tan rápido como sea posible. Pulsa la barra espaciadora cuando veas una imagen de Golett o la palabra GOLETT. 

Pulsa la barra espaciadora para comenzar la tarea.",target5,stimuli/t5.jpg,82,69,stimuli/filler8.jpg,filler,False,None,,,,,,,,,,,,,,0,0,0,0,,,,,0,0,0,4,0,68,68,68,,,,,,,,,,,,,,,,,,,,,,,,,,,,,,,,,,,,,,,,,,,,,,,,,,,,,CS1_USneg,None,1,,,,,,,,,,,,,,,,,,19,f,82,n,2019_Dec_04_1332,ec_RRR,3.0.4,59.74630083560713,
Vadillo,"Para esta tarea, el personaje clave es Golett:","De modo que siempre que veas a Golett (su nombre o su imagen) en la pantalla, pulsa la barra espaciadora tan rápido como sea posible. Pulsa la barra espaciadora cuando veas una imagen de Golett o la palabra GOLETT. 

Pulsa la barra espaciadora para comenzar la tarea.",target5,stimuli/t5.jpg,82,70,stimuli/blank.jpg,blank,False,None,,,,,,,,,,,,,,0,0,0,0,,,,,0,0,0,4,0,69,69,69,,,,,,,,,,,,,,,,,,,,,,,,,,,,,,,,,,,,,,,,,,,,,,,,,,,,,CS1_USneg,None,1,,,,,,,,,,,,,,,,,,19,f,82,n,2019_Dec_04_1332,ec_RRR,3.0.4,59.74630083560713,
Vadillo,"Para esta tarea, el personaje clave es Golett:","De modo que siempre que veas a Golett (su nombre o su imagen) en la pantalla, pulsa la barra espaciadora tan rápido como sea posible. Pulsa la barra espaciadora cuando veas una imagen de Golett o la palabra GOLETT. 

Pulsa la barra espaciadora para comenzar la tarea.",target5,stimuli/t5.jpg,82,71,stimuli/cs1_neg3.jpg,CSUS,False,None,,,,,,,,,,,,,,0,0,0,0,,,,,0,0,0,4,0,70,70,70,,,,,,,,,,,,,,,,,,,,,,,,,,,,,,,,,,,,,,,,,,,,,,,,,,,,,CS1_USneg,None,1,,,,,,,,,,,,,,,,,,19,f,82,n,2019_Dec_04_1332,ec_RRR,3.0.4,59.74630083560713,
Vadillo,"Para esta tarea, el personaje clave es Golett:","De modo que siempre que veas a Golett (su nombre o su imagen) en la pantalla, pulsa la barra espaciadora tan rápido como sea posible. Pulsa la barra espaciadora cuando veas una imagen de Golett o la palabra GOLETT. 

Pulsa la barra espaciadora para comenzar la tarea.",target5,stimuli/t5.jpg,82,72,stimuli/blank.jpg,blank,False,None,,,,,,,,,,,,,,0,0,0,0,,,,,0,0,0,4,0,71,71,71,,,,,,,,,,,,,,,,,,,,,,,,,,,,,,,,,,,,,,,,,,,,,,,,,,,,,CS1_USneg,None,1,,,,,,,,,,,,,,,,,,19,f,82,n,2019_Dec_04_1332,ec_RRR,3.0.4,59.74630083560713,
Vadillo,"Para esta tarea, el personaje clave es Golett:","De modo que siempre que veas a Golett (su nombre o su imagen) en la pantalla, pulsa la barra espaciadora tan rápido como sea posible. Pulsa la barra espaciadora cuando veas una imagen de Golett o la palabra GOLETT. 

Pulsa la barra espaciadora para comenzar la tarea.",target5,stimuli/t5.jpg,82,73,stimuli/filler5.jpg,filler,False,None,,,,,,,,,,,,,,0,0,0,0,,,,,0,0,0,4,0,72,72,72,,,,,,,,,,,,,,,,,,,,,,,,,,,,,,,,,,,,,,,,,,,,,,,,,,,,,CS1_USneg,None,1,,,,,,,,,,,,,,,,,,19,f,82,n,2019_Dec_04_1332,ec_RRR,3.0.4,59.74630083560713,
Vadillo,"Para esta tarea, el personaje clave es Golett:","De modo que siempre que veas a Golett (su nombre o su imagen) en la pantalla, pulsa la barra espaciadora tan rápido como sea posible. Pulsa la barra espaciadora cuando veas una imagen de Golett o la palabra GOLETT. 

Pulsa la barra espaciadora para comenzar la tarea.",target5,stimuli/t5.jpg,82,74,stimuli/filler36.jpg,filler,False,None,,,,,,,,,,,,,,0,0,0,0,,,,,0,0,0,4,0,73,73,73,,,,,,,,,,,,,,,,,,,,,,,,,,,,,,,,,,,,,,,,,,,,,,,,,,,,,CS1_USneg,None,1,,,,,,,,,,,,,,,,,,19,f,82,n,2019_Dec_04_1332,ec_RRR,3.0.4,59.74630083560713,
Vadillo,"Para esta tarea, el personaje clave es Golett:","De modo que siempre que veas a Golett (su nombre o su imagen) en la pantalla, pulsa la barra espaciadora tan rápido como sea posible. Pulsa la barra espaciadora cuando veas una imagen de Golett o la palabra GOLETT. 

Pulsa la barra espaciadora para comenzar la tarea.",target5,stimuli/t5.jpg,82,75,stimuli/filler21.jpg,filler,False,None,,,,,,,,,,,,,,0,0,0,0,,,,,0,0,0,4,0,74,74,74,,,,,,,,,,,,,,,,,,,,,,,,,,,,,,,,,,,,,,,,,,,,,,,,,,,,,CS1_USneg,None,1,,,,,,,,,,,,,,,,,,19,f,82,n,2019_Dec_04_1332,ec_RRR,3.0.4,59.74630083560713,
Vadillo,"Para esta tarea, el personaje clave es Golett:","De modo que siempre que veas a Golett (su nombre o su imagen) en la pantalla, pulsa la barra espaciadora tan rápido como sea posible. Pulsa la barra espaciadora cuando veas una imagen de Golett o la palabra GOLETT. 

Pulsa la barra espaciadora para comenzar la tarea.",target5,stimuli/t5.jpg,82,76,stimuli/filler46.jpg,filler,False,None,,,,,,,,,,,,,,0,0,0,0,,,,,0,0,0,4,0,75,75,75,,,,,,,,,,,,,,,,,,,,,,,,,,,,,,,,,,,,,,,,,,,,,,,,,,,,,CS1_USneg,None,1,,,,,,,,,,,,,,,,,,19,f,82,n,2019_Dec_04_1332,ec_RRR,3.0.4,59.74630083560713,
Vadillo,"Para esta tarea, el personaje clave es Golett:","De modo que siempre que veas a Golett (su nombre o su imagen) en la pantalla, pulsa la barra espaciadora tan rápido como sea posible. Pulsa la barra espaciadora cuando veas una imagen de Golett o la palabra GOLETT. 

Pulsa la barra espaciadora para comenzar la tarea.",target5,stimuli/t5.jpg,82,77,stimuli/filler17.jpg,filler,False,None,,,,,,,,,,,,,,0,0,0,0,,,,,0,0,0,4,0,76,76,76,,,,,,,,,,,,,,,,,,,,,,,,,,,,,,,,,,,,,,,,,,,,,,,,,,,,,CS1_USneg,None,1,,,,,,,,,,,,,,,,,,19,f,82,n,2019_Dec_04_1332,ec_RRR,3.0.4,59.74630083560713,
Vadillo,"Para esta tarea, el personaje clave es Golett:","De modo que siempre que veas a Golett (su nombre o su imagen) en la pantalla, pulsa la barra espaciadora tan rápido como sea posible. Pulsa la barra espaciadora cuando veas una imagen de Golett o la palabra GOLETT. 

Pulsa la barra espaciadora para comenzar la tarea.",target5,stimuli/t5.jpg,82,78,stimuli/filler23.jpg,filler,False,None,,,,,,,,,,,,,,0,0,0,0,,,,,0,0,0,4,0,77,77,77,,,,,,,,,,,,,,,,,,,,,,,,,,,,,,,,,,,,,,,,,,,,,,,,,,,,,CS1_USneg,None,1,,,,,,,,,,,,,,,,,,19,f,82,n,2019_Dec_04_1332,ec_RRR,3.0.4,59.74630083560713,
Vadillo,"Para esta tarea, el personaje clave es Golett:","De modo que siempre que veas a Golett (su nombre o su imagen) en la pantalla, pulsa la barra espaciadora tan rápido como sea posible. Pulsa la barra espaciadora cuando veas una imagen de Golett o la palabra GOLETT. 

Pulsa la barra espaciadora para comenzar la tarea.",target5,stimuli/t5.jpg,82,79,stimuli/filler52.jpg,filler,False,None,,,,,,,,,,,,,,0,0,0,0,,,,,0,0,0,4,0,78,78,78,,,,,,,,,,,,,,,,,,,,,,,,,,,,,,,,,,,,,,,,,,,,,,,,,,,,,CS1_USneg,None,1,,,,,,,,,,,,,,,,,,19,f,82,n,2019_Dec_04_1332,ec_RRR,3.0.4,59.74630083560713,
Vadillo,"Para esta tarea, el personaje clave es Golett:","De modo que siempre que veas a Golett (su nombre o su imagen) en la pantalla, pulsa la barra espaciadora tan rápido como sea posible. Pulsa la barra espaciadora cuando veas una imagen de Golett o la palabra GOLETT. 

Pulsa la barra espaciadora para comenzar la tarea.",target5,stimuli/t5.jpg,82,80,stimuli/blank.jpg,blank,False,None,,,,,,,,,,,,,,0,0,0,0,,,,,0,0,0,4,0,79,79,79,,,,,,,,,,,,,,,,,,,,,,,,,,,,,,,,,,,,,,,,,,,,,,,,,,,,,CS1_USneg,None,1,,,,,,,,,,,,,,,,,,19,f,82,n,2019_Dec_04_1332,ec_RRR,3.0.4,59.74630083560713,
Vadillo,"Para esta tarea, el personaje clave es Golett:","De modo que siempre que veas a Golett (su nombre o su imagen) en la pantalla, pulsa la barra espaciadora tan rápido como sea posible. Pulsa la barra espaciadora cuando veas una imagen de Golett o la palabra GOLETT. 

Pulsa la barra espaciadora para comenzar la tarea.",target5,stimuli/t5.jpg,82,81,stimuli/cs2_pos6.jpg,CSUS,False,None,,,,,,,,,,,,,,0,0,0,0,,,,,0,0,0,4,0,80,80,80,,,,,,,,,,,,,,,,,,,,,,,,,,,,,,,,,,,,,,,,,,,,,,,,,,,,,CS1_USneg,None,1,,,,,,,,,,,,,,,,,,19,f,82,n,2019_Dec_04_1332,ec_RRR,3.0.4,59.74630083560713,
Vadillo,"Para esta tarea, el personaje clave es Golett:","De modo que siempre que veas a Golett (su nombre o su imagen) en la pantalla, pulsa la barra espaciadora tan rápido como sea posible. Pulsa la barra espaciadora cuando veas una imagen de Golett o la palabra GOLETT. 

Pulsa la barra espaciadora para comenzar la tarea.",target5,stimuli/t5.jpg,82,82,stimuli/blank.jpg,blank,False,None,,,,,,,,,,,,,,0,0,0,0,,,,,0,0,0,4,0,81,81,81,,,,,,,,,,,,,,,,,,,,,,,,,,,,,,,,,,,,,,,,,,,,,,,,,,,,,CS1_USneg,None,1,,,,,,,,,,,,,,,,,,19,f,82,n,2019_Dec_04_1332,ec_RRR,3.0.4,59.74630083560713,
Vadillo,"Para esta tarea, el personaje clave es Golett:","De modo que siempre que veas a Golett (su nombre o su imagen) en la pantalla, pulsa la barra espaciadora tan rápido como sea posible. Pulsa la barra espaciadora cuando veas una imagen de Golett o la palabra GOLETT. 

Pulsa la barra espaciadora para comenzar la tarea.",target5,stimuli/t5.jpg,82,83,stimuli/filler7.jpg,filler,False,None,,,,,,,,,,,,,,0,0,0,0,,,,,0,0,0,4,0,82,82,82,,,,,,,,,,,,,,,,,,,,,,,,,,,,,,,,,,,,,,,,,,,,,,,,,,,,,CS1_USneg,None,1,,,,,,,,,,,,,,,,,,19,f,82,n,2019_Dec_04_1332,ec_RRR,3.0.4,59.74630083560713,
Vadillo,"Para esta tarea, el personaje clave es Golett:","De modo que siempre que veas a Golett (su nombre o su imagen) en la pantalla, pulsa la barra espaciadora tan rápido como sea posible. Pulsa la barra espaciadora cuando veas una imagen de Golett o la palabra GOLETT. 

Pulsa la barra espaciadora para comenzar la tarea.",target5,stimuli/t5.jpg,82,84,stimuli/filler43.jpg,filler,False,None,,,,,,,,,,,,,,0,0,0,0,,,,,0,0,0,4,0,83,83,83,,,,,,,,,,,,,,,,,,,,,,,,,,,,,,,,,,,,,,,,,,,,,,,,,,,,,CS1_USneg,None,1,,,,,,,,,,,,,,,,,,19,f,82,n,2019_Dec_04_1332,ec_RRR,3.0.4,59.74630083560713,
Vadillo,"Para esta tarea, el personaje clave es Golett:","De modo que siempre que veas a Golett (su nombre o su imagen) en la pantalla, pulsa la barra espaciadora tan rápido como sea posible. Pulsa la barra espaciadora cuando veas una imagen de Golett o la palabra GOLETT. 

Pulsa la barra espaciadora para comenzar la tarea.",target5,stimuli/t5.jpg,82,85,stimuli/filler34.jpg,filler,False,None,,,,,,,,,,,,,,0,0,0,0,,,,,0,0,0,4,0,84,84,84,,,,,,,,,,,,,,,,,,,,,,,,,,,,,,,,,,,,,,,,,,,,,,,,,,,,,CS1_USneg,None,1,,,,,,,,,,,,,,,,,,19,f,82,n,2019_Dec_04_1332,ec_RRR,3.0.4,59.74630083560713,
Vadillo,"Para esta tarea, el personaje clave es Golett:","De modo que siempre que veas a Golett (su nombre o su imagen) en la pantalla, pulsa la barra espaciadora tan rápido como sea posible. Pulsa la barra espaciadora cuando veas una imagen de Golett o la palabra GOLETT. 

Pulsa la barra espaciadora para comenzar la tarea.",target5,stimuli/t5.jpg,82,86,stimuli/filler18.jpg,filler,False,None,,,,,,,,,,,,,,0,0,0,0,,,,,0,0,0,4,0,85,85,85,,,,,,,,,,,,,,,,,,,,,,,,,,,,,,,,,,,,,,,,,,,,,,,,,,,,,CS1_USneg,None,1,,,,,,,,,,,,,,,,,,19,f,82,n,2019_Dec_04_1332,ec_RRR,3.0.4,59.74630083560713,
Vadillo,"Para esta tarea, el personaje clave es Palpitoad:","De modo que siempre que veas a Palpitoad (su nombre o su imagen) en la pantalla, pulsa la barra espaciadora tan rápido como sea posible. Pulsa la barra espaciadora cuando veas una imagen de Palpitoad o la palabra PALPITOAD. 

Pulsa la barra espaciadora para comenzar la tarea.",target4,stimuli/t4.jpg,82,1,stimuli/filler34.jpg,filler,False,None,,,,,,,,,,,,,,0,0,0,0,,,,,0,1,1,3,0,0,0,0,,,,,,,,,,,,,,,,,,,,,,,,,,,,,,,,,,,,,,,,,,,,,,,,,,,,,CS1_USneg,None,1,,,,,,,,,,,,,,,,,,19,f,82,n,2019_Dec_04_1332,ec_RRR,3.0.4,59.74630083560713,
Vadillo,"Para esta tarea, el personaje clave es Palpitoad:","De modo que siempre que veas a Palpitoad (su nombre o su imagen) en la pantalla, pulsa la barra espaciadora tan rápido como sea posible. Pulsa la barra espaciadora cuando veas una imagen de Palpitoad o la palabra PALPITOAD. 

Pulsa la barra espaciadora para comenzar la tarea.",target4,stimuli/t4.jpg,82,2,stimuli/target4_2.jpg,target,True,space,,,,,,,,,,,,,,0,0,0,0,,,,,0,1,1,3,0,1,1,1,,,,,,,,,,,,,,,,,,,,,,,,,,,,,,,,,,,,,,,,,,,,,,,,,,,,,CS1_USneg,space,1,0.5041783088818192,,,,,,,,,,,,,,,,,19,f,82,n,2019_Dec_04_1332,ec_RRR,3.0.4,59.74630083560713,
Vadillo,"Para esta tarea, el personaje clave es Palpitoad:","De modo que siempre que veas a Palpitoad (su nombre o su imagen) en la pantalla, pulsa la barra espaciadora tan rápido como sea posible. Pulsa la barra espaciadora cuando veas una imagen de Palpitoad o la palabra PALPITOAD. 

Pulsa la barra espaciadora para comenzar la tarea.",target4,stimuli/t4.jpg,82,3,stimuli/filler15.jpg,filler,False,None,,,,,,,,,,,,,,0,0,0,0,,,,,0,1,1,3,0,2,2,2,,,,,,,,,,,,,,,,,,,,,,,,,,,,,,,,,,,,,,,,,,,,,,,,,,,,,CS1_USneg,None,1,,,,,,,,,,,,,,,,,,19,f,82,n,2019_Dec_04_1332,ec_RRR,3.0.4,59.74630083560713,
Vadillo,"Para esta tarea, el personaje clave es Palpitoad:","De modo que siempre que veas a Palpitoad (su nombre o su imagen) en la pantalla, pulsa la barra espaciadora tan rápido como sea posible. Pulsa la barra espaciadora cuando veas una imagen de Palpitoad o la palabra PALPITOAD. 

Pulsa la barra espaciadora para comenzar la tarea.",target4,stimuli/t4.jpg,82,4,stimuli/filler2.jpg,filler,False,None,,,,,,,,,,,,,,0,0,0,0,,,,,0,1,1,3,0,3,3,3,,,,,,,,,,,,,,,,,,,,,,,,,,,,,,,,,,,,,,,,,,,,,,,,,,,,,CS1_USneg,None,1,,,,,,,,,,,,,,,,,,19,f,82,n,2019_Dec_04_1332,ec_RRR,3.0.4,59.74630083560713,
Vadillo,"Para esta tarea, el personaje clave es Palpitoad:","De modo que siempre que veas a Palpitoad (su nombre o su imagen) en la pantalla, pulsa la barra espaciadora tan rápido como sea posible. Pulsa la barra espaciadora cuando veas una imagen de Palpitoad o la palabra PALPITOAD. 

Pulsa la barra espaciadora para comenzar la tarea.",target4,stimuli/t4.jpg,82,5,stimuli/filler39.jpg,filler,False,None,,,,,,,,,,,,,,0,0,0,0,,,,,0,1,1,3,0,4,4,4,,,,,,,,,,,,,,,,,,,,,,,,,,,,,,,,,,,,,,,,,,,,,,,,,,,,,CS1_USneg,None,1,,,,,,,,,,,,,,,,,,19,f,82,n,2019_Dec_04_1332,ec_RRR,3.0.4,59.74630083560713,
Vadillo,"Para esta tarea, el personaje clave es Palpitoad:","De modo que siempre que veas a Palpitoad (su nombre o su imagen) en la pantalla, pulsa la barra espaciadora tan rápido como sea posible. Pulsa la barra espaciadora cuando veas una imagen de Palpitoad o la palabra PALPITOAD. 

Pulsa la barra espaciadora para comenzar la tarea.",target4,stimuli/t4.jpg,82,6,stimuli/filler7.jpg,filler,False,None,,,,,,,,,,,,,,0,0,0,0,,,,,0,1,1,3,0,5,5,5,,,,,,,,,,,,,,,,,,,,,,,,,,,,,,,,,,,,,,,,,,,,,,,,,,,,,CS1_USneg,None,1,,,,,,,,,,,,,,,,,,19,f,82,n,2019_Dec_04_1332,ec_RRR,3.0.4,59.74630083560713,
Vadillo,"Para esta tarea, el personaje clave es Palpitoad:","De modo que siempre que veas a Palpitoad (su nombre o su imagen) en la pantalla, pulsa la barra espaciadora tan rápido como sea posible. Pulsa la barra espaciadora cuando veas una imagen de Palpitoad o la palabra PALPITOAD. 

Pulsa la barra espaciadora para comenzar la tarea.",target4,stimuli/t4.jpg,82,7,stimuli/filler26.jpg,filler,False,None,,,,,,,,,,,,,,0,0,0,0,,,,,0,1,1,3,0,6,6,6,,,,,,,,,,,,,,,,,,,,,,,,,,,,,,,,,,,,,,,,,,,,,,,,,,,,,CS1_USneg,None,1,,,,,,,,,,,,,,,,,,19,f,82,n,2019_Dec_04_1332,ec_RRR,3.0.4,59.74630083560713,
Vadillo,"Para esta tarea, el personaje clave es Palpitoad:","De modo que siempre que veas a Palpitoad (su nombre o su imagen) en la pantalla, pulsa la barra espaciadora tan rápido como sea posible. Pulsa la barra espaciadora cuando veas una imagen de Palpitoad o la palabra PALPITOAD. 

Pulsa la barra espaciadora para comenzar la tarea.",target4,stimuli/t4.jpg,82,8,stimuli/filler45.jpg,filler,False,None,,,,,,,,,,,,,,0,0,0,0,,,,,0,1,1,3,0,7,7,7,,,,,,,,,,,,,,,,,,,,,,,,,,,,,,,,,,,,,,,,,,,,,,,,,,,,,CS1_USneg,None,1,,,,,,,,,,,,,,,,,,19,f,82,n,2019_Dec_04_1332,ec_RRR,3.0.4,59.74630083560713,
Vadillo,"Para esta tarea, el personaje clave es Palpitoad:","De modo que siempre que veas a Palpitoad (su nombre o su imagen) en la pantalla, pulsa la barra espaciadora tan rápido como sea posible. Pulsa la barra espaciadora cuando veas una imagen de Palpitoad o la palabra PALPITOAD. 

Pulsa la barra espaciadora para comenzar la tarea.",target4,stimuli/t4.jpg,82,9,stimuli/target4_1.jpg,target,True,space,,,,,,,,,,,,,,0,0,0,0,,,,,0,1,1,3,0,8,8,8,,,,,,,,,,,,,,,,,,,,,,,,,,,,,,,,,,,,,,,,,,,,,,,,,,,,,CS1_USneg,space,1,0.4541394179686904,,,,,,,,,,,,,,,,,19,f,82,n,2019_Dec_04_1332,ec_RRR,3.0.4,59.74630083560713,
Vadillo,"Para esta tarea, el personaje clave es Palpitoad:","De modo que siempre que veas a Palpitoad (su nombre o su imagen) en la pantalla, pulsa la barra espaciadora tan rápido como sea posible. Pulsa la barra espaciadora cuando veas una imagen de Palpitoad o la palabra PALPITOAD. 

Pulsa la barra espaciadora para comenzar la tarea.",target4,stimuli/t4.jpg,82,10,stimuli/blank.jpg,blank,False,None,,,,,,,,,,,,,,0,0,0,0,,,,,0,1,1,3,0,9,9,9,,,,,,,,,,,,,,,,,,,,,,,,,,,,,,,,,,,,,,,,,,,,,,,,,,,,,CS1_USneg,None,1,,,,,,,,,,,,,,,,,,19,f,82,n,2019_Dec_04_1332,ec_RRR,3.0.4,59.74630083560713,
Vadillo,"Para esta tarea, el personaje clave es Palpitoad:","De modo que siempre que veas a Palpitoad (su nombre o su imagen) en la pantalla, pulsa la barra espaciadora tan rápido como sea posible. Pulsa la barra espaciadora cuando veas una imagen de Palpitoad o la palabra PALPITOAD. 

Pulsa la barra espaciadora para comenzar la tarea.",target4,stimuli/t4.jpg,82,11,stimuli/cs1_neg1.jpg,CSUS,False,None,,,,,,,,,,,,,,0,0,0,0,,,,,0,1,1,3,0,10,10,10,,,,,,,,,,,,,,,,,,,,,,,,,,,,,,,,,,,,,,,,,,,,,,,,,,,,,CS1_USneg,None,1,,,,,,,,,,,,,,,,,,19,f,82,n,2019_Dec_04_1332,ec_RRR,3.0.4,59.74630083560713,
Vadillo,"Para esta tarea, el personaje clave es Palpitoad:","De modo que siempre que veas a Palpitoad (su nombre o su imagen) en la pantalla, pulsa la barra espaciadora tan rápido como sea posible. Pulsa la barra espaciadora cuando veas una imagen de Palpitoad o la palabra PALPITOAD. 

Pulsa la barra espaciadora para comenzar la tarea.",target4,stimuli/t4.jpg,82,12,stimuli/blank.jpg,blank,False,None,,,,,,,,,,,,,,0,0,0,0,,,,,0,1,1,3,0,11,11,11,,,,,,,,,,,,,,,,,,,,,,,,,,,,,,,,,,,,,,,,,,,,,,,,,,,,,CS1_USneg,None,1,,,,,,,,,,,,,,,,,,19,f,82,n,2019_Dec_04_1332,ec_RRR,3.0.4,59.74630083560713,
Vadillo,"Para esta tarea, el personaje clave es Palpitoad:","De modo que siempre que veas a Palpitoad (su nombre o su imagen) en la pantalla, pulsa la barra espaciadora tan rápido como sea posible. Pulsa la barra espaciadora cuando veas una imagen de Palpitoad o la palabra PALPITOAD. 

Pulsa la barra espaciadora para comenzar la tarea.",target4,stimuli/t4.jpg,82,13,stimuli/filler35.jpg,filler,False,None,,,,,,,,,,,,,,0,0,0,0,,,,,0,1,1,3,0,12,12,12,,,,,,,,,,,,,,,,,,,,,,,,,,,,,,,,,,,,,,,,,,,,,,,,,,,,,CS1_USneg,None,1,,,,,,,,,,,,,,,,,,19,f,82,n,2019_Dec_04_1332,ec_RRR,3.0.4,59.74630083560713,
Vadillo,"Para esta tarea, el personaje clave es Palpitoad:","De modo que siempre que veas a Palpitoad (su nombre o su imagen) en la pantalla, pulsa la barra espaciadora tan rápido como sea posible. Pulsa la barra espaciadora cuando veas una imagen de Palpitoad o la palabra PALPITOAD. 

Pulsa la barra espaciadora para comenzar la tarea.",target4,stimuli/t4.jpg,82,14,stimuli/filler48.jpg,filler,False,None,,,,,,,,,,,,,,0,0,0,0,,,,,0,1,1,3,0,13,13,13,,,,,,,,,,,,,,,,,,,,,,,,,,,,,,,,,,,,,,,,,,,,,,,,,,,,,CS1_USneg,None,1,,,,,,,,,,,,,,,,,,19,f,82,n,2019_Dec_04_1332,ec_RRR,3.0.4,59.74630083560713,
Vadillo,"Para esta tarea, el personaje clave es Palpitoad:","De modo que siempre que veas a Palpitoad (su nombre o su imagen) en la pantalla, pulsa la barra espaciadora tan rápido como sea posible. Pulsa la barra espaciadora cuando veas una imagen de Palpitoad o la palabra PALPITOAD. 

Pulsa la barra espaciadora para comenzar la tarea.",target4,stimuli/t4.jpg,82,15,stimuli/filler19.jpg,filler,False,None,,,,,,,,,,,,,,0,0,0,0,,,,,0,1,1,3,0,14,14,14,,,,,,,,,,,,,,,,,,,,,,,,,,,,,,,,,,,,,,,,,,,,,,,,,,,,,CS1_USneg,None,1,,,,,,,,,,,,,,,,,,19,f,82,n,2019_Dec_04_1332,ec_RRR,3.0.4,59.74630083560713,
Vadillo,"Para esta tarea, el personaje clave es Palpitoad:","De modo que siempre que veas a Palpitoad (su nombre o su imagen) en la pantalla, pulsa la barra espaciadora tan rápido como sea posible. Pulsa la barra espaciadora cuando veas una imagen de Palpitoad o la palabra PALPITOAD. 

Pulsa la barra espaciadora para comenzar la tarea.",target4,stimuli/t4.jpg,82,16,stimuli/filler38.jpg,filler,False,None,,,,,,,,,,,,,,0,0,0,0,,,,,0,1,1,3,0,15,15,15,,,,,,,,,,,,,,,,,,,,,,,,,,,,,,,,,,,,,,,,,,,,,,,,,,,,,CS1_USneg,None,1,,,,,,,,,,,,,,,,,,19,f,82,n,2019_Dec_04_1332,ec_RRR,3.0.4,59.74630083560713,
Vadillo,"Para esta tarea, el personaje clave es Palpitoad:","De modo que siempre que veas a Palpitoad (su nombre o su imagen) en la pantalla, pulsa la barra espaciadora tan rápido como sea posible. Pulsa la barra espaciadora cuando veas una imagen de Palpitoad o la palabra PALPITOAD. 

Pulsa la barra espaciadora para comenzar la tarea.",target4,stimuli/t4.jpg,82,17,stimuli/filler12.jpg,filler,False,None,,,,,,,,,,,,,,0,0,0,0,,,,,0,1,1,3,0,16,16,16,,,,,,,,,,,,,,,,,,,,,,,,,,,,,,,,,,,,,,,,,,,,,,,,,,,,,CS1_USneg,None,1,,,,,,,,,,,,,,,,,,19,f,82,n,2019_Dec_04_1332,ec_RRR,3.0.4,59.74630083560713,
Vadillo,"Para esta tarea, el personaje clave es Palpitoad:","De modo que siempre que veas a Palpitoad (su nombre o su imagen) en la pantalla, pulsa la barra espaciadora tan rápido como sea posible. Pulsa la barra espaciadora cuando veas una imagen de Palpitoad o la palabra PALPITOAD. 

Pulsa la barra espaciadora para comenzar la tarea.",target4,stimuli/t4.jpg,82,18,stimuli/filler5.jpg,filler,False,None,,,,,,,,,,,,,,0,0,0,0,,,,,0,1,1,3,0,17,17,17,,,,,,,,,,,,,,,,,,,,,,,,,,,,,,,,,,,,,,,,,,,,,,,,,,,,,CS1_USneg,None,1,,,,,,,,,,,,,,,,,,19,f,82,n,2019_Dec_04_1332,ec_RRR,3.0.4,59.74630083560713,
Vadillo,"Para esta tarea, el personaje clave es Palpitoad:","De modo que siempre que veas a Palpitoad (su nombre o su imagen) en la pantalla, pulsa la barra espaciadora tan rápido como sea posible. Pulsa la barra espaciadora cuando veas una imagen de Palpitoad o la palabra PALPITOAD. 

Pulsa la barra espaciadora para comenzar la tarea.",target4,stimuli/t4.jpg,82,19,stimuli/target4_7.jpg,target,True,space,,,,,,,,,,,,,,0,0,0,0,,,,,0,1,1,3,0,18,18,18,,,,,,,,,,,,,,,,,,,,,,,,,,,,,,,,,,,,,,,,,,,,,,,,,,,,,CS1_USneg,space,1,0.8709621513262391,,,,,,,,,,,,,,,,,19,f,82,n,2019_Dec_04_1332,ec_RRR,3.0.4,59.74630083560713,
Vadillo,"Para esta tarea, el personaje clave es Palpitoad:","De modo que siempre que veas a Palpitoad (su nombre o su imagen) en la pantalla, pulsa la barra espaciadora tan rápido como sea posible. Pulsa la barra espaciadora cuando veas una imagen de Palpitoad o la palabra PALPITOAD. 

Pulsa la barra espaciadora para comenzar la tarea.",target4,stimuli/t4.jpg,82,20,stimuli/blank.jpg,blank,False,None,,,,,,,,,,,,,,0,0,0,0,,,,,0,1,1,3,0,19,19,19,,,,,,,,,,,,,,,,,,,,,,,,,,,,,,,,,,,,,,,,,,,,,,,,,,,,,CS1_USneg,None,1,,,,,,,,,,,,,,,,,,19,f,82,n,2019_Dec_04_1332,ec_RRR,3.0.4,59.74630083560713,
Vadillo,"Para esta tarea, el personaje clave es Palpitoad:","De modo que siempre que veas a Palpitoad (su nombre o su imagen) en la pantalla, pulsa la barra espaciadora tan rápido como sea posible. Pulsa la barra espaciadora cuando veas una imagen de Palpitoad o la palabra PALPITOAD. 

Pulsa la barra espaciadora para comenzar la tarea.",target4,stimuli/t4.jpg,82,21,stimuli/cs2_pos14.jpg,CSUS,False,None,,,,,,,,,,,,,,0,0,0,0,,,,,0,1,1,3,0,20,20,20,,,,,,,,,,,,,,,,,,,,,,,,,,,,,,,,,,,,,,,,,,,,,,,,,,,,,CS1_USneg,None,1,,,,,,,,,,,,,,,,,,19,f,82,n,2019_Dec_04_1332,ec_RRR,3.0.4,59.74630083560713,
Vadillo,"Para esta tarea, el personaje clave es Palpitoad:","De modo que siempre que veas a Palpitoad (su nombre o su imagen) en la pantalla, pulsa la barra espaciadora tan rápido como sea posible. Pulsa la barra espaciadora cuando veas una imagen de Palpitoad o la palabra PALPITOAD. 

Pulsa la barra espaciadora para comenzar la tarea.",target4,stimuli/t4.jpg,82,22,stimuli/blank.jpg,blank,False,None,,,,,,,,,,,,,,0,0,0,0,,,,,0,1,1,3,0,21,21,21,,,,,,,,,,,,,,,,,,,,,,,,,,,,,,,,,,,,,,,,,,,,,,,,,,,,,CS1_USneg,None,1,,,,,,,,,,,,,,,,,,19,f,82,n,2019_Dec_04_1332,ec_RRR,3.0.4,59.74630083560713,
Vadillo,"Para esta tarea, el personaje clave es Palpitoad:","De modo que siempre que veas a Palpitoad (su nombre o su imagen) en la pantalla, pulsa la barra espaciadora tan rápido como sea posible. Pulsa la barra espaciadora cuando veas una imagen de Palpitoad o la palabra PALPITOAD. 

Pulsa la barra espaciadora para comenzar la tarea.",target4,stimuli/t4.jpg,82,23,stimuli/filler3.jpg,filler,False,None,,,,,,,,,,,,,,0,0,0,0,,,,,0,1,1,3,0,22,22,22,,,,,,,,,,,,,,,,,,,,,,,,,,,,,,,,,,,,,,,,,,,,,,,,,,,,,CS1_USneg,None,1,,,,,,,,,,,,,,,,,,19,f,82,n,2019_Dec_04_1332,ec_RRR,3.0.4,59.74630083560713,
Vadillo,"Para esta tarea, el personaje clave es Palpitoad:","De modo que siempre que veas a Palpitoad (su nombre o su imagen) en la pantalla, pulsa la barra espaciadora tan rápido como sea posible. Pulsa la barra espaciadora cuando veas una imagen de Palpitoad o la palabra PALPITOAD. 

Pulsa la barra espaciadora para comenzar la tarea.",target4,stimuli/t4.jpg,82,24,stimuli/filler11.jpg,filler,False,None,,,,,,,,,,,,,,0,0,0,0,,,,,0,1,1,3,0,23,23,23,,,,,,,,,,,,,,,,,,,,,,,,,,,,,,,,,,,,,,,,,,,,,,,,,,,,,CS1_USneg,None,1,,,,,,,,,,,,,,,,,,19,f,82,n,2019_Dec_04_1332,ec_RRR,3.0.4,59.74630083560713,
Vadillo,"Para esta tarea, el personaje clave es Palpitoad:","De modo que siempre que veas a Palpitoad (su nombre o su imagen) en la pantalla, pulsa la barra espaciadora tan rápido como sea posible. Pulsa la barra espaciadora cuando veas una imagen de Palpitoad o la palabra PALPITOAD. 

Pulsa la barra espaciadora para comenzar la tarea.",target4,stimuli/t4.jpg,82,25,stimuli/filler52.jpg,filler,False,None,,,,,,,,,,,,,,0,0,0,0,,,,,0,1,1,3,0,24,24,24,,,,,,,,,,,,,,,,,,,,,,,,,,,,,,,,,,,,,,,,,,,,,,,,,,,,,CS1_USneg,None,1,,,,,,,,,,,,,,,,,,19,f,82,n,2019_Dec_04_1332,ec_RRR,3.0.4,59.74630083560713,
Vadillo,"Para esta tarea, el personaje clave es Palpitoad:","De modo que siempre que veas a Palpitoad (su nombre o su imagen) en la pantalla, pulsa la barra espaciadora tan rápido como sea posible. Pulsa la barra espaciadora cuando veas una imagen de Palpitoad o la palabra PALPITOAD. 

Pulsa la barra espaciadora para comenzar la tarea.",target4,stimuli/t4.jpg,82,26,stimuli/target4_4.jpg,target,True,space,,,,,,,,,,,,,,0,0,0,0,,,,,0,1,1,3,0,25,25,25,,,,,,,,,,,,,,,,,,,,,,,,,,,,,,,,,,,,,,,,,,,,,,,,,,,,,CS1_USneg,space,1,0.6055553457699716,,,,,,,,,,,,,,,,,19,f,82,n,2019_Dec_04_1332,ec_RRR,3.0.4,59.74630083560713,
Vadillo,"Para esta tarea, el personaje clave es Palpitoad:","De modo que siempre que veas a Palpitoad (su nombre o su imagen) en la pantalla, pulsa la barra espaciadora tan rápido como sea posible. Pulsa la barra espaciadora cuando veas una imagen de Palpitoad o la palabra PALPITOAD. 

Pulsa la barra espaciadora para comenzar la tarea.",target4,stimuli/t4.jpg,82,27,stimuli/filler51.jpg,filler,False,None,,,,,,,,,,,,,,0,0,0,0,,,,,0,1,1,3,0,26,26,26,,,,,,,,,,,,,,,,,,,,,,,,,,,,,,,,,,,,,,,,,,,,,,,,,,,,,CS1_USneg,None,1,,,,,,,,,,,,,,,,,,19,f,82,n,2019_Dec_04_1332,ec_RRR,3.0.4,59.74630083560713,
Vadillo,"Para esta tarea, el personaje clave es Palpitoad:","De modo que siempre que veas a Palpitoad (su nombre o su imagen) en la pantalla, pulsa la barra espaciadora tan rápido como sea posible. Pulsa la barra espaciadora cuando veas una imagen de Palpitoad o la palabra PALPITOAD. 

Pulsa la barra espaciadora para comenzar la tarea.",target4,stimuli/t4.jpg,82,28,stimuli/filler22.jpg,filler,False,None,,,,,,,,,,,,,,0,0,0,0,,,,,0,1,1,3,0,27,27,27,,,,,,,,,,,,,,,,,,,,,,,,,,,,,,,,,,,,,,,,,,,,,,,,,,,,,CS1_USneg,None,1,,,,,,,,,,,,,,,,,,19,f,82,n,2019_Dec_04_1332,ec_RRR,3.0.4,59.74630083560713,
Vadillo,"Para esta tarea, el personaje clave es Palpitoad:","De modo que siempre que veas a Palpitoad (su nombre o su imagen) en la pantalla, pulsa la barra espaciadora tan rápido como sea posible. Pulsa la barra espaciadora cuando veas una imagen de Palpitoad o la palabra PALPITOAD. 

Pulsa la barra espaciadora para comenzar la tarea.",target4,stimuli/t4.jpg,82,29,stimuli/target4_10.jpg,target,True,space,,,,,,,,,,,,,,0,0,0,0,,,,,0,1,1,3,0,28,28,28,,,,,,,,,,,,,,,,,,,,,,,,,,,,,,,,,,,,,,,,,,,,,,,,,,,,,CS1_USneg,space,1,0.5209440272301435,,,,,,,,,,,,,,,,,19,f,82,n,2019_Dec_04_1332,ec_RRR,3.0.4,59.74630083560713,
Vadillo,"Para esta tarea, el personaje clave es Palpitoad:","De modo que siempre que veas a Palpitoad (su nombre o su imagen) en la pantalla, pulsa la barra espaciadora tan rápido como sea posible. Pulsa la barra espaciadora cuando veas una imagen de Palpitoad o la palabra PALPITOAD. 

Pulsa la barra espaciadora para comenzar la tarea.",target4,stimuli/t4.jpg,82,30,stimuli/blank.jpg,blank,False,None,,,,,,,,,,,,,,0,0,0,0,,,,,0,1,1,3,0,29,29,29,,,,,,,,,,,,,,,,,,,,,,,,,,,,,,,,,,,,,,,,,,,,,,,,,,,,,CS1_USneg,None,1,,,,,,,,,,,,,,,,,,19,f,82,n,2019_Dec_04_1332,ec_RRR,3.0.4,59.74630083560713,
Vadillo,"Para esta tarea, el personaje clave es Palpitoad:","De modo que siempre que veas a Palpitoad (su nombre o su imagen) en la pantalla, pulsa la barra espaciadora tan rápido como sea posible. Pulsa la barra espaciadora cuando veas una imagen de Palpitoad o la palabra PALPITOAD. 

Pulsa la barra espaciadora para comenzar la tarea.",target4,stimuli/t4.jpg,82,31,stimuli/cs1_neg15.jpg,CSUS,False,None,,,,,,,,,,,,,,0,0,0,0,,,,,0,1,1,3,0,30,30,30,,,,,,,,,,,,,,,,,,,,,,,,,,,,,,,,,,,,,,,,,,,,,,,,,,,,,CS1_USneg,None,1,,,,,,,,,,,,,,,,,,19,f,82,n,2019_Dec_04_1332,ec_RRR,3.0.4,59.74630083560713,
Vadillo,"Para esta tarea, el personaje clave es Palpitoad:","De modo que siempre que veas a Palpitoad (su nombre o su imagen) en la pantalla, pulsa la barra espaciadora tan rápido como sea posible. Pulsa la barra espaciadora cuando veas una imagen de Palpitoad o la palabra PALPITOAD. 

Pulsa la barra espaciadora para comenzar la tarea.",target4,stimuli/t4.jpg,82,32,stimuli/blank.jpg,blank,False,None,,,,,,,,,,,,,,0,0,0,0,,,,,0,1,1,3,0,31,31,31,,,,,,,,,,,,,,,,,,,,,,,,,,,,,,,,,,,,,,,,,,,,,,,,,,,,,CS1_USneg,None,1,,,,,,,,,,,,,,,,,,19,f,82,n,2019_Dec_04_1332,ec_RRR,3.0.4,59.74630083560713,
Vadillo,"Para esta tarea, el personaje clave es Palpitoad:","De modo que siempre que veas a Palpitoad (su nombre o su imagen) en la pantalla, pulsa la barra espaciadora tan rápido como sea posible. Pulsa la barra espaciadora cuando veas una imagen de Palpitoad o la palabra PALPITOAD. 

Pulsa la barra espaciadora para comenzar la tarea.",target4,stimuli/t4.jpg,82,33,stimuli/filler10.jpg,filler,False,None,,,,,,,,,,,,,,0,0,0,0,,,,,0,1,1,3,0,32,32,32,,,,,,,,,,,,,,,,,,,,,,,,,,,,,,,,,,,,,,,,,,,,,,,,,,,,,CS1_USneg,None,1,,,,,,,,,,,,,,,,,,19,f,82,n,2019_Dec_04_1332,ec_RRR,3.0.4,59.74630083560713,
Vadillo,"Para esta tarea, el personaje clave es Palpitoad:","De modo que siempre que veas a Palpitoad (su nombre o su imagen) en la pantalla, pulsa la barra espaciadora tan rápido como sea posible. Pulsa la barra espaciadora cuando veas una imagen de Palpitoad o la palabra PALPITOAD. 

Pulsa la barra espaciadora para comenzar la tarea.",target4,stimuli/t4.jpg,82,34,stimuli/filler23.jpg,filler,False,None,,,,,,,,,,,,,,0,0,0,0,,,,,0,1,1,3,0,33,33,33,,,,,,,,,,,,,,,,,,,,,,,,,,,,,,,,,,,,,,,,,,,,,,,,,,,,,CS1_USneg,None,1,,,,,,,,,,,,,,,,,,19,f,82,n,2019_Dec_04_1332,ec_RRR,3.0.4,59.74630083560713,
Vadillo,"Para esta tarea, el personaje clave es Palpitoad:","De modo que siempre que veas a Palpitoad (su nombre o su imagen) en la pantalla, pulsa la barra espaciadora tan rápido como sea posible. Pulsa la barra espaciadora cuando veas una imagen de Palpitoad o la palabra PALPITOAD. 

Pulsa la barra espaciadora para comenzar la tarea.",target4,stimuli/t4.jpg,82,35,stimuli/filler32.jpg,filler,False,None,,,,,,,,,,,,,,0,0,0,0,,,,,0,1,1,3,0,34,34,34,,,,,,,,,,,,,,,,,,,,,,,,,,,,,,,,,,,,,,,,,,,,,,,,,,,,,CS1_USneg,None,1,,,,,,,,,,,,,,,,,,19,f,82,n,2019_Dec_04_1332,ec_RRR,3.0.4,59.74630083560713,
Vadillo,"Para esta tarea, el personaje clave es Palpitoad:","De modo que siempre que veas a Palpitoad (su nombre o su imagen) en la pantalla, pulsa la barra espaciadora tan rápido como sea posible. Pulsa la barra espaciadora cuando veas una imagen de Palpitoad o la palabra PALPITOAD. 

Pulsa la barra espaciadora para comenzar la tarea.",target4,stimuli/t4.jpg,82,36,stimuli/filler30.jpg,filler,False,None,,,,,,,,,,,,,,0,0,0,0,,,,,0,1,1,3,0,35,35,35,,,,,,,,,,,,,,,,,,,,,,,,,,,,,,,,,,,,,,,,,,,,,,,,,,,,,CS1_USneg,None,1,,,,,,,,,,,,,,,,,,19,f,82,n,2019_Dec_04_1332,ec_RRR,3.0.4,59.74630083560713,
Vadillo,"Para esta tarea, el personaje clave es Palpitoad:","De modo que siempre que veas a Palpitoad (su nombre o su imagen) en la pantalla, pulsa la barra espaciadora tan rápido como sea posible. Pulsa la barra espaciadora cuando veas una imagen de Palpitoad o la palabra PALPITOAD. 

Pulsa la barra espaciadora para comenzar la tarea.",target4,stimuli/t4.jpg,82,37,stimuli/filler31.jpg,filler,False,None,,,,,,,,,,,,,,0,0,0,0,,,,,0,1,1,3,0,36,36,36,,,,,,,,,,,,,,,,,,,,,,,,,,,,,,,,,,,,,,,,,,,,,,,,,,,,,CS1_USneg,None,1,,,,,,,,,,,,,,,,,,19,f,82,n,2019_Dec_04_1332,ec_RRR,3.0.4,59.74630083560713,
Vadillo,"Para esta tarea, el personaje clave es Palpitoad:","De modo que siempre que veas a Palpitoad (su nombre o su imagen) en la pantalla, pulsa la barra espaciadora tan rápido como sea posible. Pulsa la barra espaciadora cuando veas una imagen de Palpitoad o la palabra PALPITOAD. 

Pulsa la barra espaciadora para comenzar la tarea.",target4,stimuli/t4.jpg,82,38,stimuli/filler36.jpg,filler,False,None,,,,,,,,,,,,,,0,0,0,0,,,,,0,1,1,3,0,37,37,37,,,,,,,,,,,,,,,,,,,,,,,,,,,,,,,,,,,,,,,,,,,,,,,,,,,,,CS1_USneg,None,1,,,,,,,,,,,,,,,,,,19,f,82,n,2019_Dec_04_1332,ec_RRR,3.0.4,59.74630083560713,
Vadillo,"Para esta tarea, el personaje clave es Palpitoad:","De modo que siempre que veas a Palpitoad (su nombre o su imagen) en la pantalla, pulsa la barra espaciadora tan rápido como sea posible. Pulsa la barra espaciadora cuando veas una imagen de Palpitoad o la palabra PALPITOAD. 

Pulsa la barra espaciadora para comenzar la tarea.",target4,stimuli/t4.jpg,82,39,stimuli/filler14.jpg,filler,False,None,,,,,,,,,,,,,,0,0,0,0,,,,,0,1,1,3,0,38,38,38,,,,,,,,,,,,,,,,,,,,,,,,,,,,,,,,,,,,,,,,,,,,,,,,,,,,,CS1_USneg,None,1,,,,,,,,,,,,,,,,,,19,f,82,n,2019_Dec_04_1332,ec_RRR,3.0.4,59.74630083560713,
Vadillo,"Para esta tarea, el personaje clave es Palpitoad:","De modo que siempre que veas a Palpitoad (su nombre o su imagen) en la pantalla, pulsa la barra espaciadora tan rápido como sea posible. Pulsa la barra espaciadora cuando veas una imagen de Palpitoad o la palabra PALPITOAD. 

Pulsa la barra espaciadora para comenzar la tarea.",target4,stimuli/t4.jpg,82,40,stimuli/blank.jpg,blank,False,None,,,,,,,,,,,,,,0,0,0,0,,,,,0,1,1,3,0,39,39,39,,,,,,,,,,,,,,,,,,,,,,,,,,,,,,,,,,,,,,,,,,,,,,,,,,,,,CS1_USneg,None,1,,,,,,,,,,,,,,,,,,19,f,82,n,2019_Dec_04_1332,ec_RRR,3.0.4,59.74630083560713,
Vadillo,"Para esta tarea, el personaje clave es Palpitoad:","De modo que siempre que veas a Palpitoad (su nombre o su imagen) en la pantalla, pulsa la barra espaciadora tan rápido como sea posible. Pulsa la barra espaciadora cuando veas una imagen de Palpitoad o la palabra PALPITOAD. 

Pulsa la barra espaciadora para comenzar la tarea.",target4,stimuli/t4.jpg,82,41,stimuli/cs2_pos19.jpg,CSUS,False,None,,,,,,,,,,,,,,0,0,0,0,,,,,0,1,1,3,0,40,40,40,,,,,,,,,,,,,,,,,,,,,,,,,,,,,,,,,,,,,,,,,,,,,,,,,,,,,CS1_USneg,None,1,,,,,,,,,,,,,,,,,,19,f,82,n,2019_Dec_04_1332,ec_RRR,3.0.4,59.74630083560713,
Vadillo,"Para esta tarea, el personaje clave es Palpitoad:","De modo que siempre que veas a Palpitoad (su nombre o su imagen) en la pantalla, pulsa la barra espaciadora tan rápido como sea posible. Pulsa la barra espaciadora cuando veas una imagen de Palpitoad o la palabra PALPITOAD. 

Pulsa la barra espaciadora para comenzar la tarea.",target4,stimuli/t4.jpg,82,42,stimuli/blank.jpg,blank,False,None,,,,,,,,,,,,,,0,0,0,0,,,,,0,1,1,3,0,41,41,41,,,,,,,,,,,,,,,,,,,,,,,,,,,,,,,,,,,,,,,,,,,,,,,,,,,,,CS1_USneg,None,1,,,,,,,,,,,,,,,,,,19,f,82,n,2019_Dec_04_1332,ec_RRR,3.0.4,59.74630083560713,
Vadillo,"Para esta tarea, el personaje clave es Palpitoad:","De modo que siempre que veas a Palpitoad (su nombre o su imagen) en la pantalla, pulsa la barra espaciadora tan rápido como sea posible. Pulsa la barra espaciadora cuando veas una imagen de Palpitoad o la palabra PALPITOAD. 

Pulsa la barra espaciadora para comenzar la tarea.",target4,stimuli/t4.jpg,82,43,stimuli/filler42.jpg,filler,False,None,,,,,,,,,,,,,,0,0,0,0,,,,,0,1,1,3,0,42,42,42,,,,,,,,,,,,,,,,,,,,,,,,,,,,,,,,,,,,,,,,,,,,,,,,,,,,,CS1_USneg,None,1,,,,,,,,,,,,,,,,,,19,f,82,n,2019_Dec_04_1332,ec_RRR,3.0.4,59.74630083560713,
Vadillo,"Para esta tarea, el personaje clave es Palpitoad:","De modo que siempre que veas a Palpitoad (su nombre o su imagen) en la pantalla, pulsa la barra espaciadora tan rápido como sea posible. Pulsa la barra espaciadora cuando veas una imagen de Palpitoad o la palabra PALPITOAD. 

Pulsa la barra espaciadora para comenzar la tarea.",target4,stimuli/t4.jpg,82,44,stimuli/filler17.jpg,filler,False,None,,,,,,,,,,,,,,0,0,0,0,,,,,0,1,1,3,0,43,43,43,,,,,,,,,,,,,,,,,,,,,,,,,,,,,,,,,,,,,,,,,,,,,,,,,,,,,CS1_USneg,None,1,,,,,,,,,,,,,,,,,,19,f,82,n,2019_Dec_04_1332,ec_RRR,3.0.4,59.74630083560713,
Vadillo,"Para esta tarea, el personaje clave es Palpitoad:","De modo que siempre que veas a Palpitoad (su nombre o su imagen) en la pantalla, pulsa la barra espaciadora tan rápido como sea posible. Pulsa la barra espaciadora cuando veas una imagen de Palpitoad o la palabra PALPITOAD. 

Pulsa la barra espaciadora para comenzar la tarea.",target4,stimuli/t4.jpg,82,45,stimuli/filler20.jpg,filler,False,None,,,,,,,,,,,,,,0,0,0,0,,,,,0,1,1,3,0,44,44,44,,,,,,,,,,,,,,,,,,,,,,,,,,,,,,,,,,,,,,,,,,,,,,,,,,,,,CS1_USneg,None,1,,,,,,,,,,,,,,,,,,19,f,82,n,2019_Dec_04_1332,ec_RRR,3.0.4,59.74630083560713,
Vadillo,"Para esta tarea, el personaje clave es Palpitoad:","De modo que siempre que veas a Palpitoad (su nombre o su imagen) en la pantalla, pulsa la barra espaciadora tan rápido como sea posible. Pulsa la barra espaciadora cuando veas una imagen de Palpitoad o la palabra PALPITOAD. 

Pulsa la barra espaciadora para comenzar la tarea.",target4,stimuli/t4.jpg,82,46,stimuli/filler25.jpg,filler,False,None,,,,,,,,,,,,,,0,0,0,0,,,,,0,1,1,3,0,45,45,45,,,,,,,,,,,,,,,,,,,,,,,,,,,,,,,,,,,,,,,,,,,,,,,,,,,,,CS1_USneg,None,1,,,,,,,,,,,,,,,,,,19,f,82,n,2019_Dec_04_1332,ec_RRR,3.0.4,59.74630083560713,
Vadillo,"Para esta tarea, el personaje clave es Palpitoad:","De modo que siempre que veas a Palpitoad (su nombre o su imagen) en la pantalla, pulsa la barra espaciadora tan rápido como sea posible. Pulsa la barra espaciadora cuando veas una imagen de Palpitoad o la palabra PALPITOAD. 

Pulsa la barra espaciadora para comenzar la tarea.",target4,stimuli/t4.jpg,82,47,stimuli/filler24.jpg,filler,False,None,,,,,,,,,,,,,,0,0,0,0,,,,,0,1,1,3,0,46,46,46,,,,,,,,,,,,,,,,,,,,,,,,,,,,,,,,,,,,,,,,,,,,,,,,,,,,,CS1_USneg,None,1,,,,,,,,,,,,,,,,,,19,f,82,n,2019_Dec_04_1332,ec_RRR,3.0.4,59.74630083560713,
Vadillo,"Para esta tarea, el personaje clave es Palpitoad:","De modo que siempre que veas a Palpitoad (su nombre o su imagen) en la pantalla, pulsa la barra espaciadora tan rápido como sea posible. Pulsa la barra espaciadora cuando veas una imagen de Palpitoad o la palabra PALPITOAD. 

Pulsa la barra espaciadora para comenzar la tarea.",target4,stimuli/t4.jpg,82,48,stimuli/filler4.jpg,filler,False,None,,,,,,,,,,,,,,0,0,0,0,,,,,0,1,1,3,0,47,47,47,,,,,,,,,,,,,,,,,,,,,,,,,,,,,,,,,,,,,,,,,,,,,,,,,,,,,CS1_USneg,None,1,,,,,,,,,,,,,,,,,,19,f,82,n,2019_Dec_04_1332,ec_RRR,3.0.4,59.74630083560713,
Vadillo,"Para esta tarea, el personaje clave es Palpitoad:","De modo que siempre que veas a Palpitoad (su nombre o su imagen) en la pantalla, pulsa la barra espaciadora tan rápido como sea posible. Pulsa la barra espaciadora cuando veas una imagen de Palpitoad o la palabra PALPITOAD. 

Pulsa la barra espaciadora para comenzar la tarea.",target4,stimuli/t4.jpg,82,49,stimuli/filler50.jpg,filler,False,None,,,,,,,,,,,,,,0,0,0,0,,,,,0,1,1,3,0,48,48,48,,,,,,,,,,,,,,,,,,,,,,,,,,,,,,,,,,,,,,,,,,,,,,,,,,,,,CS1_USneg,None,1,,,,,,,,,,,,,,,,,,19,f,82,n,2019_Dec_04_1332,ec_RRR,3.0.4,59.74630083560713,
Vadillo,"Para esta tarea, el personaje clave es Palpitoad:","De modo que siempre que veas a Palpitoad (su nombre o su imagen) en la pantalla, pulsa la barra espaciadora tan rápido como sea posible. Pulsa la barra espaciadora cuando veas una imagen de Palpitoad o la palabra PALPITOAD. 

Pulsa la barra espaciadora para comenzar la tarea.",target4,stimuli/t4.jpg,82,50,stimuli/blank.jpg,blank,False,None,,,,,,,,,,,,,,0,0,0,0,,,,,0,1,1,3,0,49,49,49,,,,,,,,,,,,,,,,,,,,,,,,,,,,,,,,,,,,,,,,,,,,,,,,,,,,,CS1_USneg,None,1,,,,,,,,,,,,,,,,,,19,f,82,n,2019_Dec_04_1332,ec_RRR,3.0.4,59.74630083560713,
Vadillo,"Para esta tarea, el personaje clave es Palpitoad:","De modo que siempre que veas a Palpitoad (su nombre o su imagen) en la pantalla, pulsa la barra espaciadora tan rápido como sea posible. Pulsa la barra espaciadora cuando veas una imagen de Palpitoad o la palabra PALPITOAD. 

Pulsa la barra espaciadora para comenzar la tarea.",target4,stimuli/t4.jpg,82,51,stimuli/cs1_neg2.jpg,CSUS,False,None,,,,,,,,,,,,,,0,0,0,0,,,,,0,1,1,3,0,50,50,50,,,,,,,,,,,,,,,,,,,,,,,,,,,,,,,,,,,,,,,,,,,,,,,,,,,,,CS1_USneg,None,1,,,,,,,,,,,,,,,,,,19,f,82,n,2019_Dec_04_1332,ec_RRR,3.0.4,59.74630083560713,
Vadillo,"Para esta tarea, el personaje clave es Palpitoad:","De modo que siempre que veas a Palpitoad (su nombre o su imagen) en la pantalla, pulsa la barra espaciadora tan rápido como sea posible. Pulsa la barra espaciadora cuando veas una imagen de Palpitoad o la palabra PALPITOAD. 

Pulsa la barra espaciadora para comenzar la tarea.",target4,stimuli/t4.jpg,82,52,stimuli/blank.jpg,blank,False,None,,,,,,,,,,,,,,0,0,0,0,,,,,0,1,1,3,0,51,51,51,,,,,,,,,,,,,,,,,,,,,,,,,,,,,,,,,,,,,,,,,,,,,,,,,,,,,CS1_USneg,None,1,,,,,,,,,,,,,,,,,,19,f,82,n,2019_Dec_04_1332,ec_RRR,3.0.4,59.74630083560713,
Vadillo,"Para esta tarea, el personaje clave es Palpitoad:","De modo que siempre que veas a Palpitoad (su nombre o su imagen) en la pantalla, pulsa la barra espaciadora tan rápido como sea posible. Pulsa la barra espaciadora cuando veas una imagen de Palpitoad o la palabra PALPITOAD. 

Pulsa la barra espaciadora para comenzar la tarea.",target4,stimuli/t4.jpg,82,53,stimuli/filler49.jpg,filler,False,None,,,,,,,,,,,,,,0,0,0,0,,,,,0,1,1,3,0,52,52,52,,,,,,,,,,,,,,,,,,,,,,,,,,,,,,,,,,,,,,,,,,,,,,,,,,,,,CS1_USneg,None,1,,,,,,,,,,,,,,,,,,19,f,82,n,2019_Dec_04_1332,ec_RRR,3.0.4,59.74630083560713,
Vadillo,"Para esta tarea, el personaje clave es Palpitoad:","De modo que siempre que veas a Palpitoad (su nombre o su imagen) en la pantalla, pulsa la barra espaciadora tan rápido como sea posible. Pulsa la barra espaciadora cuando veas una imagen de Palpitoad o la palabra PALPITOAD. 

Pulsa la barra espaciadora para comenzar la tarea.",target4,stimuli/t4.jpg,82,54,stimuli/filler9.jpg,filler,False,None,,,,,,,,,,,,,,0,0,0,0,,,,,0,1,1,3,0,53,53,53,,,,,,,,,,,,,,,,,,,,,,,,,,,,,,,,,,,,,,,,,,,,,,,,,,,,,CS1_USneg,None,1,,,,,,,,,,,,,,,,,,19,f,82,n,2019_Dec_04_1332,ec_RRR,3.0.4,59.74630083560713,
Vadillo,"Para esta tarea, el personaje clave es Palpitoad:","De modo que siempre que veas a Palpitoad (su nombre o su imagen) en la pantalla, pulsa la barra espaciadora tan rápido como sea posible. Pulsa la barra espaciadora cuando veas una imagen de Palpitoad o la palabra PALPITOAD. 

Pulsa la barra espaciadora para comenzar la tarea.",target4,stimuli/t4.jpg,82,55,stimuli/filler41.jpg,filler,False,None,,,,,,,,,,,,,,0,0,0,0,,,,,0,1,1,3,0,54,54,54,,,,,,,,,,,,,,,,,,,,,,,,,,,,,,,,,,,,,,,,,,,,,,,,,,,,,CS1_USneg,None,1,,,,,,,,,,,,,,,,,,19,f,82,n,2019_Dec_04_1332,ec_RRR,3.0.4,59.74630083560713,
Vadillo,"Para esta tarea, el personaje clave es Palpitoad:","De modo que siempre que veas a Palpitoad (su nombre o su imagen) en la pantalla, pulsa la barra espaciadora tan rápido como sea posible. Pulsa la barra espaciadora cuando veas una imagen de Palpitoad o la palabra PALPITOAD. 

Pulsa la barra espaciadora para comenzar la tarea.",target4,stimuli/t4.jpg,82,56,stimuli/target4_8.jpg,target,True,space,,,,,,,,,,,,,,0,0,0,0,,,,,0,1,1,3,0,55,55,55,,,,,,,,,,,,,,,,,,,,,,,,,,,,,,,,,,,,,,,,,,,,,,,,,,,,,CS1_USneg,space,1,0.45409373054280877,,,,,,,,,,,,,,,,,19,f,82,n,2019_Dec_04_1332,ec_RRR,3.0.4,59.74630083560713,
Vadillo,"Para esta tarea, el personaje clave es Palpitoad:","De modo que siempre que veas a Palpitoad (su nombre o su imagen) en la pantalla, pulsa la barra espaciadora tan rápido como sea posible. Pulsa la barra espaciadora cuando veas una imagen de Palpitoad o la palabra PALPITOAD. 

Pulsa la barra espaciadora para comenzar la tarea.",target4,stimuli/t4.jpg,82,57,stimuli/filler29.jpg,filler,False,None,,,,,,,,,,,,,,0,0,0,0,,,,,0,1,1,3,0,56,56,56,,,,,,,,,,,,,,,,,,,,,,,,,,,,,,,,,,,,,,,,,,,,,,,,,,,,,CS1_USneg,None,1,,,,,,,,,,,,,,,,,,19,f,82,n,2019_Dec_04_1332,ec_RRR,3.0.4,59.74630083560713,
Vadillo,"Para esta tarea, el personaje clave es Palpitoad:","De modo que siempre que veas a Palpitoad (su nombre o su imagen) en la pantalla, pulsa la barra espaciadora tan rápido como sea posible. Pulsa la barra espaciadora cuando veas una imagen de Palpitoad o la palabra PALPITOAD. 

Pulsa la barra espaciadora para comenzar la tarea.",target4,stimuli/t4.jpg,82,58,stimuli/filler18.jpg,filler,False,None,,,,,,,,,,,,,,0,0,0,0,,,,,0,1,1,3,0,57,57,57,,,,,,,,,,,,,,,,,,,,,,,,,,,,,,,,,,,,,,,,,,,,,,,,,,,,,CS1_USneg,None,1,,,,,,,,,,,,,,,,,,19,f,82,n,2019_Dec_04_1332,ec_RRR,3.0.4,59.74630083560713,
Vadillo,"Para esta tarea, el personaje clave es Palpitoad:","De modo que siempre que veas a Palpitoad (su nombre o su imagen) en la pantalla, pulsa la barra espaciadora tan rápido como sea posible. Pulsa la barra espaciadora cuando veas una imagen de Palpitoad o la palabra PALPITOAD. 

Pulsa la barra espaciadora para comenzar la tarea.",target4,stimuli/t4.jpg,82,59,stimuli/filler13.jpg,filler,False,None,,,,,,,,,,,,,,0,0,0,0,,,,,0,1,1,3,0,58,58,58,,,,,,,,,,,,,,,,,,,,,,,,,,,,,,,,,,,,,,,,,,,,,,,,,,,,,CS1_USneg,None,1,,,,,,,,,,,,,,,,,,19,f,82,n,2019_Dec_04_1332,ec_RRR,3.0.4,59.74630083560713,
Vadillo,"Para esta tarea, el personaje clave es Palpitoad:","De modo que siempre que veas a Palpitoad (su nombre o su imagen) en la pantalla, pulsa la barra espaciadora tan rápido como sea posible. Pulsa la barra espaciadora cuando veas una imagen de Palpitoad o la palabra PALPITOAD. 

Pulsa la barra espaciadora para comenzar la tarea.",target4,stimuli/t4.jpg,82,60,stimuli/blank.jpg,blank,False,None,,,,,,,,,,,,,,0,0,0,0,,,,,0,1,1,3,0,59,59,59,,,,,,,,,,,,,,,,,,,,,,,,,,,,,,,,,,,,,,,,,,,,,,,,,,,,,CS1_USneg,None,1,,,,,,,,,,,,,,,,,,19,f,82,n,2019_Dec_04_1332,ec_RRR,3.0.4,59.74630083560713,
Vadillo,"Para esta tarea, el personaje clave es Palpitoad:","De modo que siempre que veas a Palpitoad (su nombre o su imagen) en la pantalla, pulsa la barra espaciadora tan rápido como sea posible. Pulsa la barra espaciadora cuando veas una imagen de Palpitoad o la palabra PALPITOAD. 

Pulsa la barra espaciadora para comenzar la tarea.",target4,stimuli/t4.jpg,82,61,stimuli/cs2_pos9.jpg,CSUS,False,None,,,,,,,,,,,,,,0,0,0,0,,,,,0,1,1,3,0,60,60,60,,,,,,,,,,,,,,,,,,,,,,,,,,,,,,,,,,,,,,,,,,,,,,,,,,,,,CS1_USneg,None,1,,,,,,,,,,,,,,,,,,19,f,82,n,2019_Dec_04_1332,ec_RRR,3.0.4,59.74630083560713,
Vadillo,"Para esta tarea, el personaje clave es Palpitoad:","De modo que siempre que veas a Palpitoad (su nombre o su imagen) en la pantalla, pulsa la barra espaciadora tan rápido como sea posible. Pulsa la barra espaciadora cuando veas una imagen de Palpitoad o la palabra PALPITOAD. 

Pulsa la barra espaciadora para comenzar la tarea.",target4,stimuli/t4.jpg,82,62,stimuli/blank.jpg,blank,False,None,,,,,,,,,,,,,,0,0,0,0,,,,,0,1,1,3,0,61,61,61,,,,,,,,,,,,,,,,,,,,,,,,,,,,,,,,,,,,,,,,,,,,,,,,,,,,,CS1_USneg,None,1,,,,,,,,,,,,,,,,,,19,f,82,n,2019_Dec_04_1332,ec_RRR,3.0.4,59.74630083560713,
Vadillo,"Para esta tarea, el personaje clave es Palpitoad:","De modo que siempre que veas a Palpitoad (su nombre o su imagen) en la pantalla, pulsa la barra espaciadora tan rápido como sea posible. Pulsa la barra espaciadora cuando veas una imagen de Palpitoad o la palabra PALPITOAD. 

Pulsa la barra espaciadora para comenzar la tarea.",target4,stimuli/t4.jpg,82,63,stimuli/filler28.jpg,filler,False,None,,,,,,,,,,,,,,0,0,0,0,,,,,0,1,1,3,0,62,62,62,,,,,,,,,,,,,,,,,,,,,,,,,,,,,,,,,,,,,,,,,,,,,,,,,,,,,CS1_USneg,None,1,,,,,,,,,,,,,,,,,,19,f,82,n,2019_Dec_04_1332,ec_RRR,3.0.4,59.74630083560713,
Vadillo,"Para esta tarea, el personaje clave es Palpitoad:","De modo que siempre que veas a Palpitoad (su nombre o su imagen) en la pantalla, pulsa la barra espaciadora tan rápido como sea posible. Pulsa la barra espaciadora cuando veas una imagen de Palpitoad o la palabra PALPITOAD. 

Pulsa la barra espaciadora para comenzar la tarea.",target4,stimuli/t4.jpg,82,64,stimuli/filler43.jpg,filler,False,None,,,,,,,,,,,,,,0,0,0,0,,,,,0,1,1,3,0,63,63,63,,,,,,,,,,,,,,,,,,,,,,,,,,,,,,,,,,,,,,,,,,,,,,,,,,,,,CS1_USneg,None,1,,,,,,,,,,,,,,,,,,19,f,82,n,2019_Dec_04_1332,ec_RRR,3.0.4,59.74630083560713,
Vadillo,"Para esta tarea, el personaje clave es Palpitoad:","De modo que siempre que veas a Palpitoad (su nombre o su imagen) en la pantalla, pulsa la barra espaciadora tan rápido como sea posible. Pulsa la barra espaciadora cuando veas una imagen de Palpitoad o la palabra PALPITOAD. 

Pulsa la barra espaciadora para comenzar la tarea.",target4,stimuli/t4.jpg,82,65,stimuli/filler8.jpg,filler,False,None,,,,,,,,,,,,,,0,0,0,0,,,,,0,1,1,3,0,64,64,64,,,,,,,,,,,,,,,,,,,,,,,,,,,,,,,,,,,,,,,,,,,,,,,,,,,,,CS1_USneg,None,1,,,,,,,,,,,,,,,,,,19,f,82,n,2019_Dec_04_1332,ec_RRR,3.0.4,59.74630083560713,
Vadillo,"Para esta tarea, el personaje clave es Palpitoad:","De modo que siempre que veas a Palpitoad (su nombre o su imagen) en la pantalla, pulsa la barra espaciadora tan rápido como sea posible. Pulsa la barra espaciadora cuando veas una imagen de Palpitoad o la palabra PALPITOAD. 

Pulsa la barra espaciadora para comenzar la tarea.",target4,stimuli/t4.jpg,82,66,stimuli/filler6.jpg,filler,False,None,,,,,,,,,,,,,,0,0,0,0,,,,,0,1,1,3,0,65,65,65,,,,,,,,,,,,,,,,,,,,,,,,,,,,,,,,,,,,,,,,,,,,,,,,,,,,,CS1_USneg,None,1,,,,,,,,,,,,,,,,,,19,f,82,n,2019_Dec_04_1332,ec_RRR,3.0.4,59.74630083560713,
Vadillo,"Para esta tarea, el personaje clave es Palpitoad:","De modo que siempre que veas a Palpitoad (su nombre o su imagen) en la pantalla, pulsa la barra espaciadora tan rápido como sea posible. Pulsa la barra espaciadora cuando veas una imagen de Palpitoad o la palabra PALPITOAD. 

Pulsa la barra espaciadora para comenzar la tarea.",target4,stimuli/t4.jpg,82,67,stimuli/target4_3.jpg,target,True,space,,,,,,,,,,,,,,0,0,0,0,,,,,0,1,1,3,0,66,66,66,,,,,,,,,,,,,,,,,,,,,,,,,,,,,,,,,,,,,,,,,,,,,,,,,,,,,CS1_USneg,space,1,0.7055610092356801,,,,,,,,,,,,,,,,,19,f,82,n,2019_Dec_04_1332,ec_RRR,3.0.4,59.74630083560713,
Vadillo,"Para esta tarea, el personaje clave es Palpitoad:","De modo que siempre que veas a Palpitoad (su nombre o su imagen) en la pantalla, pulsa la barra espaciadora tan rápido como sea posible. Pulsa la barra espaciadora cuando veas una imagen de Palpitoad o la palabra PALPITOAD. 

Pulsa la barra espaciadora para comenzar la tarea.",target4,stimuli/t4.jpg,82,68,stimuli/target4_6.jpg,target,True,space,,,,,,,,,,,,,,0,0,0,0,,,,,0,1,1,3,0,67,67,67,,,,,,,,,,,,,,,,,,,,,,,,,,,,,,,,,,,,,,,,,,,,,,,,,,,,,CS1_USneg,space,1,1.1063259881921113,,,,,,,,,,,,,,,,,19,f,82,n,2019_Dec_04_1332,ec_RRR,3.0.4,59.74630083560713,
Vadillo,"Para esta tarea, el personaje clave es Palpitoad:","De modo que siempre que veas a Palpitoad (su nombre o su imagen) en la pantalla, pulsa la barra espaciadora tan rápido como sea posible. Pulsa la barra espaciadora cuando veas una imagen de Palpitoad o la palabra PALPITOAD. 

Pulsa la barra espaciadora para comenzar la tarea.",target4,stimuli/t4.jpg,82,69,stimuli/filler44.jpg,filler,False,None,,,,,,,,,,,,,,0,0,0,0,,,,,0,1,1,3,0,68,68,68,,,,,,,,,,,,,,,,,,,,,,,,,,,,,,,,,,,,,,,,,,,,,,,,,,,,,CS1_USneg,None,1,,,,,,,,,,,,,,,,,,19,f,82,n,2019_Dec_04_1332,ec_RRR,3.0.4,59.74630083560713,
Vadillo,"Para esta tarea, el personaje clave es Palpitoad:","De modo que siempre que veas a Palpitoad (su nombre o su imagen) en la pantalla, pulsa la barra espaciadora tan rápido como sea posible. Pulsa la barra espaciadora cuando veas una imagen de Palpitoad o la palabra PALPITOAD. 

Pulsa la barra espaciadora para comenzar la tarea.",target4,stimuli/t4.jpg,82,70,stimuli/blank.jpg,blank,False,None,,,,,,,,,,,,,,0,0,0,0,,,,,0,1,1,3,0,69,69,69,,,,,,,,,,,,,,,,,,,,,,,,,,,,,,,,,,,,,,,,,,,,,,,,,,,,,CS1_USneg,None,1,,,,,,,,,,,,,,,,,,19,f,82,n,2019_Dec_04_1332,ec_RRR,3.0.4,59.74630083560713,
Vadillo,"Para esta tarea, el personaje clave es Palpitoad:","De modo que siempre que veas a Palpitoad (su nombre o su imagen) en la pantalla, pulsa la barra espaciadora tan rápido como sea posible. Pulsa la barra espaciadora cuando veas una imagen de Palpitoad o la palabra PALPITOAD. 

Pulsa la barra espaciadora para comenzar la tarea.",target4,stimuli/t4.jpg,82,71,stimuli/cs1_neg8.jpg,CSUS,False,None,,,,,,,,,,,,,,0,0,0,0,,,,,0,1,1,3,0,70,70,70,,,,,,,,,,,,,,,,,,,,,,,,,,,,,,,,,,,,,,,,,,,,,,,,,,,,,CS1_USneg,None,1,,,,,,,,,,,,,,,,,,19,f,82,n,2019_Dec_04_1332,ec_RRR,3.0.4,59.74630083560713,
Vadillo,"Para esta tarea, el personaje clave es Palpitoad:","De modo que siempre que veas a Palpitoad (su nombre o su imagen) en la pantalla, pulsa la barra espaciadora tan rápido como sea posible. Pulsa la barra espaciadora cuando veas una imagen de Palpitoad o la palabra PALPITOAD. 

Pulsa la barra espaciadora para comenzar la tarea.",target4,stimuli/t4.jpg,82,72,stimuli/blank.jpg,blank,False,None,,,,,,,,,,,,,,0,0,0,0,,,,,0,1,1,3,0,71,71,71,,,,,,,,,,,,,,,,,,,,,,,,,,,,,,,,,,,,,,,,,,,,,,,,,,,,,CS1_USneg,None,1,,,,,,,,,,,,,,,,,,19,f,82,n,2019_Dec_04_1332,ec_RRR,3.0.4,59.74630083560713,
Vadillo,"Para esta tarea, el personaje clave es Palpitoad:","De modo que siempre que veas a Palpitoad (su nombre o su imagen) en la pantalla, pulsa la barra espaciadora tan rápido como sea posible. Pulsa la barra espaciadora cuando veas una imagen de Palpitoad o la palabra PALPITOAD. 

Pulsa la barra espaciadora para comenzar la tarea.",target4,stimuli/t4.jpg,82,73,stimuli/target4_9.jpg,target,True,space,,,,,,,,,,,,,,0,0,0,0,,,,,0,1,1,3,0,72,72,72,,,,,,,,,,,,,,,,,,,,,,,,,,,,,,,,,,,,,,,,,,,,,,,,,,,,,CS1_USneg,space,1,0.6550021898001432,,,,,,,,,,,,,,,,,19,f,82,n,2019_Dec_04_1332,ec_RRR,3.0.4,59.74630083560713,
Vadillo,"Para esta tarea, el personaje clave es Palpitoad:","De modo que siempre que veas a Palpitoad (su nombre o su imagen) en la pantalla, pulsa la barra espaciadora tan rápido como sea posible. Pulsa la barra espaciadora cuando veas una imagen de Palpitoad o la palabra PALPITOAD. 

Pulsa la barra espaciadora para comenzar la tarea.",target4,stimuli/t4.jpg,82,74,stimuli/filler46.jpg,filler,False,None,,,,,,,,,,,,,,0,0,0,0,,,,,0,1,1,3,0,73,73,73,,,,,,,,,,,,,,,,,,,,,,,,,,,,,,,,,,,,,,,,,,,,,,,,,,,,,CS1_USneg,None,1,,,,,,,,,,,,,,,,,,19,f,82,n,2019_Dec_04_1332,ec_RRR,3.0.4,59.74630083560713,
Vadillo,"Para esta tarea, el personaje clave es Palpitoad:","De modo que siempre que veas a Palpitoad (su nombre o su imagen) en la pantalla, pulsa la barra espaciadora tan rápido como sea posible. Pulsa la barra espaciadora cuando veas una imagen de Palpitoad o la palabra PALPITOAD. 

Pulsa la barra espaciadora para comenzar la tarea.",target4,stimuli/t4.jpg,82,75,stimuli/target4_5.jpg,target,True,space,,,,,,,,,,,,,,0,0,0,0,,,,,0,1,1,3,0,74,74,74,,,,,,,,,,,,,,,,,,,,,,,,,,,,,,,,,,,,,,,,,,,,,,,,,,,,,CS1_USneg,space,1,0.4868511273525655,,,,,,,,,,,,,,,,,19,f,82,n,2019_Dec_04_1332,ec_RRR,3.0.4,59.74630083560713,
Vadillo,"Para esta tarea, el personaje clave es Palpitoad:","De modo que siempre que veas a Palpitoad (su nombre o su imagen) en la pantalla, pulsa la barra espaciadora tan rápido como sea posible. Pulsa la barra espaciadora cuando veas una imagen de Palpitoad o la palabra PALPITOAD. 

Pulsa la barra espaciadora para comenzar la tarea.",target4,stimuli/t4.jpg,82,76,stimuli/filler1.jpg,filler,False,None,,,,,,,,,,,,,,0,0,0,0,,,,,0,1,1,3,0,75,75,75,,,,,,,,,,,,,,,,,,,,,,,,,,,,,,,,,,,,,,,,,,,,,,,,,,,,,CS1_USneg,None,1,,,,,,,,,,,,,,,,,,19,f,82,n,2019_Dec_04_1332,ec_RRR,3.0.4,59.74630083560713,
Vadillo,"Para esta tarea, el personaje clave es Palpitoad:","De modo que siempre que veas a Palpitoad (su nombre o su imagen) en la pantalla, pulsa la barra espaciadora tan rápido como sea posible. Pulsa la barra espaciadora cuando veas una imagen de Palpitoad o la palabra PALPITOAD. 

Pulsa la barra espaciadora para comenzar la tarea.",target4,stimuli/t4.jpg,82,77,stimuli/filler27.jpg,filler,False,None,,,,,,,,,,,,,,0,0,0,0,,,,,0,1,1,3,0,76,76,76,,,,,,,,,,,,,,,,,,,,,,,,,,,,,,,,,,,,,,,,,,,,,,,,,,,,,CS1_USneg,None,1,,,,,,,,,,,,,,,,,,19,f,82,n,2019_Dec_04_1332,ec_RRR,3.0.4,59.74630083560713,
Vadillo,"Para esta tarea, el personaje clave es Palpitoad:","De modo que siempre que veas a Palpitoad (su nombre o su imagen) en la pantalla, pulsa la barra espaciadora tan rápido como sea posible. Pulsa la barra espaciadora cuando veas una imagen de Palpitoad o la palabra PALPITOAD. 

