data_collection_site,instructions_text_top,instructions_text_bottom,block_id,example_image,participant,trial_number,stimulus,trial_type,target_trial,surveillance_correct_response,filler_1_items,filler_2_items,middle_text,left_text,right_text,evaluation_stimulus,left_stimulus,right_stimulus,evaluation_response_indicating_CS1_preferred,awareness_1_question_text,awareness_2a_question_text,awareness_2b_question_text,awareness_2_question_text,record_data_collection_site_variable.thisRepN,record_data_collection_site_variable.thisTrialN,record_data_collection_site_variable.thisN,record_data_collection_site_variable.thisIndex,surveillance_instructions_loop.thisRepN,surveillance_instructions_loop.thisTrialN,surveillance_instructions_loop.thisN,surveillance_instructions_loop.thisIndex,surveillance_blocks_loop.thisRepN,surveillance_blocks_loop.thisTrialN,surveillance_blocks_loop.thisN,surveillance_blocks_loop.thisIndex,surveillance_trials_loop.thisRepN,surveillance_trials_loop.thisTrialN,surveillance_trials_loop.thisN,surveillance_trials_loop.thisIndex,filler_1_instructions_loop.thisRepN,filler_1_instructions_loop.thisTrialN,filler_1_instructions_loop.thisN,filler_1_instructions_loop.thisIndex,filler_1_loop.thisRepN,filler_1_loop.thisTrialN,filler_1_loop.thisN,filler_1_loop.thisIndex,filler_2_instructions_loop.thisRepN,filler_2_instructions_loop.thisTrialN,filler_2_instructions_loop.thisN,filler_2_instructions_loop.thisIndex,filler_2_loop.thisRepN,filler_2_loop.thisTrialN,filler_2_loop.thisN,filler_2_loop.thisIndex,evaluation_instructions_loop.thisRepN,evaluation_instructions_loop.thisTrialN,evaluation_instructions_loop.thisN,evaluation_instructions_loop.thisIndex,evaluation_loop.thisRepN,evaluation_loop.thisTrialN,evaluation_loop.thisN,evaluation_loop.thisIndex,evaluation_trials.thisRepN,evaluation_trials.thisTrialN,evaluation_trials.thisN,evaluation_trials.thisIndex,awareness_instructions_loop.thisRepN,awareness_instructions_loop.thisTrialN,awareness_instructions_loop.thisN,awareness_instructions_loop.thisIndex,awareness_1_trials_loop.thisRepN,awareness_1_trials_loop.thisTrialN,awareness_1_trials_loop.thisN,awareness_1_trials_loop.thisIndex,awareness_2a_trials_loop.thisRepN,awareness_2a_trials_loop.thisTrialN,awareness_2a_trials_loop.thisN,awareness_2a_trials_loop.thisIndex,awareness_2b_trials_loop.thisRepN,awareness_2b_trials_loop.thisTrialN,awareness_2b_trials_loop.thisN,awareness_2b_trials_loop.thisIndex,awareness_2c_trials_loop.thisRepN,awareness_2c_trials_loop.thisTrialN,awareness_2c_trials_loop.thisN,awareness_2c_trials_loop.thisIndex,end_message_loop.thisRepN,end_message_loop.thisTrialN,end_message_loop.thisN,end_message_loop.thisIndex,condition,surveillance_response.keys,surveillance_response.corr,surveillance_response.rt,filler_1_rating.response,filler_1_rating.rt,filler_2_rating.response,filler_2_rating.rt,evaluation_response.keys,evaluation_response.corr,evaluation_response.rt,inputText,awareness_1_response.keys,awareness_1_response.rt,awareness_type_2a_rating.response,awareness_type_2a_rating.rt,awareness_type_2b_rating.response,awareness_type_2b_rating.rt,awareness_type_2c_rating.response,awareness_type_2c_rating.rt,age,gender,participant,UseMonkey,date,expName,psychopyVersion,frameRate,
Moran Hussey and Hughes,De target figuur voor deze taak is Shelmet:,"Dus wanneer Shelmet (zijn naam of foto) verschijnt op het scherm, druk dan zo snel mogelijk op de spatiebalk. Druk op de spatiebalk telkens wanneer je een foto van Shelmet of het woord SHELMET ziet. 

Druk op de spatiebalk om de taak te starten.
",target3,stimuli/t3.jpg,12,1,stimuli/filler9.jpg,filler,False,None,,,,,,,,,,,,,,0,0,0,0,,,,,0,0,0,2,0,0,0,0,,,,,,,,,,,,,,,,,,,,,,,,,,,,,,,,,,,,,,,,,,,,,,,,,,,,,CS1_USpos,None,1,,,,,,,,,,,,,,,,,,22,f,12,n,2019_Oct_21_1112,ec_RRR,3.0.4,59.9071767980848,
Moran Hussey and Hughes,De target figuur voor deze taak is Shelmet:,"Dus wanneer Shelmet (zijn naam of foto) verschijnt op het scherm, druk dan zo snel mogelijk op de spatiebalk. Druk op de spatiebalk telkens wanneer je een foto van Shelmet of het woord SHELMET ziet. 

Druk op de spatiebalk om de taak te starten.
",target3,stimuli/t3.jpg,12,2,stimuli/filler10.jpg,filler,False,None,,,,,,,,,,,,,,0,0,0,0,,,,,0,0,0,2,0,1,1,1,,,,,,,,,,,,,,,,,,,,,,,,,,,,,,,,,,,,,,,,,,,,,,,,,,,,,CS1_USpos,None,1,,,,,,,,,,,,,,,,,,22,f,12,n,2019_Oct_21_1112,ec_RRR,3.0.4,59.9071767980848,
Moran Hussey and Hughes,De target figuur voor deze taak is Shelmet:,"Dus wanneer Shelmet (zijn naam of foto) verschijnt op het scherm, druk dan zo snel mogelijk op de spatiebalk. Druk op de spatiebalk telkens wanneer je een foto van Shelmet of het woord SHELMET ziet. 

Druk op de spatiebalk om de taak te starten.
",target3,stimuli/t3.jpg,12,3,stimuli/filler11.jpg,filler,False,None,,,,,,,,,,,,,,0,0,0,0,,,,,0,0,0,2,0,2,2,2,,,,,,,,,,,,,,,,,,,,,,,,,,,,,,,,,,,,,,,,,,,,,,,,,,,,,CS1_USpos,None,1,,,,,,,,,,,,,,,,,,22,f,12,n,2019_Oct_21_1112,ec_RRR,3.0.4,59.9071767980848,
Moran Hussey and Hughes,De target figuur voor deze taak is Shelmet:,"Dus wanneer Shelmet (zijn naam of foto) verschijnt op het scherm, druk dan zo snel mogelijk op de spatiebalk. Druk op de spatiebalk telkens wanneer je een foto van Shelmet of het woord SHELMET ziet. 

Druk op de spatiebalk om de taak te starten.
",target3,stimuli/t3.jpg,12,4,stimuli/filler50.jpg,filler,False,None,,,,,,,,,,,,,,0,0,0,0,,,,,0,0,0,2,0,3,3,3,,,,,,,,,,,,,,,,,,,,,,,,,,,,,,,,,,,,,,,,,,,,,,,,,,,,,CS1_USpos,None,1,,,,,,,,,,,,,,,,,,22,f,12,n,2019_Oct_21_1112,ec_RRR,3.0.4,59.9071767980848,
Moran Hussey and Hughes,De target figuur voor deze taak is Shelmet:,"Dus wanneer Shelmet (zijn naam of foto) verschijnt op het scherm, druk dan zo snel mogelijk op de spatiebalk. Druk op de spatiebalk telkens wanneer je een foto van Shelmet of het woord SHELMET ziet. 

Druk op de spatiebalk om de taak te starten.
",target3,stimuli/t3.jpg,12,5,stimuli/target3_2.jpg,target,True,space,,,,,,,,,,,,,,0,0,0,0,,,,,0,0,0,2,0,4,4,4,,,,,,,,,,,,,,,,,,,,,,,,,,,,,,,,,,,,,,,,,,,,,,,,,,,,,CS1_USpos,space,1,0.3881745162361767,,,,,,,,,,,,,,,,,22,f,12,n,2019_Oct_21_1112,ec_RRR,3.0.4,59.9071767980848,
Moran Hussey and Hughes,De target figuur voor deze taak is Shelmet:,"Dus wanneer Shelmet (zijn naam of foto) verschijnt op het scherm, druk dan zo snel mogelijk op de spatiebalk. Druk op de spatiebalk telkens wanneer je een foto van Shelmet of het woord SHELMET ziet. 

Druk op de spatiebalk om de taak te starten.
",target3,stimuli/t3.jpg,12,6,stimuli/filler16.jpg,filler,False,None,,,,,,,,,,,,,,0,0,0,0,,,,,0,0,0,2,0,5,5,5,,,,,,,,,,,,,,,,,,,,,,,,,,,,,,,,,,,,,,,,,,,,,,,,,,,,,CS1_USpos,None,1,,,,,,,,,,,,,,,,,,22,f,12,n,2019_Oct_21_1112,ec_RRR,3.0.4,59.9071767980848,
Moran Hussey and Hughes,De target figuur voor deze taak is Shelmet:,"Dus wanneer Shelmet (zijn naam of foto) verschijnt op het scherm, druk dan zo snel mogelijk op de spatiebalk. Druk op de spatiebalk telkens wanneer je een foto van Shelmet of het woord SHELMET ziet. 

Druk op de spatiebalk om de taak te starten.
",target3,stimuli/t3.jpg,12,7,stimuli/filler20.jpg,filler,False,None,,,,,,,,,,,,,,0,0,0,0,,,,,0,0,0,2,0,6,6,6,,,,,,,,,,,,,,,,,,,,,,,,,,,,,,,,,,,,,,,,,,,,,,,,,,,,,CS1_USpos,None,1,,,,,,,,,,,,,,,,,,22,f,12,n,2019_Oct_21_1112,ec_RRR,3.0.4,59.9071767980848,
Moran Hussey and Hughes,De target figuur voor deze taak is Shelmet:,"Dus wanneer Shelmet (zijn naam of foto) verschijnt op het scherm, druk dan zo snel mogelijk op de spatiebalk. Druk op de spatiebalk telkens wanneer je een foto van Shelmet of het woord SHELMET ziet. 

Druk op de spatiebalk om de taak te starten.
",target3,stimuli/t3.jpg,12,8,stimuli/filler13.jpg,filler,False,None,,,,,,,,,,,,,,0,0,0,0,,,,,0,0,0,2,0,7,7,7,,,,,,,,,,,,,,,,,,,,,,,,,,,,,,,,,,,,,,,,,,,,,,,,,,,,,CS1_USpos,None,1,,,,,,,,,,,,,,,,,,22,f,12,n,2019_Oct_21_1112,ec_RRR,3.0.4,59.9071767980848,
Moran Hussey and Hughes,De target figuur voor deze taak is Shelmet:,"Dus wanneer Shelmet (zijn naam of foto) verschijnt op het scherm, druk dan zo snel mogelijk op de spatiebalk. Druk op de spatiebalk telkens wanneer je een foto van Shelmet of het woord SHELMET ziet. 

Druk op de spatiebalk om de taak te starten.
",target3,stimuli/t3.jpg,12,9,stimuli/filler8.jpg,filler,False,None,,,,,,,,,,,,,,0,0,0,0,,,,,0,0,0,2,0,8,8,8,,,,,,,,,,,,,,,,,,,,,,,,,,,,,,,,,,,,,,,,,,,,,,,,,,,,,CS1_USpos,None,1,,,,,,,,,,,,,,,,,,22,f,12,n,2019_Oct_21_1112,ec_RRR,3.0.4,59.9071767980848,
Moran Hussey and Hughes,De target figuur voor deze taak is Shelmet:,"Dus wanneer Shelmet (zijn naam of foto) verschijnt op het scherm, druk dan zo snel mogelijk op de spatiebalk. Druk op de spatiebalk telkens wanneer je een foto van Shelmet of het woord SHELMET ziet. 

Druk op de spatiebalk om de taak te starten.
",target3,stimuli/t3.jpg,12,10,stimuli/blank.jpg,blank,False,None,,,,,,,,,,,,,,0,0,0,0,,,,,0,0,0,2,0,9,9,9,,,,,,,,,,,,,,,,,,,,,,,,,,,,,,,,,,,,,,,,,,,,,,,,,,,,,CS1_USpos,None,1,,,,,,,,,,,,,,,,,,22,f,12,n,2019_Oct_21_1112,ec_RRR,3.0.4,59.9071767980848,
Moran Hussey and Hughes,De target figuur voor deze taak is Shelmet:,"Dus wanneer Shelmet (zijn naam of foto) verschijnt op het scherm, druk dan zo snel mogelijk op de spatiebalk. Druk op de spatiebalk telkens wanneer je een foto van Shelmet of het woord SHELMET ziet. 

Druk op de spatiebalk om de taak te starten.
",target3,stimuli/t3.jpg,12,11,stimuli/cs1_pos3.jpg,CSUS,False,None,,,,,,,,,,,,,,0,0,0,0,,,,,0,0,0,2,0,10,10,10,,,,,,,,,,,,,,,,,,,,,,,,,,,,,,,,,,,,,,,,,,,,,,,,,,,,,CS1_USpos,None,1,,,,,,,,,,,,,,,,,,22,f,12,n,2019_Oct_21_1112,ec_RRR,3.0.4,59.9071767980848,
Moran Hussey and Hughes,De target figuur voor deze taak is Shelmet:,"Dus wanneer Shelmet (zijn naam of foto) verschijnt op het scherm, druk dan zo snel mogelijk op de spatiebalk. Druk op de spatiebalk telkens wanneer je een foto van Shelmet of het woord SHELMET ziet. 

Druk op de spatiebalk om de taak te starten.
",target3,stimuli/t3.jpg,12,12,stimuli/blank.jpg,blank,False,None,,,,,,,,,,,,,,0,0,0,0,,,,,0,0,0,2,0,11,11,11,,,,,,,,,,,,,,,,,,,,,,,,,,,,,,,,,,,,,,,,,,,,,,,,,,,,,CS1_USpos,None,1,,,,,,,,,,,,,,,,,,22,f,12,n,2019_Oct_21_1112,ec_RRR,3.0.4,59.9071767980848,
Moran Hussey and Hughes,De target figuur voor deze taak is Shelmet:,"Dus wanneer Shelmet (zijn naam of foto) verschijnt op het scherm, druk dan zo snel mogelijk op de spatiebalk. Druk op de spatiebalk telkens wanneer je een foto van Shelmet of het woord SHELMET ziet. 

Druk op de spatiebalk om de taak te starten.
",target3,stimuli/t3.jpg,12,13,stimuli/filler3.jpg,filler,False,None,,,,,,,,,,,,,,0,0,0,0,,,,,0,0,0,2,0,12,12,12,,,,,,,,,,,,,,,,,,,,,,,,,,,,,,,,,,,,,,,,,,,,,,,,,,,,,CS1_USpos,None,1,,,,,,,,,,,,,,,,,,22,f,12,n,2019_Oct_21_1112,ec_RRR,3.0.4,59.9071767980848,
Moran Hussey and Hughes,De target figuur voor deze taak is Shelmet:,"Dus wanneer Shelmet (zijn naam of foto) verschijnt op het scherm, druk dan zo snel mogelijk op de spatiebalk. Druk op de spatiebalk telkens wanneer je een foto van Shelmet of het woord SHELMET ziet. 

Druk op de spatiebalk om de taak te starten.
",target3,stimuli/t3.jpg,12,14,stimuli/filler23.jpg,filler,False,None,,,,,,,,,,,,,,0,0,0,0,,,,,0,0,0,2,0,13,13,13,,,,,,,,,,,,,,,,,,,,,,,,,,,,,,,,,,,,,,,,,,,,,,,,,,,,,CS1_USpos,None,1,,,,,,,,,,,,,,,,,,22,f,12,n,2019_Oct_21_1112,ec_RRR,3.0.4,59.9071767980848,
Moran Hussey and Hughes,De target figuur voor deze taak is Shelmet:,"Dus wanneer Shelmet (zijn naam of foto) verschijnt op het scherm, druk dan zo snel mogelijk op de spatiebalk. Druk op de spatiebalk telkens wanneer je een foto van Shelmet of het woord SHELMET ziet. 

Druk op de spatiebalk om de taak te starten.
",target3,stimuli/t3.jpg,12,15,stimuli/filler51.jpg,filler,False,None,,,,,,,,,,,,,,0,0,0,0,,,,,0,0,0,2,0,14,14,14,,,,,,,,,,,,,,,,,,,,,,,,,,,,,,,,,,,,,,,,,,,,,,,,,,,,,CS1_USpos,None,1,,,,,,,,,,,,,,,,,,22,f,12,n,2019_Oct_21_1112,ec_RRR,3.0.4,59.9071767980848,
Moran Hussey and Hughes,De target figuur voor deze taak is Shelmet:,"Dus wanneer Shelmet (zijn naam of foto) verschijnt op het scherm, druk dan zo snel mogelijk op de spatiebalk. Druk op de spatiebalk telkens wanneer je een foto van Shelmet of het woord SHELMET ziet. 

Druk op de spatiebalk om de taak te starten.
",target3,stimuli/t3.jpg,12,16,stimuli/filler29.jpg,filler,False,None,,,,,,,,,,,,,,0,0,0,0,,,,,0,0,0,2,0,15,15,15,,,,,,,,,,,,,,,,,,,,,,,,,,,,,,,,,,,,,,,,,,,,,,,,,,,,,CS1_USpos,None,1,,,,,,,,,,,,,,,,,,22,f,12,n,2019_Oct_21_1112,ec_RRR,3.0.4,59.9071767980848,
Moran Hussey and Hughes,De target figuur voor deze taak is Shelmet:,"Dus wanneer Shelmet (zijn naam of foto) verschijnt op het scherm, druk dan zo snel mogelijk op de spatiebalk. Druk op de spatiebalk telkens wanneer je een foto van Shelmet of het woord SHELMET ziet. 

Druk op de spatiebalk om de taak te starten.
",target3,stimuli/t3.jpg,12,17,stimuli/target3_7.jpg,target,True,space,,,,,,,,,,,,,,0,0,0,0,,,,,0,0,0,2,0,16,16,16,,,,,,,,,,,,,,,,,,,,,,,,,,,,,,,,,,,,,,,,,,,,,,,,,,,,,CS1_USpos,space,1,0.40108018839964643,,,,,,,,,,,,,,,,,22,f,12,n,2019_Oct_21_1112,ec_RRR,3.0.4,59.9071767980848,
Moran Hussey and Hughes,De target figuur voor deze taak is Shelmet:,"Dus wanneer Shelmet (zijn naam of foto) verschijnt op het scherm, druk dan zo snel mogelijk op de spatiebalk. Druk op de spatiebalk telkens wanneer je een foto van Shelmet of het woord SHELMET ziet. 

Druk op de spatiebalk om de taak te starten.
",target3,stimuli/t3.jpg,12,18,stimuli/target3_4.jpg,target,True,space,,,,,,,,,,,,,,0,0,0,0,,,,,0,0,0,2,0,17,17,17,,,,,,,,,,,,,,,,,,,,,,,,,,,,,,,,,,,,,,,,,,,,,,,,,,,,,CS1_USpos,space,1,0.7036060815444216,,,,,,,,,,,,,,,,,22,f,12,n,2019_Oct_21_1112,ec_RRR,3.0.4,59.9071767980848,
Moran Hussey and Hughes,De target figuur voor deze taak is Shelmet:,"Dus wanneer Shelmet (zijn naam of foto) verschijnt op het scherm, druk dan zo snel mogelijk op de spatiebalk. Druk op de spatiebalk telkens wanneer je een foto van Shelmet of het woord SHELMET ziet. 

Druk op de spatiebalk om de taak te starten.
",target3,stimuli/t3.jpg,12,19,stimuli/filler35.jpg,filler,False,None,,,,,,,,,,,,,,0,0,0,0,,,,,0,0,0,2,0,18,18,18,,,,,,,,,,,,,,,,,,,,,,,,,,,,,,,,,,,,,,,,,,,,,,,,,,,,,CS1_USpos,None,1,,,,,,,,,,,,,,,,,,22,f,12,n,2019_Oct_21_1112,ec_RRR,3.0.4,59.9071767980848,
Moran Hussey and Hughes,De target figuur voor deze taak is Shelmet:,"Dus wanneer Shelmet (zijn naam of foto) verschijnt op het scherm, druk dan zo snel mogelijk op de spatiebalk. Druk op de spatiebalk telkens wanneer je een foto van Shelmet of het woord SHELMET ziet. 

Druk op de spatiebalk om de taak te starten.
",target3,stimuli/t3.jpg,12,20,stimuli/blank.jpg,blank,False,None,,,,,,,,,,,,,,0,0,0,0,,,,,0,0,0,2,0,19,19,19,,,,,,,,,,,,,,,,,,,,,,,,,,,,,,,,,,,,,,,,,,,,,,,,,,,,,CS1_USpos,None,1,,,,,,,,,,,,,,,,,,22,f,12,n,2019_Oct_21_1112,ec_RRR,3.0.4,59.9071767980848,
Moran Hussey and Hughes,De target figuur voor deze taak is Shelmet:,"Dus wanneer Shelmet (zijn naam of foto) verschijnt op het scherm, druk dan zo snel mogelijk op de spatiebalk. Druk op de spatiebalk telkens wanneer je een foto van Shelmet of het woord SHELMET ziet. 

Druk op de spatiebalk om de taak te starten.
",target3,stimuli/t3.jpg,12,21,stimuli/cs2_neg5.jpg,CSUS,False,None,,,,,,,,,,,,,,0,0,0,0,,,,,0,0,0,2,0,20,20,20,,,,,,,,,,,,,,,,,,,,,,,,,,,,,,,,,,,,,,,,,,,,,,,,,,,,,CS1_USpos,None,1,,,,,,,,,,,,,,,,,,22,f,12,n,2019_Oct_21_1112,ec_RRR,3.0.4,59.9071767980848,
Moran Hussey and Hughes,De target figuur voor deze taak is Shelmet:,"Dus wanneer Shelmet (zijn naam of foto) verschijnt op het scherm, druk dan zo snel mogelijk op de spatiebalk. Druk op de spatiebalk telkens wanneer je een foto van Shelmet of het woord SHELMET ziet. 

Druk op de spatiebalk om de taak te starten.
",target3,stimuli/t3.jpg,12,22,stimuli/blank.jpg,blank,False,None,,,,,,,,,,,,,,0,0,0,0,,,,,0,0,0,2,0,21,21,21,,,,,,,,,,,,,,,,,,,,,,,,,,,,,,,,,,,,,,,,,,,,,,,,,,,,,CS1_USpos,None,1,,,,,,,,,,,,,,,,,,22,f,12,n,2019_Oct_21_1112,ec_RRR,3.0.4,59.9071767980848,
Moran Hussey and Hughes,De target figuur voor deze taak is Shelmet:,"Dus wanneer Shelmet (zijn naam of foto) verschijnt op het scherm, druk dan zo snel mogelijk op de spatiebalk. Druk op de spatiebalk telkens wanneer je een foto van Shelmet of het woord SHELMET ziet. 

Druk op de spatiebalk om de taak te starten.
",target3,stimuli/t3.jpg,12,23,stimuli/filler37.jpg,filler,False,None,,,,,,,,,,,,,,0,0,0,0,,,,,0,0,0,2,0,22,22,22,,,,,,,,,,,,,,,,,,,,,,,,,,,,,,,,,,,,,,,,,,,,,,,,,,,,,CS1_USpos,None,1,,,,,,,,,,,,,,,,,,22,f,12,n,2019_Oct_21_1112,ec_RRR,3.0.4,59.9071767980848,
Moran Hussey and Hughes,De target figuur voor deze taak is Shelmet:,"Dus wanneer Shelmet (zijn naam of foto) verschijnt op het scherm, druk dan zo snel mogelijk op de spatiebalk. Druk op de spatiebalk telkens wanneer je een foto van Shelmet of het woord SHELMET ziet. 

Druk op de spatiebalk om de taak te starten.
",target3,stimuli/t3.jpg,12,24,stimuli/target3_3.jpg,target,True,space,,,,,,,,,,,,,,0,0,0,0,,,,,0,0,0,2,0,23,23,23,,,,,,,,,,,,,,,,,,,,,,,,,,,,,,,,,,,,,,,,,,,,,,,,,,,,,CS1_USpos,space,1,0.6359526426531374,,,,,,,,,,,,,,,,,22,f,12,n,2019_Oct_21_1112,ec_RRR,3.0.4,59.9071767980848,
Moran Hussey and Hughes,De target figuur voor deze taak is Shelmet:,"Dus wanneer Shelmet (zijn naam of foto) verschijnt op het scherm, druk dan zo snel mogelijk op de spatiebalk. Druk op de spatiebalk telkens wanneer je een foto van Shelmet of het woord SHELMET ziet. 

Druk op de spatiebalk om de taak te starten.
",target3,stimuli/t3.jpg,12,25,stimuli/filler18.jpg,filler,False,None,,,,,,,,,,,,,,0,0,0,0,,,,,0,0,0,2,0,24,24,24,,,,,,,,,,,,,,,,,,,,,,,,,,,,,,,,,,,,,,,,,,,,,,,,,,,,,CS1_USpos,None,1,,,,,,,,,,,,,,,,,,22,f,12,n,2019_Oct_21_1112,ec_RRR,3.0.4,59.9071767980848,
Moran Hussey and Hughes,De target figuur voor deze taak is Shelmet:,"Dus wanneer Shelmet (zijn naam of foto) verschijnt op het scherm, druk dan zo snel mogelijk op de spatiebalk. Druk op de spatiebalk telkens wanneer je een foto van Shelmet of het woord SHELMET ziet. 

Druk op de spatiebalk om de taak te starten.
",target3,stimuli/t3.jpg,12,26,stimuli/filler43.jpg,filler,False,None,,,,,,,,,,,,,,0,0,0,0,,,,,0,0,0,2,0,25,25,25,,,,,,,,,,,,,,,,,,,,,,,,,,,,,,,,,,,,,,,,,,,,,,,,,,,,,CS1_USpos,None,1,,,,,,,,,,,,,,,,,,22,f,12,n,2019_Oct_21_1112,ec_RRR,3.0.4,59.9071767980848,
Moran Hussey and Hughes,De target figuur voor deze taak is Shelmet:,"Dus wanneer Shelmet (zijn naam of foto) verschijnt op het scherm, druk dan zo snel mogelijk op de spatiebalk. Druk op de spatiebalk telkens wanneer je een foto van Shelmet of het woord SHELMET ziet. 

Druk op de spatiebalk om de taak te starten.
",target3,stimuli/t3.jpg,12,27,stimuli/filler47.jpg,filler,False,None,,,,,,,,,,,,,,0,0,0,0,,,,,0,0,0,2,0,26,26,26,,,,,,,,,,,,,,,,,,,,,,,,,,,,,,,,,,,,,,,,,,,,,,,,,,,,,CS1_USpos,None,1,,,,,,,,,,,,,,,,,,22,f,12,n,2019_Oct_21_1112,ec_RRR,3.0.4,59.9071767980848,
Moran Hussey and Hughes,De target figuur voor deze taak is Shelmet:,"Dus wanneer Shelmet (zijn naam of foto) verschijnt op het scherm, druk dan zo snel mogelijk op de spatiebalk. Druk op de spatiebalk telkens wanneer je een foto van Shelmet of het woord SHELMET ziet. 

Druk op de spatiebalk om de taak te starten.
",target3,stimuli/t3.jpg,12,28,stimuli/filler45.jpg,filler,False,None,,,,,,,,,,,,,,0,0,0,0,,,,,0,0,0,2,0,27,27,27,,,,,,,,,,,,,,,,,,,,,,,,,,,,,,,,,,,,,,,,,,,,,,,,,,,,,CS1_USpos,None,1,,,,,,,,,,,,,,,,,,22,f,12,n,2019_Oct_21_1112,ec_RRR,3.0.4,59.9071767980848,
Moran Hussey and Hughes,De target figuur voor deze taak is Shelmet:,"Dus wanneer Shelmet (zijn naam of foto) verschijnt op het scherm, druk dan zo snel mogelijk op de spatiebalk. Druk op de spatiebalk telkens wanneer je een foto van Shelmet of het woord SHELMET ziet. 

Druk op de spatiebalk om de taak te starten.
",target3,stimuli/t3.jpg,12,29,stimuli/filler17.jpg,filler,False,None,,,,,,,,,,,,,,0,0,0,0,,,,,0,0,0,2,0,28,28,28,,,,,,,,,,,,,,,,,,,,,,,,,,,,,,,,,,,,,,,,,,,,,,,,,,,,,CS1_USpos,None,1,,,,,,,,,,,,,,,,,,22,f,12,n,2019_Oct_21_1112,ec_RRR,3.0.4,59.9071767980848,
Moran Hussey and Hughes,De target figuur voor deze taak is Shelmet:,"Dus wanneer Shelmet (zijn naam of foto) verschijnt op het scherm, druk dan zo snel mogelijk op de spatiebalk. Druk op de spatiebalk telkens wanneer je een foto van Shelmet of het woord SHELMET ziet. 

Druk op de spatiebalk om de taak te starten.
",target3,stimuli/t3.jpg,12,30,stimuli/blank.jpg,blank,False,None,,,,,,,,,,,,,,0,0,0,0,,,,,0,0,0,2,0,29,29,29,,,,,,,,,,,,,,,,,,,,,,,,,,,,,,,,,,,,,,,,,,,,,,,,,,,,,CS1_USpos,None,1,,,,,,,,,,,,,,,,,,22,f,12,n,2019_Oct_21_1112,ec_RRR,3.0.4,59.9071767980848,
Moran Hussey and Hughes,De target figuur voor deze taak is Shelmet:,"Dus wanneer Shelmet (zijn naam of foto) verschijnt op het scherm, druk dan zo snel mogelijk op de spatiebalk. Druk op de spatiebalk telkens wanneer je een foto van Shelmet of het woord SHELMET ziet. 

Druk op de spatiebalk om de taak te starten.
",target3,stimuli/t3.jpg,12,31,stimuli/cs1_pos16.jpg,CSUS,False,None,,,,,,,,,,,,,,0,0,0,0,,,,,0,0,0,2,0,30,30,30,,,,,,,,,,,,,,,,,,,,,,,,,,,,,,,,,,,,,,,,,,,,,,,,,,,,,CS1_USpos,None,1,,,,,,,,,,,,,,,,,,22,f,12,n,2019_Oct_21_1112,ec_RRR,3.0.4,59.9071767980848,
Moran Hussey and Hughes,De target figuur voor deze taak is Shelmet:,"Dus wanneer Shelmet (zijn naam of foto) verschijnt op het scherm, druk dan zo snel mogelijk op de spatiebalk. Druk op de spatiebalk telkens wanneer je een foto van Shelmet of het woord SHELMET ziet. 

Druk op de spatiebalk om de taak te starten.
",target3,stimuli/t3.jpg,12,32,stimuli/blank.jpg,blank,False,None,,,,,,,,,,,,,,0,0,0,0,,,,,0,0,0,2,0,31,31,31,,,,,,,,,,,,,,,,,,,,,,,,,,,,,,,,,,,,,,,,,,,,,,,,,,,,,CS1_USpos,None,1,,,,,,,,,,,,,,,,,,22,f,12,n,2019_Oct_21_1112,ec_RRR,3.0.4,59.9071767980848,
Moran Hussey and Hughes,De target figuur voor deze taak is Shelmet:,"Dus wanneer Shelmet (zijn naam of foto) verschijnt op het scherm, druk dan zo snel mogelijk op de spatiebalk. Druk op de spatiebalk telkens wanneer je een foto van Shelmet of het woord SHELMET ziet. 

Druk op de spatiebalk om de taak te starten.
",target3,stimuli/t3.jpg,12,33,stimuli/filler2.jpg,filler,False,None,,,,,,,,,,,,,,0,0,0,0,,,,,0,0,0,2,0,32,32,32,,,,,,,,,,,,,,,,,,,,,,,,,,,,,,,,,,,,,,,,,,,,,,,,,,,,,CS1_USpos,None,1,,,,,,,,,,,,,,,,,,22,f,12,n,2019_Oct_21_1112,ec_RRR,3.0.4,59.9071767980848,
Moran Hussey and Hughes,De target figuur voor deze taak is Shelmet:,"Dus wanneer Shelmet (zijn naam of foto) verschijnt op het scherm, druk dan zo snel mogelijk op de spatiebalk. Druk op de spatiebalk telkens wanneer je een foto van Shelmet of het woord SHELMET ziet. 

Druk op de spatiebalk om de taak te starten.
",target3,stimuli/t3.jpg,12,34,stimuli/filler32.jpg,filler,False,None,,,,,,,,,,,,,,0,0,0,0,,,,,0,0,0,2,0,33,33,33,,,,,,,,,,,,,,,,,,,,,,,,,,,,,,,,,,,,,,,,,,,,,,,,,,,,,CS1_USpos,None,1,,,,,,,,,,,,,,,,,,22,f,12,n,2019_Oct_21_1112,ec_RRR,3.0.4,59.9071767980848,
Moran Hussey and Hughes,De target figuur voor deze taak is Shelmet:,"Dus wanneer Shelmet (zijn naam of foto) verschijnt op het scherm, druk dan zo snel mogelijk op de spatiebalk. Druk op de spatiebalk telkens wanneer je een foto van Shelmet of het woord SHELMET ziet. 

Druk op de spatiebalk om de taak te starten.
",target3,stimuli/t3.jpg,12,35,stimuli/filler19.jpg,filler,False,None,,,,,,,,,,,,,,0,0,0,0,,,,,0,0,0,2,0,34,34,34,,,,,,,,,,,,,,,,,,,,,,,,,,,,,,,,,,,,,,,,,,,,,,,,,,,,,CS1_USpos,None,1,,,,,,,,,,,,,,,,,,22,f,12,n,2019_Oct_21_1112,ec_RRR,3.0.4,59.9071767980848,
Moran Hussey and Hughes,De target figuur voor deze taak is Shelmet:,"Dus wanneer Shelmet (zijn naam of foto) verschijnt op het scherm, druk dan zo snel mogelijk op de spatiebalk. Druk op de spatiebalk telkens wanneer je een foto van Shelmet of het woord SHELMET ziet. 

Druk op de spatiebalk om de taak te starten.
",target3,stimuli/t3.jpg,12,36,stimuli/filler26.jpg,filler,False,None,,,,,,,,,,,,,,0,0,0,0,,,,,0,0,0,2,0,35,35,35,,,,,,,,,,,,,,,,,,,,,,,,,,,,,,,,,,,,,,,,,,,,,,,,,,,,,CS1_USpos,None,1,,,,,,,,,,,,,,,,,,22,f,12,n,2019_Oct_21_1112,ec_RRR,3.0.4,59.9071767980848,
Moran Hussey and Hughes,De target figuur voor deze taak is Shelmet:,"Dus wanneer Shelmet (zijn naam of foto) verschijnt op het scherm, druk dan zo snel mogelijk op de spatiebalk. Druk op de spatiebalk telkens wanneer je een foto van Shelmet of het woord SHELMET ziet. 

Druk op de spatiebalk om de taak te starten.
",target3,stimuli/t3.jpg,12,37,stimuli/filler34.jpg,filler,False,None,,,,,,,,,,,,,,0,0,0,0,,,,,0,0,0,2,0,36,36,36,,,,,,,,,,,,,,,,,,,,,,,,,,,,,,,,,,,,,,,,,,,,,,,,,,,,,CS1_USpos,None,1,,,,,,,,,,,,,,,,,,22,f,12,n,2019_Oct_21_1112,ec_RRR,3.0.4,59.9071767980848,
Moran Hussey and Hughes,De target figuur voor deze taak is Shelmet:,"Dus wanneer Shelmet (zijn naam of foto) verschijnt op het scherm, druk dan zo snel mogelijk op de spatiebalk. Druk op de spatiebalk telkens wanneer je een foto van Shelmet of het woord SHELMET ziet. 

Druk op de spatiebalk om de taak te starten.
",target3,stimuli/t3.jpg,12,38,stimuli/filler25.jpg,filler,False,None,,,,,,,,,,,,,,0,0,0,0,,,,,0,0,0,2,0,37,37,37,,,,,,,,,,,,,,,,,,,,,,,,,,,,,,,,,,,,,,,,,,,,,,,,,,,,,CS1_USpos,None,1,,,,,,,,,,,,,,,,,,22,f,12,n,2019_Oct_21_1112,ec_RRR,3.0.4,59.9071767980848,
Moran Hussey and Hughes,De target figuur voor deze taak is Shelmet:,"Dus wanneer Shelmet (zijn naam of foto) verschijnt op het scherm, druk dan zo snel mogelijk op de spatiebalk. Druk op de spatiebalk telkens wanneer je een foto van Shelmet of het woord SHELMET ziet. 

Druk op de spatiebalk om de taak te starten.
",target3,stimuli/t3.jpg,12,39,stimuli/target3_6.jpg,target,True,space,,,,,,,,,,,,,,0,0,0,0,,,,,0,0,0,2,0,38,38,38,,,,,,,,,,,,,,,,,,,,,,,,,,,,,,,,,,,,,,,,,,,,,,,,,,,,,CS1_USpos,space,1,0.4211972537159454,,,,,,,,,,,,,,,,,22,f,12,n,2019_Oct_21_1112,ec_RRR,3.0.4,59.9071767980848,
Moran Hussey and Hughes,De target figuur voor deze taak is Shelmet:,"Dus wanneer Shelmet (zijn naam of foto) verschijnt op het scherm, druk dan zo snel mogelijk op de spatiebalk. Druk op de spatiebalk telkens wanneer je een foto van Shelmet of het woord SHELMET ziet. 

Druk op de spatiebalk om de taak te starten.
",target3,stimuli/t3.jpg,12,40,stimuli/blank.jpg,blank,False,None,,,,,,,,,,,,,,0,0,0,0,,,,,0,0,0,2,0,39,39,39,,,,,,,,,,,,,,,,,,,,,,,,,,,,,,,,,,,,,,,,,,,,,,,,,,,,,CS1_USpos,None,1,,,,,,,,,,,,,,,,,,22,f,12,n,2019_Oct_21_1112,ec_RRR,3.0.4,59.9071767980848,
Moran Hussey and Hughes,De target figuur voor deze taak is Shelmet:,"Dus wanneer Shelmet (zijn naam of foto) verschijnt op het scherm, druk dan zo snel mogelijk op de spatiebalk. Druk op de spatiebalk telkens wanneer je een foto van Shelmet of het woord SHELMET ziet. 

Druk op de spatiebalk om de taak te starten.
",target3,stimuli/t3.jpg,12,41,stimuli/cs2_neg17.jpg,CSUS,False,None,,,,,,,,,,,,,,0,0,0,0,,,,,0,0,0,2,0,40,40,40,,,,,,,,,,,,,,,,,,,,,,,,,,,,,,,,,,,,,,,,,,,,,,,,,,,,,CS1_USpos,None,1,,,,,,,,,,,,,,,,,,22,f,12,n,2019_Oct_21_1112,ec_RRR,3.0.4,59.9071767980848,
Moran Hussey and Hughes,De target figuur voor deze taak is Shelmet:,"Dus wanneer Shelmet (zijn naam of foto) verschijnt op het scherm, druk dan zo snel mogelijk op de spatiebalk. Druk op de spatiebalk telkens wanneer je een foto van Shelmet of het woord SHELMET ziet. 

Druk op de spatiebalk om de taak te starten.
",target3,stimuli/t3.jpg,12,42,stimuli/blank.jpg,blank,False,None,,,,,,,,,,,,,,0,0,0,0,,,,,0,0,0,2,0,41,41,41,,,,,,,,,,,,,,,,,,,,,,,,,,,,,,,,,,,,,,,,,,,,,,,,,,,,,CS1_USpos,None,1,,,,,,,,,,,,,,,,,,22,f,12,n,2019_Oct_21_1112,ec_RRR,3.0.4,59.9071767980848,
Moran Hussey and Hughes,De target figuur voor deze taak is Shelmet:,"Dus wanneer Shelmet (zijn naam of foto) verschijnt op het scherm, druk dan zo snel mogelijk op de spatiebalk. Druk op de spatiebalk telkens wanneer je een foto van Shelmet of het woord SHELMET ziet. 

Druk op de spatiebalk om de taak te starten.
",target3,stimuli/t3.jpg,12,43,stimuli/filler4.jpg,filler,False,None,,,,,,,,,,,,,,0,0,0,0,,,,,0,0,0,2,0,42,42,42,,,,,,,,,,,,,,,,,,,,,,,,,,,,,,,,,,,,,,,,,,,,,,,,,,,,,CS1_USpos,None,1,,,,,,,,,,,,,,,,,,22,f,12,n,2019_Oct_21_1112,ec_RRR,3.0.4,59.9071767980848,
Moran Hussey and Hughes,De target figuur voor deze taak is Shelmet:,"Dus wanneer Shelmet (zijn naam of foto) verschijnt op het scherm, druk dan zo snel mogelijk op de spatiebalk. Druk op de spatiebalk telkens wanneer je een foto van Shelmet of het woord SHELMET ziet. 

Druk op de spatiebalk om de taak te starten.
",target3,stimuli/t3.jpg,12,44,stimuli/filler40.jpg,filler,False,None,,,,,,,,,,,,,,0,0,0,0,,,,,0,0,0,2,0,43,43,43,,,,,,,,,,,,,,,,,,,,,,,,,,,,,,,,,,,,,,,,,,,,,,,,,,,,,CS1_USpos,None,1,,,,,,,,,,,,,,,,,,22,f,12,n,2019_Oct_21_1112,ec_RRR,3.0.4,59.9071767980848,
Moran Hussey and Hughes,De target figuur voor deze taak is Shelmet:,"Dus wanneer Shelmet (zijn naam of foto) verschijnt op het scherm, druk dan zo snel mogelijk op de spatiebalk. Druk op de spatiebalk telkens wanneer je een foto van Shelmet of het woord SHELMET ziet. 

Druk op de spatiebalk om de taak te starten.
",target3,stimuli/t3.jpg,12,45,stimuli/target3_1.jpg,target,True,space,,,,,,,,,,,,,,0,0,0,0,,,,,0,0,0,2,0,44,44,44,,,,,,,,,,,,,,,,,,,,,,,,,,,,,,,,,,,,,,,,,,,,,,,,,,,,,CS1_USpos,space,1,0.46949122202931903,,,,,,,,,,,,,,,,,22,f,12,n,2019_Oct_21_1112,ec_RRR,3.0.4,59.9071767980848,
Moran Hussey and Hughes,De target figuur voor deze taak is Shelmet:,"Dus wanneer Shelmet (zijn naam of foto) verschijnt op het scherm, druk dan zo snel mogelijk op de spatiebalk. Druk op de spatiebalk telkens wanneer je een foto van Shelmet of het woord SHELMET ziet. 

Druk op de spatiebalk om de taak te starten.
",target3,stimuli/t3.jpg,12,46,stimuli/filler42.jpg,filler,False,None,,,,,,,,,,,,,,0,0,0,0,,,,,0,0,0,2,0,45,45,45,,,,,,,,,,,,,,,,,,,,,,,,,,,,,,,,,,,,,,,,,,,,,,,,,,,,,CS1_USpos,None,1,,,,,,,,,,,,,,,,,,22,f,12,n,2019_Oct_21_1112,ec_RRR,3.0.4,59.9071767980848,
Moran Hussey and Hughes,De target figuur voor deze taak is Shelmet:,"Dus wanneer Shelmet (zijn naam of foto) verschijnt op het scherm, druk dan zo snel mogelijk op de spatiebalk. Druk op de spatiebalk telkens wanneer je een foto van Shelmet of het woord SHELMET ziet. 

Druk op de spatiebalk om de taak te starten.
",target3,stimuli/t3.jpg,12,47,stimuli/filler27.jpg,filler,False,None,,,,,,,,,,,,,,0,0,0,0,,,,,0,0,0,2,0,46,46,46,,,,,,,,,,,,,,,,,,,,,,,,,,,,,,,,,,,,,,,,,,,,,,,,,,,,,CS1_USpos,None,1,,,,,,,,,,,,,,,,,,22,f,12,n,2019_Oct_21_1112,ec_RRR,3.0.4,59.9071767980848,
Moran Hussey and Hughes,De target figuur voor deze taak is Shelmet:,"Dus wanneer Shelmet (zijn naam of foto) verschijnt op het scherm, druk dan zo snel mogelijk op de spatiebalk. Druk op de spatiebalk telkens wanneer je een foto van Shelmet of het woord SHELMET ziet. 

Druk op de spatiebalk om de taak te starten.
",target3,stimuli/t3.jpg,12,48,stimuli/filler12.jpg,filler,False,None,,,,,,,,,,,,,,0,0,0,0,,,,,0,0,0,2,0,47,47,47,,,,,,,,,,,,,,,,,,,,,,,,,,,,,,,,,,,,,,,,,,,,,,,,,,,,,CS1_USpos,None,1,,,,,,,,,,,,,,,,,,22,f,12,n,2019_Oct_21_1112,ec_RRR,3.0.4,59.9071767980848,
Moran Hussey and Hughes,De target figuur voor deze taak is Shelmet:,"Dus wanneer Shelmet (zijn naam of foto) verschijnt op het scherm, druk dan zo snel mogelijk op de spatiebalk. Druk op de spatiebalk telkens wanneer je een foto van Shelmet of het woord SHELMET ziet. 

Druk op de spatiebalk om de taak te starten.
",target3,stimuli/t3.jpg,12,49,stimuli/filler7.jpg,filler,False,None,,,,,,,,,,,,,,0,0,0,0,,,,,0,0,0,2,0,48,48,48,,,,,,,,,,,,,,,,,,,,,,,,,,,,,,,,,,,,,,,,,,,,,,,,,,,,,CS1_USpos,None,1,,,,,,,,,,,,,,,,,,22,f,12,n,2019_Oct_21_1112,ec_RRR,3.0.4,59.9071767980848,
Moran Hussey and Hughes,De target figuur voor deze taak is Shelmet:,"Dus wanneer Shelmet (zijn naam of foto) verschijnt op het scherm, druk dan zo snel mogelijk op de spatiebalk. Druk op de spatiebalk telkens wanneer je een foto van Shelmet of het woord SHELMET ziet. 

Druk op de spatiebalk om de taak te starten.
",target3,stimuli/t3.jpg,12,50,stimuli/blank.jpg,blank,False,None,,,,,,,,,,,,,,0,0,0,0,,,,,0,0,0,2,0,49,49,49,,,,,,,,,,,,,,,,,,,,,,,,,,,,,,,,,,,,,,,,,,,,,,,,,,,,,CS1_USpos,None,1,,,,,,,,,,,,,,,,,,22,f,12,n,2019_Oct_21_1112,ec_RRR,3.0.4,59.9071767980848,
Moran Hussey and Hughes,De target figuur voor deze taak is Shelmet:,"Dus wanneer Shelmet (zijn naam of foto) verschijnt op het scherm, druk dan zo snel mogelijk op de spatiebalk. Druk op de spatiebalk telkens wanneer je een foto van Shelmet of het woord SHELMET ziet. 

Druk op de spatiebalk om de taak te starten.
",target3,stimuli/t3.jpg,12,51,stimuli/cs1_pos5.jpg,CSUS,False,None,,,,,,,,,,,,,,0,0,0,0,,,,,0,0,0,2,0,50,50,50,,,,,,,,,,,,,,,,,,,,,,,,,,,,,,,,,,,,,,,,,,,,,,,,,,,,,CS1_USpos,None,1,,,,,,,,,,,,,,,,,,22,f,12,n,2019_Oct_21_1112,ec_RRR,3.0.4,59.9071767980848,
Moran Hussey and Hughes,De target figuur voor deze taak is Shelmet:,"Dus wanneer Shelmet (zijn naam of foto) verschijnt op het scherm, druk dan zo snel mogelijk op de spatiebalk. Druk op de spatiebalk telkens wanneer je een foto van Shelmet of het woord SHELMET ziet. 

Druk op de spatiebalk om de taak te starten.
",target3,stimuli/t3.jpg,12,52,stimuli/blank.jpg,blank,False,None,,,,,,,,,,,,,,0,0,0,0,,,,,0,0,0,2,0,51,51,51,,,,,,,,,,,,,,,,,,,,,,,,,,,,,,,,,,,,,,,,,,,,,,,,,,,,,CS1_USpos,None,1,,,,,,,,,,,,,,,,,,22,f,12,n,2019_Oct_21_1112,ec_RRR,3.0.4,59.9071767980848,
Moran Hussey and Hughes,De target figuur voor deze taak is Shelmet:,"Dus wanneer Shelmet (zijn naam of foto) verschijnt op het scherm, druk dan zo snel mogelijk op de spatiebalk. Druk op de spatiebalk telkens wanneer je een foto van Shelmet of het woord SHELMET ziet. 

Druk op de spatiebalk om de taak te starten.
",target3,stimuli/t3.jpg,12,53,stimuli/filler22.jpg,filler,False,None,,,,,,,,,,,,,,0,0,0,0,,,,,0,0,0,2,0,52,52,52,,,,,,,,,,,,,,,,,,,,,,,,,,,,,,,,,,,,,,,,,,,,,,,,,,,,,CS1_USpos,None,1,,,,,,,,,,,,,,,,,,22,f,12,n,2019_Oct_21_1112,ec_RRR,3.0.4,59.9071767980848,
Moran Hussey and Hughes,De target figuur voor deze taak is Shelmet:,"Dus wanneer Shelmet (zijn naam of foto) verschijnt op het scherm, druk dan zo snel mogelijk op de spatiebalk. Druk op de spatiebalk telkens wanneer je een foto van Shelmet of het woord SHELMET ziet. 

Druk op de spatiebalk om de taak te starten.
",target3,stimuli/t3.jpg,12,54,stimuli/filler49.jpg,filler,False,None,,,,,,,,,,,,,,0,0,0,0,,,,,0,0,0,2,0,53,53,53,,,,,,,,,,,,,,,,,,,,,,,,,,,,,,,,,,,,,,,,,,,,,,,,,,,,,CS1_USpos,None,1,,,,,,,,,,,,,,,,,,22,f,12,n,2019_Oct_21_1112,ec_RRR,3.0.4,59.9071767980848,
Moran Hussey and Hughes,De target figuur voor deze taak is Shelmet:,"Dus wanneer Shelmet (zijn naam of foto) verschijnt op het scherm, druk dan zo snel mogelijk op de spatiebalk. Druk op de spatiebalk telkens wanneer je een foto van Shelmet of het woord SHELMET ziet. 

Druk op de spatiebalk om de taak te starten.
",target3,stimuli/t3.jpg,12,55,stimuli/filler39.jpg,filler,False,None,,,,,,,,,,,,,,0,0,0,0,,,,,0,0,0,2,0,54,54,54,,,,,,,,,,,,,,,,,,,,,,,,,,,,,,,,,,,,,,,,,,,,,,,,,,,,,CS1_USpos,None,1,,,,,,,,,,,,,,,,,,22,f,12,n,2019_Oct_21_1112,ec_RRR,3.0.4,59.9071767980848,
Moran Hussey and Hughes,De target figuur voor deze taak is Shelmet:,"Dus wanneer Shelmet (zijn naam of foto) verschijnt op het scherm, druk dan zo snel mogelijk op de spatiebalk. Druk op de spatiebalk telkens wanneer je een foto van Shelmet of het woord SHELMET ziet. 

Druk op de spatiebalk om de taak te starten.
",target3,stimuli/t3.jpg,12,56,stimuli/filler38.jpg,filler,False,None,,,,,,,,,,,,,,0,0,0,0,,,,,0,0,0,2,0,55,55,55,,,,,,,,,,,,,,,,,,,,,,,,,,,,,,,,,,,,,,,,,,,,,,,,,,,,,CS1_USpos,None,1,,,,,,,,,,,,,,,,,,22,f,12,n,2019_Oct_21_1112,ec_RRR,3.0.4,59.9071767980848,
Moran Hussey and Hughes,De target figuur voor deze taak is Shelmet:,"Dus wanneer Shelmet (zijn naam of foto) verschijnt op het scherm, druk dan zo snel mogelijk op de spatiebalk. Druk op de spatiebalk telkens wanneer je een foto van Shelmet of het woord SHELMET ziet. 

Druk op de spatiebalk om de taak te starten.
",target3,stimuli/t3.jpg,12,57,stimuli/filler41.jpg,filler,False,None,,,,,,,,,,,,,,0,0,0,0,,,,,0,0,0,2,0,56,56,56,,,,,,,,,,,,,,,,,,,,,,,,,,,,,,,,,,,,,,,,,,,,,,,,,,,,,CS1_USpos,None,1,,,,,,,,,,,,,,,,,,22,f,12,n,2019_Oct_21_1112,ec_RRR,3.0.4,59.9071767980848,
Moran Hussey and Hughes,De target figuur voor deze taak is Shelmet:,"Dus wanneer Shelmet (zijn naam of foto) verschijnt op het scherm, druk dan zo snel mogelijk op de spatiebalk. Druk op de spatiebalk telkens wanneer je een foto van Shelmet of het woord SHELMET ziet. 

Druk op de spatiebalk om de taak te starten.
",target3,stimuli/t3.jpg,12,58,stimuli/filler46.jpg,filler,False,None,,,,,,,,,,,,,,0,0,0,0,,,,,0,0,0,2,0,57,57,57,,,,,,,,,,,,,,,,,,,,,,,,,,,,,,,,,,,,,,,,,,,,,,,,,,,,,CS1_USpos,None,1,,,,,,,,,,,,,,,,,,22,f,12,n,2019_Oct_21_1112,ec_RRR,3.0.4,59.9071767980848,
Moran Hussey and Hughes,De target figuur voor deze taak is Shelmet:,"Dus wanneer Shelmet (zijn naam of foto) verschijnt op het scherm, druk dan zo snel mogelijk op de spatiebalk. Druk op de spatiebalk telkens wanneer je een foto van Shelmet of het woord SHELMET ziet. 

Druk op de spatiebalk om de taak te starten.
",target3,stimuli/t3.jpg,12,59,stimuli/filler14.jpg,filler,False,None,,,,,,,,,,,,,,0,0,0,0,,,,,0,0,0,2,0,58,58,58,,,,,,,,,,,,,,,,,,,,,,,,,,,,,,,,,,,,,,,,,,,,,,,,,,,,,CS1_USpos,None,1,,,,,,,,,,,,,,,,,,22,f,12,n,2019_Oct_21_1112,ec_RRR,3.0.4,59.9071767980848,
Moran Hussey and Hughes,De target figuur voor deze taak is Shelmet:,"Dus wanneer Shelmet (zijn naam of foto) verschijnt op het scherm, druk dan zo snel mogelijk op de spatiebalk. Druk op de spatiebalk telkens wanneer je een foto van Shelmet of het woord SHELMET ziet. 

Druk op de spatiebalk om de taak te starten.
",target3,stimuli/t3.jpg,12,60,stimuli/blank.jpg,blank,False,None,,,,,,,,,,,,,,0,0,0,0,,,,,0,0,0,2,0,59,59,59,,,,,,,,,,,,,,,,,,,,,,,,,,,,,,,,,,,,,,,,,,,,,,,,,,,,,CS1_USpos,None,1,,,,,,,,,,,,,,,,,,22,f,12,n,2019_Oct_21_1112,ec_RRR,3.0.4,59.9071767980848,
Moran Hussey and Hughes,De target figuur voor deze taak is Shelmet:,"Dus wanneer Shelmet (zijn naam of foto) verschijnt op het scherm, druk dan zo snel mogelijk op de spatiebalk. Druk op de spatiebalk telkens wanneer je een foto van Shelmet of het woord SHELMET ziet. 

Druk op de spatiebalk om de taak te starten.
",target3,stimuli/t3.jpg,12,61,stimuli/cs2_neg13.jpg,CSUS,False,None,,,,,,,,,,,,,,0,0,0,0,,,,,0,0,0,2,0,60,60,60,,,,,,,,,,,,,,,,,,,,,,,,,,,,,,,,,,,,,,,,,,,,,,,,,,,,,CS1_USpos,None,1,,,,,,,,,,,,,,,,,,22,f,12,n,2019_Oct_21_1112,ec_RRR,3.0.4,59.9071767980848,
Moran Hussey and Hughes,De target figuur voor deze taak is Shelmet:,"Dus wanneer Shelmet (zijn naam of foto) verschijnt op het scherm, druk dan zo snel mogelijk op de spatiebalk. Druk op de spatiebalk telkens wanneer je een foto van Shelmet of het woord SHELMET ziet. 

Druk op de spatiebalk om de taak te starten.
",target3,stimuli/t3.jpg,12,62,stimuli/blank.jpg,blank,False,None,,,,,,,,,,,,,,0,0,0,0,,,,,0,0,0,2,0,61,61,61,,,,,,,,,,,,,,,,,,,,,,,,,,,,,,,,,,,,,,,,,,,,,,,,,,,,,CS1_USpos,None,1,,,,,,,,,,,,,,,,,,22,f,12,n,2019_Oct_21_1112,ec_RRR,3.0.4,59.9071767980848,
Moran Hussey and Hughes,De target figuur voor deze taak is Shelmet:,"Dus wanneer Shelmet (zijn naam of foto) verschijnt op het scherm, druk dan zo snel mogelijk op de spatiebalk. Druk op de spatiebalk telkens wanneer je een foto van Shelmet of het woord SHELMET ziet. 

Druk op de spatiebalk om de taak te starten.
",target3,stimuli/t3.jpg,12,63,stimuli/filler48.jpg,filler,False,None,,,,,,,,,,,,,,0,0,0,0,,,,,0,0,0,2,0,62,62,62,,,,,,,,,,,,,,,,,,,,,,,,,,,,,,,,,,,,,,,,,,,,,,,,,,,,,CS1_USpos,None,1,,,,,,,,,,,,,,,,,,22,f,12,n,2019_Oct_21_1112,ec_RRR,3.0.4,59.9071767980848,
Moran Hussey and Hughes,De target figuur voor deze taak is Shelmet:,"Dus wanneer Shelmet (zijn naam of foto) verschijnt op het scherm, druk dan zo snel mogelijk op de spatiebalk. Druk op de spatiebalk telkens wanneer je een foto van Shelmet of het woord SHELMET ziet. 

Druk op de spatiebalk om de taak te starten.
",target3,stimuli/t3.jpg,12,64,stimuli/filler31.jpg,filler,False,None,,,,,,,,,,,,,,0,0,0,0,,,,,0,0,0,2,0,63,63,63,,,,,,,,,,,,,,,,,,,,,,,,,,,,,,,,,,,,,,,,,,,,,,,,,,,,,CS1_USpos,None,1,,,,,,,,,,,,,,,,,,22,f,12,n,2019_Oct_21_1112,ec_RRR,3.0.4,59.9071767980848,
Moran Hussey and Hughes,De target figuur voor deze taak is Shelmet:,"Dus wanneer Shelmet (zijn naam of foto) verschijnt op het scherm, druk dan zo snel mogelijk op de spatiebalk. Druk op de spatiebalk telkens wanneer je een foto van Shelmet of het woord SHELMET ziet. 

Druk op de spatiebalk om de taak te starten.
",target3,stimuli/t3.jpg,12,65,stimuli/target3_5.jpg,target,True,space,,,,,,,,,,,,,,0,0,0,0,,,,,0,0,0,2,0,64,64,64,,,,,,,,,,,,,,,,,,,,,,,,,,,,,,,,,,,,,,,,,,,,,,,,,,,,,CS1_USpos,space,1,0.5708225946582388,,,,,,,,,,,,,,,,,22,f,12,n,2019_Oct_21_1112,ec_RRR,3.0.4,59.9071767980848,
Moran Hussey and Hughes,De target figuur voor deze taak is Shelmet:,"Dus wanneer Shelmet (zijn naam of foto) verschijnt op het scherm, druk dan zo snel mogelijk op de spatiebalk. Druk op de spatiebalk telkens wanneer je een foto van Shelmet of het woord SHELMET ziet. 

Druk op de spatiebalk om de taak te starten.
",target3,stimuli/t3.jpg,12,66,stimuli/filler28.jpg,filler,False,None,,,,,,,,,,,,,,0,0,0,0,,,,,0,0,0,2,0,65,65,65,,,,,,,,,,,,,,,,,,,,,,,,,,,,,,,,,,,,,,,,,,,,,,,,,,,,,CS1_USpos,None,1,,,,,,,,,,,,,,,,,,22,f,12,n,2019_Oct_21_1112,ec_RRR,3.0.4,59.9071767980848,
Moran Hussey and Hughes,De target figuur voor deze taak is Shelmet:,"Dus wanneer Shelmet (zijn naam of foto) verschijnt op het scherm, druk dan zo snel mogelijk op de spatiebalk. Druk op de spatiebalk telkens wanneer je een foto van Shelmet of het woord SHELMET ziet. 

Druk op de spatiebalk om de taak te starten.
",target3,stimuli/t3.jpg,12,67,stimuli/filler44.jpg,filler,False,None,,,,,,,,,,,,,,0,0,0,0,,,,,0,0,0,2,0,66,66,66,,,,,,,,,,,,,,,,,,,,,,,,,,,,,,,,,,,,,,,,,,,,,,,,,,,,,CS1_USpos,None,1,,,,,,,,,,,,,,,,,,22,f,12,n,2019_Oct_21_1112,ec_RRR,3.0.4,59.9071767980848,
Moran Hussey and Hughes,De target figuur voor deze taak is Shelmet:,"Dus wanneer Shelmet (zijn naam of foto) verschijnt op het scherm, druk dan zo snel mogelijk op de spatiebalk. Druk op de spatiebalk telkens wanneer je een foto van Shelmet of het woord SHELMET ziet. 

Druk op de spatiebalk om de taak te starten.
",target3,stimuli/t3.jpg,12,68,stimuli/filler6.jpg,filler,False,None,,,,,,,,,,,,,,0,0,0,0,,,,,0,0,0,2,0,67,67,67,,,,,,,,,,,,,,,,,,,,,,,,,,,,,,,,,,,,,,,,,,,,,,,,,,,,,CS1_USpos,None,1,,,,,,,,,,,,,,,,,,22,f,12,n,2019_Oct_21_1112,ec_RRR,3.0.4,59.9071767980848,
Moran Hussey and Hughes,De target figuur voor deze taak is Shelmet:,"Dus wanneer Shelmet (zijn naam of foto) verschijnt op het scherm, druk dan zo snel mogelijk op de spatiebalk. Druk op de spatiebalk telkens wanneer je een foto van Shelmet of het woord SHELMET ziet. 

Druk op de spatiebalk om de taak te starten.
",target3,stimuli/t3.jpg,12,69,stimuli/filler1.jpg,filler,False,None,,,,,,,,,,,,,,0,0,0,0,,,,,0,0,0,2,0,68,68,68,,,,,,,,,,,,,,,,,,,,,,,,,,,,,,,,,,,,,,,,,,,,,,,,,,,,,CS1_USpos,None,1,,,,,,,,,,,,,,,,,,22,f,12,n,2019_Oct_21_1112,ec_RRR,3.0.4,59.9071767980848,
Moran Hussey and Hughes,De target figuur voor deze taak is Shelmet:,"Dus wanneer Shelmet (zijn naam of foto) verschijnt op het scherm, druk dan zo snel mogelijk op de spatiebalk. Druk op de spatiebalk telkens wanneer je een foto van Shelmet of het woord SHELMET ziet. 

Druk op de spatiebalk om de taak te starten.
",target3,stimuli/t3.jpg,12,70,stimuli/blank.jpg,blank,False,None,,,,,,,,,,,,,,0,0,0,0,,,,,0,0,0,2,0,69,69,69,,,,,,,,,,,,,,,,,,,,,,,,,,,,,,,,,,,,,,,,,,,,,,,,,,,,,CS1_USpos,None,1,,,,,,,,,,,,,,,,,,22,f,12,n,2019_Oct_21_1112,ec_RRR,3.0.4,59.9071767980848,
Moran Hussey and Hughes,De target figuur voor deze taak is Shelmet:,"Dus wanneer Shelmet (zijn naam of foto) verschijnt op het scherm, druk dan zo snel mogelijk op de spatiebalk. Druk op de spatiebalk telkens wanneer je een foto van Shelmet of het woord SHELMET ziet. 

Druk op de spatiebalk om de taak te starten.
",target3,stimuli/t3.jpg,12,71,stimuli/cs1_pos17.jpg,CSUS,False,None,,,,,,,,,,,,,,0,0,0,0,,,,,0,0,0,2,0,70,70,70,,,,,,,,,,,,,,,,,,,,,,,,,,,,,,,,,,,,,,,,,,,,,,,,,,,,,CS1_USpos,None,1,,,,,,,,,,,,,,,,,,22,f,12,n,2019_Oct_21_1112,ec_RRR,3.0.4,59.9071767980848,
Moran Hussey and Hughes,De target figuur voor deze taak is Shelmet:,"Dus wanneer Shelmet (zijn naam of foto) verschijnt op het scherm, druk dan zo snel mogelijk op de spatiebalk. Druk op de spatiebalk telkens wanneer je een foto van Shelmet of het woord SHELMET ziet. 

Druk op de spatiebalk om de taak te starten.
",target3,stimuli/t3.jpg,12,72,stimuli/blank.jpg,blank,False,None,,,,,,,,,,,,,,0,0,0,0,,,,,0,0,0,2,0,71,71,71,,,,,,,,,,,,,,,,,,,,,,,,,,,,,,,,,,,,,,,,,,,,,,,,,,,,,CS1_USpos,None,1,,,,,,,,,,,,,,,,,,22,f,12,n,2019_Oct_21_1112,ec_RRR,3.0.4,59.9071767980848,
Moran Hussey and Hughes,De target figuur voor deze taak is Shelmet:,"Dus wanneer Shelmet (zijn naam of foto) verschijnt op het scherm, druk dan zo snel mogelijk op de spatiebalk. Druk op de spatiebalk telkens wanneer je een foto van Shelmet of het woord SHELMET ziet. 

Druk op de spatiebalk om de taak te starten.
",target3,stimuli/t3.jpg,12,73,stimuli/filler30.jpg,filler,False,None,,,,,,,,,,,,,,0,0,0,0,,,,,0,0,0,2,0,72,72,72,,,,,,,,,,,,,,,,,,,,,,,,,,,,,,,,,,,,,,,,,,,,,,,,,,,,,CS1_USpos,None,1,,,,,,,,,,,,,,,,,,22,f,12,n,2019_Oct_21_1112,ec_RRR,3.0.4,59.9071767980848,
Moran Hussey and Hughes,De target figuur voor deze taak is Shelmet:,"Dus wanneer Shelmet (zijn naam of foto) verschijnt op het scherm, druk dan zo snel mogelijk op de spatiebalk. Druk op de spatiebalk telkens wanneer je een foto van Shelmet of het woord SHELMET ziet. 

Druk op de spatiebalk om de taak te starten.
",target3,stimuli/t3.jpg,12,74,stimuli/filler5.jpg,filler,False,None,,,,,,,,,,,,,,0,0,0,0,,,,,0,0,0,2,0,73,73,73,,,,,,,,,,,,,,,,,,,,,,,,,,,,,,,,,,,,,,,,,,,,,,,,,,,,,CS1_USpos,None,1,,,,,,,,,,,,,,,,,,22,f,12,n,2019_Oct_21_1112,ec_RRR,3.0.4,59.9071767980848,
Moran Hussey and Hughes,De target figuur voor deze taak is Shelmet:,"Dus wanneer Shelmet (zijn naam of foto) verschijnt op het scherm, druk dan zo snel mogelijk op de spatiebalk. Druk op de spatiebalk telkens wanneer je een foto van Shelmet of het woord SHELMET ziet. 

Druk op de spatiebalk om de taak te starten.
",target3,stimuli/t3.jpg,12,75,stimuli/filler52.jpg,filler,False,None,,,,,,,,,,,,,,0,0,0,0,,,,,0,0,0,2,0,74,74,74,,,,,,,,,,,,,,,,,,,,,,,,,,,,,,,,,,,,,,,,,,,,,,,,,,,,,CS1_USpos,None,1,,,,,,,,,,,,,,,,,,22,f,12,n,2019_Oct_21_1112,ec_RRR,3.0.4,59.9071767980848,
Moran Hussey and Hughes,De target figuur voor deze taak is Shelmet:,"Dus wanneer Shelmet (zijn naam of foto) verschijnt op het scherm, druk dan zo snel mogelijk op de spatiebalk. Druk op de spatiebalk telkens wanneer je een foto van Shelmet of het woord SHELMET ziet. 

Druk op de spatiebalk om de taak te starten.
",target3,stimuli/t3.jpg,12,76,stimuli/filler21.jpg,filler,False,None,,,,,,,,,,,,,,0,0,0,0,,,,,0,0,0,2,0,75,75,75,,,,,,,,,,,,,,,,,,,,,,,,,,,,,,,,,,,,,,,,,,,,,,,,,,,,,CS1_USpos,None,1,,,,,,,,,,,,,,,,,,22,f,12,n,2019_Oct_21_1112,ec_RRR,3.0.4,59.9071767980848,
Moran Hussey and Hughes,De target figuur voor deze taak is Shelmet:,"Dus wanneer Shelmet (zijn naam of foto) verschijnt op het scherm, druk dan zo snel mogelijk op de spatiebalk. Druk op de spatiebalk telkens wanneer je een foto van Shelmet of het woord SHELMET ziet. 

Druk op de spatiebalk om de taak te starten.
",target3,stimuli/t3.jpg,12,77,stimuli/filler15.jpg,filler,False,None,,,,,,,,,,,,,,0,0,0,0,,,,,0,0,0,2,0,76,76,76,,,,,,,,,,,,,,,,,,,,,,,,,,,,,,,,,,,,,,,,,,,,,,,,,,,,,CS1_USpos,None,1,,,,,,,,,,,,,,,,,,22,f,12,n,2019_Oct_21_1112,ec_RRR,3.0.4,59.9071767980848,
Moran Hussey and Hughes,De target figuur voor deze taak is Shelmet:,"Dus wanneer Shelmet (zijn naam of foto) verschijnt op het scherm, druk dan zo snel mogelijk op de spatiebalk. Druk op de spatiebalk telkens wanneer je een foto van Shelmet of het woord SHELMET ziet. 

Druk op de spatiebalk om de taak te starten.
",target3,stimuli/t3.jpg,12,78,stimuli/target3_8.jpg,target,True,space,,,,,,,,,,,,,,0,0,0,0,,,,,0,0,0,2,0,77,77,77,,,,,,,,,,,,,,,,,,,,,,,,,,,,,,,,,,,,,,,,,,,,,,,,,,,,,CS1_USpos,space,1,0.4883306161791552,,,,,,,,,,,,,,,,,22,f,12,n,2019_Oct_21_1112,ec_RRR,3.0.4,59.9071767980848,
Moran Hussey and Hughes,De target figuur voor deze taak is Shelmet:,"Dus wanneer Shelmet (zijn naam of foto) verschijnt op het scherm, druk dan zo snel mogelijk op de spatiebalk. Druk op de spatiebalk telkens wanneer je een foto van Shelmet of het woord SHELMET ziet. 

Druk op de spatiebalk om de taak te starten.
",target3,stimuli/t3.jpg,12,79,stimuli/target3_9.jpg,target,True,space,,,,,,,,,,,,,,0,0,0,0,,,,,0,0,0,2,0,78,78,78,,,,,,,,,,,,,,,,,,,,,,,,,,,,,,,,,,,,,,,,,,,,,,,,,,,,,CS1_USpos,space,1,0.686161385383457,,,,,,,,,,,,,,,,,22,f,12,n,2019_Oct_21_1112,ec_RRR,3.0.4,59.9071767980848,
Moran Hussey and Hughes,De target figuur voor deze taak is Shelmet:,"Dus wanneer Shelmet (zijn naam of foto) verschijnt op het scherm, druk dan zo snel mogelijk op de spatiebalk. Druk op de spatiebalk telkens wanneer je een foto van Shelmet of het woord SHELMET ziet. 

Druk op de spatiebalk om de taak te starten.
",target3,stimuli/t3.jpg,12,80,stimuli/blank.jpg,blank,False,None,,,,,,,,,,,,,,0,0,0,0,,,,,0,0,0,2,0,79,79,79,,,,,,,,,,,,,,,,,,,,,,,,,,,,,,,,,,,,,,,,,,,,,,,,,,,,,CS1_USpos,None,1,,,,,,,,,,,,,,,,,,22,f,12,n,2019_Oct_21_1112,ec_RRR,3.0.4,59.9071767980848,
Moran Hussey and Hughes,De target figuur voor deze taak is Shelmet:,"Dus wanneer Shelmet (zijn naam of foto) verschijnt op het scherm, druk dan zo snel mogelijk op de spatiebalk. Druk op de spatiebalk telkens wanneer je een foto van Shelmet of het woord SHELMET ziet. 

Druk op de spatiebalk om de taak te starten.
",target3,stimuli/t3.jpg,12,81,stimuli/cs2_neg19.jpg,CSUS,False,None,,,,,,,,,,,,,,0,0,0,0,,,,,0,0,0,2,0,80,80,80,,,,,,,,,,,,,,,,,,,,,,,,,,,,,,,,,,,,,,,,,,,,,,,,,,,,,CS1_USpos,None,1,,,,,,,,,,,,,,,,,,22,f,12,n,2019_Oct_21_1112,ec_RRR,3.0.4,59.9071767980848,
Moran Hussey and Hughes,De target figuur voor deze taak is Shelmet:,"Dus wanneer Shelmet (zijn naam of foto) verschijnt op het scherm, druk dan zo snel mogelijk op de spatiebalk. Druk op de spatiebalk telkens wanneer je een foto van Shelmet of het woord SHELMET ziet. 

Druk op de spatiebalk om de taak te starten.
",target3,stimuli/t3.jpg,12,82,stimuli/blank.jpg,blank,False,None,,,,,,,,,,,,,,0,0,0,0,,,,,0,0,0,2,0,81,81,81,,,,,,,,,,,,,,,,,,,,,,,,,,,,,,,,,,,,,,,,,,,,,,,,,,,,,CS1_USpos,None,1,,,,,,,,,,,,,,,,,,22,f,12,n,2019_Oct_21_1112,ec_RRR,3.0.4,59.9071767980848,
Moran Hussey and Hughes,De target figuur voor deze taak is Shelmet:,"Dus wanneer Shelmet (zijn naam of foto) verschijnt op het scherm, druk dan zo snel mogelijk op de spatiebalk. Druk op de spatiebalk telkens wanneer je een foto van Shelmet of het woord SHELMET ziet. 

Druk op de spatiebalk om de taak te starten.
",target3,stimuli/t3.jpg,12,83,stimuli/target3_10.jpg,target,True,space,,,,,,,,,,,,,,0,0,0,0,,,,,0,0,0,2,0,82,82,82,,,,,,,,,,,,,,,,,,,,,,,,,,,,,,,,,,,,,,,,,,,,,,,,,,,,,CS1_USpos,space,1,0.4707881410140544,,,,,,,,,,,,,,,,,22,f,12,n,2019_Oct_21_1112,ec_RRR,3.0.4,59.9071767980848,
Moran Hussey and Hughes,De target figuur voor deze taak is Shelmet:,"Dus wanneer Shelmet (zijn naam of foto) verschijnt op het scherm, druk dan zo snel mogelijk op de spatiebalk. Druk op de spatiebalk telkens wanneer je een foto van Shelmet of het woord SHELMET ziet. 

Druk op de spatiebalk om de taak te starten.
",target3,stimuli/t3.jpg,12,84,stimuli/filler24.jpg,filler,False,None,,,,,,,,,,,,,,0,0,0,0,,,,,0,0,0,2,0,83,83,83,,,,,,,,,,,,,,,,,,,,,,,,,,,,,,,,,,,,,,,,,,,,,,,,,,,,,CS1_USpos,None,1,,,,,,,,,,,,,,,,,,22,f,12,n,2019_Oct_21_1112,ec_RRR,3.0.4,59.9071767980848,
Moran Hussey and Hughes,De target figuur voor deze taak is Shelmet:,"Dus wanneer Shelmet (zijn naam of foto) verschijnt op het scherm, druk dan zo snel mogelijk op de spatiebalk. Druk op de spatiebalk telkens wanneer je een foto van Shelmet of het woord SHELMET ziet. 

Druk op de spatiebalk om de taak te starten.
",target3,stimuli/t3.jpg,12,85,stimuli/filler36.jpg,filler,False,None,,,,,,,,,,,,,,0,0,0,0,,,,,0,0,0,2,0,84,84,84,,,,,,,,,,,,,,,,,,,,,,,,,,,,,,,,,,,,,,,,,,,,,,,,,,,,,CS1_USpos,None,1,,,,,,,,,,,,,,,,,,22,f,12,n,2019_Oct_21_1112,ec_RRR,3.0.4,59.9071767980848,
Moran Hussey and Hughes,De target figuur voor deze taak is Shelmet:,"Dus wanneer Shelmet (zijn naam of foto) verschijnt op het scherm, druk dan zo snel mogelijk op de spatiebalk. Druk op de spatiebalk telkens wanneer je een foto van Shelmet of het woord SHELMET ziet. 

Druk op de spatiebalk om de taak te starten.
",target3,stimuli/t3.jpg,12,86,stimuli/filler33.jpg,filler,False,None,,,,,,,,,,,,,,0,0,0,0,,,,,0,0,0,2,0,85,85,85,,,,,,,,,,,,,,,,,,,,,,,,,,,,,,,,,,,,,,,,,,,,,,,,,,,,,CS1_USpos,None,1,,,,,,,,,,,,,,,,,,22,f,12,n,2019_Oct_21_1112,ec_RRR,3.0.4,59.9071767980848,
Moran Hussey and Hughes,De target figuur voor deze taak is Zorua:,"Dus wanneer Zorua (zijn naam of foto) verschijnt op het scherm, druk dan zo snel mogelijk op de spatiebalk. Druk op de spatiebalk wanneer je een foto van Zorua of het woord ZORUA ziet.  

Druk op de spatiebalk om de taak te starten.
",target5,stimuli/t5.jpg,12,1,stimuli/filler11.jpg,filler,False,None,,,,,,,,,,,,,,0,0,0,0,,,,,0,1,1,4,0,0,0,0,,,,,,,,,,,,,,,,,,,,,,,,,,,,,,,,,,,,,,,,,,,,,,,,,,,,,CS1_USpos,None,1,,,,,,,,,,,,,,,,,,22,f,12,n,2019_Oct_21_1112,ec_RRR,3.0.4,59.9071767980848,
Moran Hussey and Hughes,De target figuur voor deze taak is Zorua:,"Dus wanneer Zorua (zijn naam of foto) verschijnt op het scherm, druk dan zo snel mogelijk op de spatiebalk. Druk op de spatiebalk wanneer je een foto van Zorua of het woord ZORUA ziet.  

Druk op de spatiebalk om de taak te starten.
",target5,stimuli/t5.jpg,12,2,stimuli/filler18.jpg,filler,False,None,,,,,,,,,,,,,,0,0,0,0,,,,,0,1,1,4,0,1,1,1,,,,,,,,,,,,,,,,,,,,,,,,,,,,,,,,,,,,,,,,,,,,,,,,,,,,,CS1_USpos,None,1,,,,,,,,,,,,,,,,,,22,f,12,n,2019_Oct_21_1112,ec_RRR,3.0.4,59.9071767980848,
Moran Hussey and Hughes,De target figuur voor deze taak is Zorua:,"Dus wanneer Zorua (zijn naam of foto) verschijnt op het scherm, druk dan zo snel mogelijk op de spatiebalk. Druk op de spatiebalk wanneer je een foto van Zorua of het woord ZORUA ziet.  

Druk op de spatiebalk om de taak te starten.
",target5,stimuli/t5.jpg,12,3,stimuli/filler4.jpg,filler,False,None,,,,,,,,,,,,,,0,0,0,0,,,,,0,1,1,4,0,2,2,2,,,,,,,,,,,,,,,,,,,,,,,,,,,,,,,,,,,,,,,,,,,,,,,,,,,,,CS1_USpos,None,1,,,,,,,,,,,,,,,,,,22,f,12,n,2019_Oct_21_1112,ec_RRR,3.0.4,59.9071767980848,
Moran Hussey and Hughes,De target figuur voor deze taak is Zorua:,"Dus wanneer Zorua (zijn naam of foto) verschijnt op het scherm, druk dan zo snel mogelijk op de spatiebalk. Druk op de spatiebalk wanneer je een foto van Zorua of het woord ZORUA ziet.  

Druk op de spatiebalk om de taak te starten.
",target5,stimuli/t5.jpg,12,4,stimuli/target5_6.jpg,target,True,space,,,,,,,,,,,,,,0,0,0,0,,,,,0,1,1,4,0,3,3,3,,,,,,,,,,,,,,,,,,,,,,,,,,,,,,,,,,,,,,,,,,,,,,,,,,,,,CS1_USpos,space,1,0.4843174429552164,,,,,,,,,,,,,,,,,22,f,12,n,2019_Oct_21_1112,ec_RRR,3.0.4,59.9071767980848,
Moran Hussey and Hughes,De target figuur voor deze taak is Zorua:,"Dus wanneer Zorua (zijn naam of foto) verschijnt op het scherm, druk dan zo snel mogelijk op de spatiebalk. Druk op de spatiebalk wanneer je een foto van Zorua of het woord ZORUA ziet.  

Druk op de spatiebalk om de taak te starten.
",target5,stimuli/t5.jpg,12,5,stimuli/filler13.jpg,filler,False,None,,,,,,,,,,,,,,0,0,0,0,,,,,0,1,1,4,0,4,4,4,,,,,,,,,,,,,,,,,,,,,,,,,,,,,,,,,,,,,,,,,,,,,,,,,,,,,CS1_USpos,None,1,,,,,,,,,,,,,,,,,,22,f,12,n,2019_Oct_21_1112,ec_RRR,3.0.4,59.9071767980848,
Moran Hussey and Hughes,De target figuur voor deze taak is Zorua:,"Dus wanneer Zorua (zijn naam of foto) verschijnt op het scherm, druk dan zo snel mogelijk op de spatiebalk. Druk op de spatiebalk wanneer je een foto van Zorua of het woord ZORUA ziet.  

Druk op de spatiebalk om de taak te starten.
",target5,stimuli/t5.jpg,12,6,stimuli/filler14.jpg,filler,False,None,,,,,,,,,,,,,,0,0,0,0,,,,,0,1,1,4,0,5,5,5,,,,,,,,,,,,,,,,,,,,,,,,,,,,,,,,,,,,,,,,,,,,,,,,,,,,,CS1_USpos,None,1,,,,,,,,,,,,,,,,,,22,f,12,n,2019_Oct_21_1112,ec_RRR,3.0.4,59.9071767980848,
Moran Hussey and Hughes,De target figuur voor deze taak is Zorua:,"Dus wanneer Zorua (zijn naam of foto) verschijnt op het scherm, druk dan zo snel mogelijk op de spatiebalk. Druk op de spatiebalk wanneer je een foto van Zorua of het woord ZORUA ziet.  

Druk op de spatiebalk om de taak te starten.
",target5,stimuli/t5.jpg,12,7,stimuli/filler38.jpg,filler,False,None,,,,,,,,,,,,,,0,0,0,0,,,,,0,1,1,4,0,6,6,6,,,,,,,,,,,,,,,,,,,,,,,,,,,,,,,,,,,,,,,,,,,,,,,,,,,,,CS1_USpos,None,1,,,,,,,,,,,,,,,,,,22,f,12,n,2019_Oct_21_1112,ec_RRR,3.0.4,59.9071767980848,
Moran Hussey and Hughes,De target figuur voor deze taak is Zorua:,"Dus wanneer Zorua (zijn naam of foto) verschijnt op het scherm, druk dan zo snel mogelijk op de spatiebalk. Druk op de spatiebalk wanneer je een foto van Zorua of het woord ZORUA ziet.  

Druk op de spatiebalk om de taak te starten.
",target5,stimuli/t5.jpg,12,8,stimuli/filler9.jpg,filler,False,None,,,,,,,,,,,,,,0,0,0,0,,,,,0,1,1,4,0,7,7,7,,,,,,,,,,,,,,,,,,,,,,,,,,,,,,,,,,,,,,,,,,,,,,,,,,,,,CS1_USpos,None,1,,,,,,,,,,,,,,,,,,22,f,12,n,2019_Oct_21_1112,ec_RRR,3.0.4,59.9071767980848,
Moran Hussey and Hughes,De target figuur voor deze taak is Zorua:,"Dus wanneer Zorua (zijn naam of foto) verschijnt op het scherm, druk dan zo snel mogelijk op de spatiebalk. Druk op de spatiebalk wanneer je een foto van Zorua of het woord ZORUA ziet.  

Druk op de spatiebalk om de taak te starten.
",target5,stimuli/t5.jpg,12,9,stimuli/filler26.jpg,filler,False,None,,,,,,,,,,,,,,0,0,0,0,,,,,0,1,1,4,0,8,8,8,,,,,,,,,,,,,,,,,,,,,,,,,,,,,,,,,,,,,,,,,,,,,,,,,,,,,CS1_USpos,None,1,,,,,,,,,,,,,,,,,,22,f,12,n,2019_Oct_21_1112,ec_RRR,3.0.4,59.9071767980848,
Moran Hussey and Hughes,De target figuur voor deze taak is Zorua:,"Dus wanneer Zorua (zijn naam of foto) verschijnt op het scherm, druk dan zo snel mogelijk op de spatiebalk. Druk op de spatiebalk wanneer je een foto van Zorua of het woord ZORUA ziet.  

Druk op de spatiebalk om de taak te starten.
",target5,stimuli/t5.jpg,12,10,stimuli/blank.jpg,blank,False,None,,,,,,,,,,,,,,0,0,0,0,,,,,0,1,1,4,0,9,9,9,,,,,,,,,,,,,,,,,,,,,,,,,,,,,,,,,,,,,,,,,,,,,,,,,,,,,CS1_USpos,None,1,,,,,,,,,,,,,,,,,,22,f,12,n,2019_Oct_21_1112,ec_RRR,3.0.4,59.9071767980848,
Moran Hussey and Hughes,De target figuur voor deze taak is Zorua:,"Dus wanneer Zorua (zijn naam of foto) verschijnt op het scherm, druk dan zo snel mogelijk op de spatiebalk. Druk op de spatiebalk wanneer je een foto van Zorua of het woord ZORUA ziet.  

Druk op de spatiebalk om de taak te starten.
",target5,stimuli/t5.jpg,12,11,stimuli/cs1_pos14.jpg,CSUS,False,None,,,,,,,,,,,,,,0,0,0,0,,,,,0,1,1,4,0,10,10,10,,,,,,,,,,,,,,,,,,,,,,,,,,,,,,,,,,,,,,,,,,,,,,,,,,,,,CS1_USpos,None,1,,,,,,,,,,,,,,,,,,22,f,12,n,2019_Oct_21_1112,ec_RRR,3.0.4,59.9071767980848,
Moran Hussey and Hughes,De target figuur voor deze taak is Zorua:,"Dus wanneer Zorua (zijn naam of foto) verschijnt op het scherm, druk dan zo snel mogelijk op de spatiebalk. Druk op de spatiebalk wanneer je een foto van Zorua of het woord ZORUA ziet.  

Druk op de spatiebalk om de taak te starten.
",target5,stimuli/t5.jpg,12,12,stimuli/blank.jpg,blank,False,None,,,,,,,,,,,,,,0,0,0,0,,,,,0,1,1,4,0,11,11,11,,,,,,,,,,,,,,,,,,,,,,,,,,,,,,,,,,,,,,,,,,,,,,,,,,,,,CS1_USpos,None,1,,,,,,,,,,,,,,,,,,22,f,12,n,2019_Oct_21_1112,ec_RRR,3.0.4,59.9071767980848,
Moran Hussey and Hughes,De target figuur voor deze taak is Zorua:,"Dus wanneer Zorua (zijn naam of foto) verschijnt op het scherm, druk dan zo snel mogelijk op de spatiebalk. Druk op de spatiebalk wanneer je een foto van Zorua of het woord ZORUA ziet.  

Druk op de spatiebalk om de taak te starten.
",target5,stimuli/t5.jpg,12,13,stimuli/filler27.jpg,filler,False,None,,,,,,,,,,,,,,0,0,0,0,,,,,0,1,1,4,0,12,12,12,,,,,,,,,,,,,,,,,,,,,,,,,,,,,,,,,,,,,,,,,,,,,,,,,,,,,CS1_USpos,None,1,,,,,,,,,,,,,,,,,,22,f,12,n,2019_Oct_21_1112,ec_RRR,3.0.4,59.9071767980848,
Moran Hussey and Hughes,De target figuur voor deze taak is Zorua:,"Dus wanneer Zorua (zijn naam of foto) verschijnt op het scherm, druk dan zo snel mogelijk op de spatiebalk. Druk op de spatiebalk wanneer je een foto van Zorua of het woord ZORUA ziet.  

Druk op de spatiebalk om de taak te starten.
",target5,stimuli/t5.jpg,12,14,stimuli/filler46.jpg,filler,False,None,,,,,,,,,,,,,,0,0,0,0,,,,,0,1,1,4,0,13,13,13,,,,,,,,,,,,,,,,,,,,,,,,,,,,,,,,,,,,,,,,,,,,,,,,,,,,,CS1_USpos,None,1,,,,,,,,,,,,,,,,,,22,f,12,n,2019_Oct_21_1112,ec_RRR,3.0.4,59.9071767980848,
Moran Hussey and Hughes,De target figuur voor deze taak is Zorua:,"Dus wanneer Zorua (zijn naam of foto) verschijnt op het scherm, druk dan zo snel mogelijk op de spatiebalk. Druk op de spatiebalk wanneer je een foto van Zorua of het woord ZORUA ziet.  

Druk op de spatiebalk om de taak te starten.
",target5,stimuli/t5.jpg,12,15,stimuli/filler22.jpg,filler,False,None,,,,,,,,,,,,,,0,0,0,0,,,,,0,1,1,4,0,14,14,14,,,,,,,,,,,,,,,,,,,,,,,,,,,,,,,,,,,,,,,,,,,,,,,,,,,,,CS1_USpos,None,1,,,,,,,,,,,,,,,,,,22,f,12,n,2019_Oct_21_1112,ec_RRR,3.0.4,59.9071767980848,
Moran Hussey and Hughes,De target figuur voor deze taak is Zorua:,"Dus wanneer Zorua (zijn naam of foto) verschijnt op het scherm, druk dan zo snel mogelijk op de spatiebalk. Druk op de spatiebalk wanneer je een foto van Zorua of het woord ZORUA ziet.  

Druk op de spatiebalk om de taak te starten.
",target5,stimuli/t5.jpg,12,16,stimuli/filler37.jpg,filler,False,None,,,,,,,,,,,,,,0,0,0,0,,,,,0,1,1,4,0,15,15,15,,,,,,,,,,,,,,,,,,,,,,,,,,,,,,,,,,,,,,,,,,,,,,,,,,,,,CS1_USpos,None,1,,,,,,,,,,,,,,,,,,22,f,12,n,2019_Oct_21_1112,ec_RRR,3.0.4,59.9071767980848,
Moran Hussey and Hughes,De target figuur voor deze taak is Zorua:,"Dus wanneer Zorua (zijn naam of foto) verschijnt op het scherm, druk dan zo snel mogelijk op de spatiebalk. Druk op de spatiebalk wanneer je een foto van Zorua of het woord ZORUA ziet.  

Druk op de spatiebalk om de taak te starten.
",target5,stimuli/t5.jpg,12,17,stimuli/filler24.jpg,filler,False,None,,,,,,,,,,,,,,0,0,0,0,,,,,0,1,1,4,0,16,16,16,,,,,,,,,,,,,,,,,,,,,,,,,,,,,,,,,,,,,,,,,,,,,,,,,,,,,CS1_USpos,None,1,,,,,,,,,,,,,,,,,,22,f,12,n,2019_Oct_21_1112,ec_RRR,3.0.4,59.9071767980848,
Moran Hussey and Hughes,De target figuur voor deze taak is Zorua:,"Dus wanneer Zorua (zijn naam of foto) verschijnt op het scherm, druk dan zo snel mogelijk op de spatiebalk. Druk op de spatiebalk wanneer je een foto van Zorua of het woord ZORUA ziet.  

Druk op de spatiebalk om de taak te starten.
",target5,stimuli/t5.jpg,12,18,stimuli/filler48.jpg,filler,False,None,,,,,,,,,,,,,,0,0,0,0,,,,,0,1,1,4,0,17,17,17,,,,,,,,,,,,,,,,,,,,,,,,,,,,,,,,,,,,,,,,,,,,,,,,,,,,,CS1_USpos,None,1,,,,,,,,,,,,,,,,,,22,f,12,n,2019_Oct_21_1112,ec_RRR,3.0.4,59.9071767980848,
Moran Hussey and Hughes,De target figuur voor deze taak is Zorua:,"Dus wanneer Zorua (zijn naam of foto) verschijnt op het scherm, druk dan zo snel mogelijk op de spatiebalk. Druk op de spatiebalk wanneer je een foto van Zorua of het woord ZORUA ziet.  

Druk op de spatiebalk om de taak te starten.
",target5,stimuli/t5.jpg,12,19,stimuli/target5_9.jpg,target,True,space,,,,,,,,,,,,,,0,0,0,0,,,,,0,1,1,4,0,18,18,18,,,,,,,,,,,,,,,,,,,,,,,,,,,,,,,,,,,,,,,,,,,,,,,,,,,,,CS1_USpos,space,1,0.6518197863770183,,,,,,,,,,,,,,,,,22,f,12,n,2019_Oct_21_1112,ec_RRR,3.0.4,59.9071767980848,
Moran Hussey and Hughes,De target figuur voor deze taak is Zorua:,"Dus wanneer Zorua (zijn naam of foto) verschijnt op het scherm, druk dan zo snel mogelijk op de spatiebalk. Druk op de spatiebalk wanneer je een foto van Zorua of het woord ZORUA ziet.  

Druk op de spatiebalk om de taak te starten.
",target5,stimuli/t5.jpg,12,20,stimuli/blank.jpg,blank,False,None,,,,,,,,,,,,,,0,0,0,0,,,,,0,1,1,4,0,19,19,19,,,,,,,,,,,,,,,,,,,,,,,,,,,,,,,,,,,,,,,,,,,,,,,,,,,,,CS1_USpos,None,1,,,,,,,,,,,,,,,,,,22,f,12,n,2019_Oct_21_1112,ec_RRR,3.0.4,59.9071767980848,
Moran Hussey and Hughes,De target figuur voor deze taak is Zorua:,"Dus wanneer Zorua (zijn naam of foto) verschijnt op het scherm, druk dan zo snel mogelijk op de spatiebalk. Druk op de spatiebalk wanneer je een foto van Zorua of het woord ZORUA ziet.  

Druk op de spatiebalk om de taak te starten.
",target5,stimuli/t5.jpg,12,21,stimuli/cs2_neg1.jpg,CSUS,False,None,,,,,,,,,,,,,,0,0,0,0,,,,,0,1,1,4,0,20,20,20,,,,,,,,,,,,,,,,,,,,,,,,,,,,,,,,,,,,,,,,,,,,,,,,,,,,,CS1_USpos,None,1,,,,,,,,,,,,,,,,,,22,f,12,n,2019_Oct_21_1112,ec_RRR,3.0.4,59.9071767980848,
Moran Hussey and Hughes,De target figuur voor deze taak is Zorua:,"Dus wanneer Zorua (zijn naam of foto) verschijnt op het scherm, druk dan zo snel mogelijk op de spatiebalk. Druk op de spatiebalk wanneer je een foto van Zorua of het woord ZORUA ziet.  

Druk op de spatiebalk om de taak te starten.
",target5,stimuli/t5.jpg,12,22,stimuli/blank.jpg,blank,False,None,,,,,,,,,,,,,,0,0,0,0,,,,,0,1,1,4,0,21,21,21,,,,,,,,,,,,,,,,,,,,,,,,,,,,,,,,,,,,,,,,,,,,,,,,,,,,,CS1_USpos,None,1,,,,,,,,,,,,,,,,,,22,f,12,n,2019_Oct_21_1112,ec_RRR,3.0.4,59.9071767980848,
Moran Hussey and Hughes,De target figuur voor deze taak is Zorua:,"Dus wanneer Zorua (zijn naam of foto) verschijnt op het scherm, druk dan zo snel mogelijk op de spatiebalk. Druk op de spatiebalk wanneer je een foto van Zorua of het woord ZORUA ziet.  

Druk op de spatiebalk om de taak te starten.
",target5,stimuli/t5.jpg,12,23,stimuli/target5_1.jpg,target,True,space,,,,,,,,,,,,,,0,0,0,0,,,,,0,1,1,4,0,22,22,22,,,,,,,,,,,,,,,,,,,,,,,,,,,,,,,,,,,,,,,,,,,,,,,,,,,,,CS1_USpos,space,1,0.6377061202365439,,,,,,,,,,,,,,,,,22,f,12,n,2019_Oct_21_1112,ec_RRR,3.0.4,59.9071767980848,
Moran Hussey and Hughes,De target figuur voor deze taak is Zorua:,"Dus wanneer Zorua (zijn naam of foto) verschijnt op het scherm, druk dan zo snel mogelijk op de spatiebalk. Druk op de spatiebalk wanneer je een foto van Zorua of het woord ZORUA ziet.  

Druk op de spatiebalk om de taak te starten.
",target5,stimuli/t5.jpg,12,24,stimuli/filler40.jpg,filler,False,None,,,,,,,,,,,,,,0,0,0,0,,,,,0,1,1,4,0,23,23,23,,,,,,,,,,,,,,,,,,,,,,,,,,,,,,,,,,,,,,,,,,,,,,,,,,,,,CS1_USpos,None,1,,,,,,,,,,,,,,,,,,22,f,12,n,2019_Oct_21_1112,ec_RRR,3.0.4,59.9071767980848,
Moran Hussey and Hughes,De target figuur voor deze taak is Zorua:,"Dus wanneer Zorua (zijn naam of foto) verschijnt op het scherm, druk dan zo snel mogelijk op de spatiebalk. Druk op de spatiebalk wanneer je een foto van Zorua of het woord ZORUA ziet.  

Druk op de spatiebalk om de taak te starten.
",target5,stimuli/t5.jpg,12,25,stimuli/filler12.jpg,filler,False,None,,,,,,,,,,,,,,0,0,0,0,,,,,0,1,1,4,0,24,24,24,,,,,,,,,,,,,,,,,,,,,,,,,,,,,,,,,,,,,,,,,,,,,,,,,,,,,CS1_USpos,None,1,,,,,,,,,,,,,,,,,,22,f,12,n,2019_Oct_21_1112,ec_RRR,3.0.4,59.9071767980848,
Moran Hussey and Hughes,De target figuur voor deze taak is Zorua:,"Dus wanneer Zorua (zijn naam of foto) verschijnt op het scherm, druk dan zo snel mogelijk op de spatiebalk. Druk op de spatiebalk wanneer je een foto van Zorua of het woord ZORUA ziet.  

Druk op de spatiebalk om de taak te starten.
",target5,stimuli/t5.jpg,12,26,stimuli/filler15.jpg,filler,False,None,,,,,,,,,,,,,,0,0,0,0,,,,,0,1,1,4,0,25,25,25,,,,,,,,,,,,,,,,,,,,,,,,,,,,,,,,,,,,,,,,,,,,,,,,,,,,,CS1_USpos,None,1,,,,,,,,,,,,,,,,,,22,f,12,n,2019_Oct_21_1112,ec_RRR,3.0.4,59.9071767980848,
Moran Hussey and Hughes,De target figuur voor deze taak is Zorua:,"Dus wanneer Zorua (zijn naam of foto) verschijnt op het scherm, druk dan zo snel mogelijk op de spatiebalk. Druk op de spatiebalk wanneer je een foto van Zorua of het woord ZORUA ziet.  

Druk op de spatiebalk om de taak te starten.
",target5,stimuli/t5.jpg,12,27,stimuli/target5_3.jpg,target,True,space,,,,,,,,,,,,,,0,0,0,0,,,,,0,1,1,4,0,26,26,26,,,,,,,,,,,,,,,,,,,,,,,,,,,,,,,,,,,,,,,,,,,,,,,,,,,,,CS1_USpos,space,1,0.521749089093646,,,,,,,,,,,,,,,,,22,f,12,n,2019_Oct_21_1112,ec_RRR,3.0.4,59.9071767980848,
Moran Hussey and Hughes,De target figuur voor deze taak is Zorua:,"Dus wanneer Zorua (zijn naam of foto) verschijnt op het scherm, druk dan zo snel mogelijk op de spatiebalk. Druk op de spatiebalk wanneer je een foto van Zorua of het woord ZORUA ziet.  

Druk op de spatiebalk om de taak te starten.
",target5,stimuli/t5.jpg,12,28,stimuli/filler33.jpg,filler,False,None,,,,,,,,,,,,,,0,0,0,0,,,,,0,1,1,4,0,27,27,27,,,,,,,,,,,,,,,,,,,,,,,,,,,,,,,,,,,,,,,,,,,,,,,,,,,,,CS1_USpos,None,1,,,,,,,,,,,,,,,,,,22,f,12,n,2019_Oct_21_1112,ec_RRR,3.0.4,59.9071767980848,
Moran Hussey and Hughes,De target figuur voor deze taak is Zorua:,"Dus wanneer Zorua (zijn naam of foto) verschijnt op het scherm, druk dan zo snel mogelijk op de spatiebalk. Druk op de spatiebalk wanneer je een foto van Zorua of het woord ZORUA ziet.  

Druk op de spatiebalk om de taak te starten.
",target5,stimuli/t5.jpg,12,29,stimuli/filler23.jpg,filler,False,None,,,,,,,,,,,,,,0,0,0,0,,,,,0,1,1,4,0,28,28,28,,,,,,,,,,,,,,,,,,,,,,,,,,,,,,,,,,,,,,,,,,,,,,,,,,,,,CS1_USpos,None,1,,,,,,,,,,,,,,,,,,22,f,12,n,2019_Oct_21_1112,ec_RRR,3.0.4,59.9071767980848,
Moran Hussey and Hughes,De target figuur voor deze taak is Zorua:,"Dus wanneer Zorua (zijn naam of foto) verschijnt op het scherm, druk dan zo snel mogelijk op de spatiebalk. Druk op de spatiebalk wanneer je een foto van Zorua of het woord ZORUA ziet.  

Druk op de spatiebalk om de taak te starten.
",target5,stimuli/t5.jpg,12,30,stimuli/blank.jpg,blank,False,None,,,,,,,,,,,,,,0,0,0,0,,,,,0,1,1,4,0,29,29,29,,,,,,,,,,,,,,,,,,,,,,,,,,,,,,,,,,,,,,,,,,,,,,,,,,,,,CS1_USpos,None,1,,,,,,,,,,,,,,,,,,22,f,12,n,2019_Oct_21_1112,ec_RRR,3.0.4,59.9071767980848,
Moran Hussey and Hughes,De target figuur voor deze taak is Zorua:,"Dus wanneer Zorua (zijn naam of foto) verschijnt op het scherm, druk dan zo snel mogelijk op de spatiebalk. Druk op de spatiebalk wanneer je een foto van Zorua of het woord ZORUA ziet.  

Druk op de spatiebalk om de taak te starten.
",target5,stimuli/t5.jpg,12,31,stimuli/cs1_pos12.jpg,CSUS,False,None,,,,,,,,,,,,,,0,0,0,0,,,,,0,1,1,4,0,30,30,30,,,,,,,,,,,,,,,,,,,,,,,,,,,,,,,,,,,,,,,,,,,,,,,,,,,,,CS1_USpos,None,1,,,,,,,,,,,,,,,,,,22,f,12,n,2019_Oct_21_1112,ec_RRR,3.0.4,59.9071767980848,
Moran Hussey and Hughes,De target figuur voor deze taak is Zorua:,"Dus wanneer Zorua (zijn naam of foto) verschijnt op het scherm, druk dan zo snel mogelijk op de spatiebalk. Druk op de spatiebalk wanneer je een foto van Zorua of het woord ZORUA ziet.  

Druk op de spatiebalk om de taak te starten.
",target5,stimuli/t5.jpg,12,32,stimuli/blank.jpg,blank,False,None,,,,,,,,,,,,,,0,0,0,0,,,,,0,1,1,4,0,31,31,31,,,,,,,,,,,,,,,,,,,,,,,,,,,,,,,,,,,,,,,,,,,,,,,,,,,,,CS1_USpos,None,1,,,,,,,,,,,,,,,,,,22,f,12,n,2019_Oct_21_1112,ec_RRR,3.0.4,59.9071767980848,
Moran Hussey and Hughes,De target figuur voor deze taak is Zorua:,"Dus wanneer Zorua (zijn naam of foto) verschijnt op het scherm, druk dan zo snel mogelijk op de spatiebalk. Druk op de spatiebalk wanneer je een foto van Zorua of het woord ZORUA ziet.  

Druk op de spatiebalk om de taak te starten.
",target5,stimuli/t5.jpg,12,33,stimuli/filler3.jpg,filler,False,None,,,,,,,,,,,,,,0,0,0,0,,,,,0,1,1,4,0,32,32,32,,,,,,,,,,,,,,,,,,,,,,,,,,,,,,,,,,,,,,,,,,,,,,,,,,,,,CS1_USpos,None,1,,,,,,,,,,,,,,,,,,22,f,12,n,2019_Oct_21_1112,ec_RRR,3.0.4,59.9071767980848,
Moran Hussey and Hughes,De target figuur voor deze taak is Zorua:,"Dus wanneer Zorua (zijn naam of foto) verschijnt op het scherm, druk dan zo snel mogelijk op de spatiebalk. Druk op de spatiebalk wanneer je een foto van Zorua of het woord ZORUA ziet.  

Druk op de spatiebalk om de taak te starten.
",target5,stimuli/t5.jpg,12,34,stimuli/filler52.jpg,filler,False,None,,,,,,,,,,,,,,0,0,0,0,,,,,0,1,1,4,0,33,33,33,,,,,,,,,,,,,,,,,,,,,,,,,,,,,,,,,,,,,,,,,,,,,,,,,,,,,CS1_USpos,None,1,,,,,,,,,,,,,,,,,,22,f,12,n,2019_Oct_21_1112,ec_RRR,3.0.4,59.9071767980848,
Moran Hussey and Hughes,De target figuur voor deze taak is Zorua:,"Dus wanneer Zorua (zijn naam of foto) verschijnt op het scherm, druk dan zo snel mogelijk op de spatiebalk. Druk op de spatiebalk wanneer je een foto van Zorua of het woord ZORUA ziet.  

Druk op de spatiebalk om de taak te starten.
",target5,stimuli/t5.jpg,12,35,stimuli/target5_10.jpg,target,True,space,,,,,,,,,,,,,,0,0,0,0,,,,,0,1,1,4,0,34,34,34,,,,,,,,,,,,,,,,,,,,,,,,,,,,,,,,,,,,,,,,,,,,,,,,,,,,,CS1_USpos,space,1,0.521480004361365,,,,,,,,,,,,,,,,,22,f,12,n,2019_Oct_21_1112,ec_RRR,3.0.4,59.9071767980848,
Moran Hussey and Hughes,De target figuur voor deze taak is Zorua:,"Dus wanneer Zorua (zijn naam of foto) verschijnt op het scherm, druk dan zo snel mogelijk op de spatiebalk. Druk op de spatiebalk wanneer je een foto van Zorua of het woord ZORUA ziet.  

Druk op de spatiebalk om de taak te starten.
",target5,stimuli/t5.jpg,12,36,stimuli/target5_8.jpg,target,True,space,,,,,,,,,,,,,,0,0,0,0,,,,,0,1,1,4,0,35,35,35,,,,,,,,,,,,,,,,,,,,,,,,,,,,,,,,,,,,,,,,,,,,,,,,,,,,,CS1_USpos,None,0,,,,,,,,,,,,,,,,,,22,f,12,n,2019_Oct_21_1112,ec_RRR,3.0.4,59.9071767980848,
Moran Hussey and Hughes,De target figuur voor deze taak is Zorua:,"Dus wanneer Zorua (zijn naam of foto) verschijnt op het scherm, druk dan zo snel mogelijk op de spatiebalk. Druk op de spatiebalk wanneer je een foto van Zorua of het woord ZORUA ziet.  

Druk op de spatiebalk om de taak te starten.
",target5,stimuli/t5.jpg,12,37,stimuli/filler35.jpg,filler,False,None,,,,,,,,,,,,,,0,0,0,0,,,,,0,1,1,4,0,36,36,36,,,,,,,,,,,,,,,,,,,,,,,,,,,,,,,,,,,,,,,,,,,,,,,,,,,,,CS1_USpos,None,1,,,,,,,,,,,,,,,,,,22,f,12,n,2019_Oct_21_1112,ec_RRR,3.0.4,59.9071767980848,
Moran Hussey and Hughes,De target figuur voor deze taak is Zorua:,"Dus wanneer Zorua (zijn naam of foto) verschijnt op het scherm, druk dan zo snel mogelijk op de spatiebalk. Druk op de spatiebalk wanneer je een foto van Zorua of het woord ZORUA ziet.  

Druk op de spatiebalk om de taak te starten.
",target5,stimuli/t5.jpg,12,38,stimuli/filler8.jpg,filler,False,None,,,,,,,,,,,,,,0,0,0,0,,,,,0,1,1,4,0,37,37,37,,,,,,,,,,,,,,,,,,,,,,,,,,,,,,,,,,,,,,,,,,,,,,,,,,,,,CS1_USpos,None,1,,,,,,,,,,,,,,,,,,22,f,12,n,2019_Oct_21_1112,ec_RRR,3.0.4,59.9071767980848,
Moran Hussey and Hughes,De target figuur voor deze taak is Zorua:,"Dus wanneer Zorua (zijn naam of foto) verschijnt op het scherm, druk dan zo snel mogelijk op de spatiebalk. Druk op de spatiebalk wanneer je een foto van Zorua of het woord ZORUA ziet.  

Druk op de spatiebalk om de taak te starten.
",target5,stimuli/t5.jpg,12,39,stimuli/filler1.jpg,filler,False,None,,,,,,,,,,,,,,0,0,0,0,,,,,0,1,1,4,0,38,38,38,,,,,,,,,,,,,,,,,,,,,,,,,,,,,,,,,,,,,,,,,,,,,,,,,,,,,CS1_USpos,None,1,,,,,,,,,,,,,,,,,,22,f,12,n,2019_Oct_21_1112,ec_RRR,3.0.4,59.9071767980848,
Moran Hussey and Hughes,De target figuur voor deze taak is Zorua:,"Dus wanneer Zorua (zijn naam of foto) verschijnt op het scherm, druk dan zo snel mogelijk op de spatiebalk. Druk op de spatiebalk wanneer je een foto van Zorua of het woord ZORUA ziet.  

Druk op de spatiebalk om de taak te starten.
",target5,stimuli/t5.jpg,12,40,stimuli/blank.jpg,blank,False,None,,,,,,,,,,,,,,0,0,0,0,,,,,0,1,1,4,0,39,39,39,,,,,,,,,,,,,,,,,,,,,,,,,,,,,,,,,,,,,,,,,,,,,,,,,,,,,CS1_USpos,None,1,,,,,,,,,,,,,,,,,,22,f,12,n,2019_Oct_21_1112,ec_RRR,3.0.4,59.9071767980848,
Moran Hussey and Hughes,De target figuur voor deze taak is Zorua:,"Dus wanneer Zorua (zijn naam of foto) verschijnt op het scherm, druk dan zo snel mogelijk op de spatiebalk. Druk op de spatiebalk wanneer je een foto van Zorua of het woord ZORUA ziet.  

Druk op de spatiebalk om de taak te starten.
",target5,stimuli/t5.jpg,12,41,stimuli/cs2_neg8.jpg,CSUS,False,None,,,,,,,,,,,,,,0,0,0,0,,,,,0,1,1,4,0,40,40,40,,,,,,,,,,,,,,,,,,,,,,,,,,,,,,,,,,,,,,,,,,,,,,,,,,,,,CS1_USpos,None,1,,,,,,,,,,,,,,,,,,22,f,12,n,2019_Oct_21_1112,ec_RRR,3.0.4,59.9071767980848,
Moran Hussey and Hughes,De target figuur voor deze taak is Zorua:,"Dus wanneer Zorua (zijn naam of foto) verschijnt op het scherm, druk dan zo snel mogelijk op de spatiebalk. Druk op de spatiebalk wanneer je een foto van Zorua of het woord ZORUA ziet.  

Druk op de spatiebalk om de taak te starten.
",target5,stimuli/t5.jpg,12,42,stimuli/blank.jpg,blank,False,None,,,,,,,,,,,,,,0,0,0,0,,,,,0,1,1,4,0,41,41,41,,,,,,,,,,,,,,,,,,,,,,,,,,,,,,,,,,,,,,,,,,,,,,,,,,,,,CS1_USpos,None,1,,,,,,,,,,,,,,,,,,22,f,12,n,2019_Oct_21_1112,ec_RRR,3.0.4,59.9071767980848,
Moran Hussey and Hughes,De target figuur voor deze taak is Zorua:,"Dus wanneer Zorua (zijn naam of foto) verschijnt op het scherm, druk dan zo snel mogelijk op de spatiebalk. Druk op de spatiebalk wanneer je een foto van Zorua of het woord ZORUA ziet.  

Druk op de spatiebalk om de taak te starten.
",target5,stimuli/t5.jpg,12,43,stimuli/filler6.jpg,filler,False,None,,,,,,,,,,,,,,0,0,0,0,,,,,0,1,1,4,0,42,42,42,,,,,,,,,,,,,,,,,,,,,,,,,,,,,,,,,,,,,,,,,,,,,,,,,,,,,CS1_USpos,None,1,,,,,,,,,,,,,,,,,,22,f,12,n,2019_Oct_21_1112,ec_RRR,3.0.4,59.9071767980848,
Moran Hussey and Hughes,De target figuur voor deze taak is Zorua:,"Dus wanneer Zorua (zijn naam of foto) verschijnt op het scherm, druk dan zo snel mogelijk op de spatiebalk. Druk op de spatiebalk wanneer je een foto van Zorua of het woord ZORUA ziet.  

Druk op de spatiebalk om de taak te starten.
",target5,stimuli/t5.jpg,12,44,stimuli/filler19.jpg,filler,False,None,,,,,,,,,,,,,,0,0,0,0,,,,,0,1,1,4,0,43,43,43,,,,,,,,,,,,,,,,,,,,,,,,,,,,,,,,,,,,,,,,,,,,,,,,,,,,,CS1_USpos,None,1,,,,,,,,,,,,,,,,,,22,f,12,n,2019_Oct_21_1112,ec_RRR,3.0.4,59.9071767980848,
Moran Hussey and Hughes,De target figuur voor deze taak is Zorua:,"Dus wanneer Zorua (zijn naam of foto) verschijnt op het scherm, druk dan zo snel mogelijk op de spatiebalk. Druk op de spatiebalk wanneer je een foto van Zorua of het woord ZORUA ziet.  

Druk op de spatiebalk om de taak te starten.
",target5,stimuli/t5.jpg,12,45,stimuli/target5_4.jpg,target,True,space,,,,,,,,,,,,,,0,0,0,0,,,,,0,1,1,4,0,44,44,44,,,,,,,,,,,,,,,,,,,,,,,,,,,,,,,,,,,,,,,,,,,,,,,,,,,,,CS1_USpos,space,1,0.43579173073521815,,,,,,,,,,,,,,,,,22,f,12,n,2019_Oct_21_1112,ec_RRR,3.0.4,59.9071767980848,
Moran Hussey and Hughes,De target figuur voor deze taak is Zorua:,"Dus wanneer Zorua (zijn naam of foto) verschijnt op het scherm, druk dan zo snel mogelijk op de spatiebalk. Druk op de spatiebalk wanneer je een foto van Zorua of het woord ZORUA ziet.  

Druk op de spatiebalk om de taak te starten.
",target5,stimuli/t5.jpg,12,46,stimuli/filler42.jpg,filler,False,None,,,,,,,,,,,,,,0,0,0,0,,,,,0,1,1,4,0,45,45,45,,,,,,,,,,,,,,,,,,,,,,,,,,,,,,,,,,,,,,,,,,,,,,,,,,,,,CS1_USpos,None,1,,,,,,,,,,,,,,,,,,22,f,12,n,2019_Oct_21_1112,ec_RRR,3.0.4,59.9071767980848,
Moran Hussey and Hughes,De target figuur voor deze taak is Zorua:,"Dus wanneer Zorua (zijn naam of foto) verschijnt op het scherm, druk dan zo snel mogelijk op de spatiebalk. Druk op de spatiebalk wanneer je een foto van Zorua of het woord ZORUA ziet.  

Druk op de spatiebalk om de taak te starten.
",target5,stimuli/t5.jpg,12,47,stimuli/filler45.jpg,filler,False,None,,,,,,,,,,,,,,0,0,0,0,,,,,0,1,1,4,0,46,46,46,,,,,,,,,,,,,,,,,,,,,,,,,,,,,,,,,,,,,,,,,,,,,,,,,,,,,CS1_USpos,None,1,,,,,,,,,,,,,,,,,,22,f,12,n,2019_Oct_21_1112,ec_RRR,3.0.4,59.9071767980848,
Moran Hussey and Hughes,De target figuur voor deze taak is Zorua:,"Dus wanneer Zorua (zijn naam of foto) verschijnt op het scherm, druk dan zo snel mogelijk op de spatiebalk. Druk op de spatiebalk wanneer je een foto van Zorua of het woord ZORUA ziet.  

Druk op de spatiebalk om de taak te starten.
",target5,stimuli/t5.jpg,12,48,stimuli/filler51.jpg,filler,False,None,,,,,,,,,,,,,,0,0,0,0,,,,,0,1,1,4,0,47,47,47,,,,,,,,,,,,,,,,,,,,,,,,,,,,,,,,,,,,,,,,,,,,,,,,,,,,,CS1_USpos,None,1,,,,,,,,,,,,,,,,,,22,f,12,n,2019_Oct_21_1112,ec_RRR,3.0.4,59.9071767980848,
Moran Hussey and Hughes,De target figuur voor deze taak is Zorua:,"Dus wanneer Zorua (zijn naam of foto) verschijnt op het scherm, druk dan zo snel mogelijk op de spatiebalk. Druk op de spatiebalk wanneer je een foto van Zorua of het woord ZORUA ziet.  

Druk op de spatiebalk om de taak te starten.
",target5,stimuli/t5.jpg,12,49,stimuli/filler21.jpg,filler,False,None,,,,,,,,,,,,,,0,0,0,0,,,,,0,1,1,4,0,48,48,48,,,,,,,,,,,,,,,,,,,,,,,,,,,,,,,,,,,,,,,,,,,,,,,,,,,,,CS1_USpos,None,1,,,,,,,,,,,,,,,,,,22,f,12,n,2019_Oct_21_1112,ec_RRR,3.0.4,59.9071767980848,
Moran Hussey and Hughes,De target figuur voor deze taak is Zorua:,"Dus wanneer Zorua (zijn naam of foto) verschijnt op het scherm, druk dan zo snel mogelijk op de spatiebalk. Druk op de spatiebalk wanneer je een foto van Zorua of het woord ZORUA ziet.  

Druk op de spatiebalk om de taak te starten.
",target5,stimuli/t5.jpg,12,50,stimuli/blank.jpg,blank,False,None,,,,,,,,,,,,,,0,0,0,0,,,,,0,1,1,4,0,49,49,49,,,,,,,,,,,,,,,,,,,,,,,,,,,,,,,,,,,,,,,,,,,,,,,,,,,,,CS1_USpos,None,1,,,,,,,,,,,,,,,,,,22,f,12,n,2019_Oct_21_1112,ec_RRR,3.0.4,59.9071767980848,
Moran Hussey and Hughes,De target figuur voor deze taak is Zorua:,"Dus wanneer Zorua (zijn naam of foto) verschijnt op het scherm, druk dan zo snel mogelijk op de spatiebalk. Druk op de spatiebalk wanneer je een foto van Zorua of het woord ZORUA ziet.  

Druk op de spatiebalk om de taak te starten.
",target5,stimuli/t5.jpg,12,51,stimuli/cs1_pos13.jpg,CSUS,False,None,,,,,,,,,,,,,,0,0,0,0,,,,,0,1,1,4,0,50,50,50,,,,,,,,,,,,,,,,,,,,,,,,,,,,,,,,,,,,,,,,,,,,,,,,,,,,,CS1_USpos,None,1,,,,,,,,,,,,,,,,,,22,f,12,n,2019_Oct_21_1112,ec_RRR,3.0.4,59.9071767980848,
Moran Hussey and Hughes,De target figuur voor deze taak is Zorua:,"Dus wanneer Zorua (zijn naam of foto) verschijnt op het scherm, druk dan zo snel mogelijk op de spatiebalk. Druk op de spatiebalk wanneer je een foto van Zorua of het woord ZORUA ziet.  

Druk op de spatiebalk om de taak te starten.
",target5,stimuli/t5.jpg,12,52,stimuli/blank.jpg,blank,False,None,,,,,,,,,,,,,,0,0,0,0,,,,,0,1,1,4,0,51,51,51,,,,,,,,,,,,,,,,,,,,,,,,,,,,,,,,,,,,,,,,,,,,,,,,,,,,,CS1_USpos,None,1,,,,,,,,,,,,,,,,,,22,f,12,n,2019_Oct_21_1112,ec_RRR,3.0.4,59.9071767980848,
Moran Hussey and Hughes,De target figuur voor deze taak is Zorua:,"Dus wanneer Zorua (zijn naam of foto) verschijnt op het scherm, druk dan zo snel mogelijk op de spatiebalk. Druk op de spatiebalk wanneer je een foto van Zorua of het woord ZORUA ziet.  

Druk op de spatiebalk om de taak te starten.
",target5,stimuli/t5.jpg,12,53,stimuli/filler2.jpg,filler,False,None,,,,,,,,,,,,,,0,0,0,0,,,,,0,1,1,4,0,52,52,52,,,,,,,,,,,,,,,,,,,,,,,,,,,,,,,,,,,,,,,,,,,,,,,,,,,,,CS1_USpos,None,1,,,,,,,,,,,,,,,,,,22,f,12,n,2019_Oct_21_1112,ec_RRR,3.0.4,59.9071767980848,
Moran Hussey and Hughes,De target figuur voor deze taak is Zorua:,"Dus wanneer Zorua (zijn naam of foto) verschijnt op het scherm, druk dan zo snel mogelijk op de spatiebalk. Druk op de spatiebalk wanneer je een foto van Zorua of het woord ZORUA ziet.  

Druk op de spatiebalk om de taak te starten.
",target5,stimuli/t5.jpg,12,54,stimuli/filler39.jpg,filler,False,None,,,,,,,,,,,,,,0,0,0,0,,,,,0,1,1,4,0,53,53,53,,,,,,,,,,,,,,,,,,,,,,,,,,,,,,,,,,,,,,,,,,,,,,,,,,,,,CS1_USpos,None,1,,,,,,,,,,,,,,,,,,22,f,12,n,2019_Oct_21_1112,ec_RRR,3.0.4,59.9071767980848,
Moran Hussey and Hughes,De target figuur voor deze taak is Zorua:,"Dus wanneer Zorua (zijn naam of foto) verschijnt op het scherm, druk dan zo snel mogelijk op de spatiebalk. Druk op de spatiebalk wanneer je een foto van Zorua of het woord ZORUA ziet.  

Druk op de spatiebalk om de taak te starten.
",target5,stimuli/t5.jpg,12,55,stimuli/target5_2.jpg,target,True,space,,,,,,,,,,,,,,0,0,0,0,,,,,0,1,1,4,0,54,54,54,,,,,,,,,,,,,,,,,,,,,,,,,,,,,,,,,,,,,,,,,,,,,,,,,,,,,CS1_USpos,space,1,0.5057668433000799,,,,,,,,,,,,,,,,,22,f,12,n,2019_Oct_21_1112,ec_RRR,3.0.4,59.9071767980848,
Moran Hussey and Hughes,De target figuur voor deze taak is Zorua:,"Dus wanneer Zorua (zijn naam of foto) verschijnt op het scherm, druk dan zo snel mogelijk op de spatiebalk. Druk op de spatiebalk wanneer je een foto van Zorua of het woord ZORUA ziet.  

Druk op de spatiebalk om de taak te starten.
",target5,stimuli/t5.jpg,12,56,stimuli/target5_7.jpg,target,True,space,,,,,,,,,,,,,,0,0,0,0,,,,,0,1,1,4,0,55,55,55,,,,,,,,,,,,,,,,,,,,,,,,,,,,,,,,,,,,,,,,,,,,,,,,,,,,,CS1_USpos,space,1,0.7499386956333183,,,,,,,,,,,,,,,,,22,f,12,n,2019_Oct_21_1112,ec_RRR,3.0.4,59.9071767980848,
Moran Hussey and Hughes,De target figuur voor deze taak is Zorua:,"Dus wanneer Zorua (zijn naam of foto) verschijnt op het scherm, druk dan zo snel mogelijk op de spatiebalk. Druk op de spatiebalk wanneer je een foto van Zorua of het woord ZORUA ziet.  

Druk op de spatiebalk om de taak te starten.
",target5,stimuli/t5.jpg,12,57,stimuli/filler32.jpg,filler,False,None,,,,,,,,,,,,,,0,0,0,0,,,,,0,1,1,4,0,56,56,56,,,,,,,,,,,,,,,,,,,,,,,,,,,,,,,,,,,,,,,,,,,,,,,,,,,,,CS1_USpos,None,1,,,,,,,,,,,,,,,,,,22,f,12,n,2019_Oct_21_1112,ec_RRR,3.0.4,59.9071767980848,
Moran Hussey and Hughes,De target figuur voor deze taak is Zorua:,"Dus wanneer Zorua (zijn naam of foto) verschijnt op het scherm, druk dan zo snel mogelijk op de spatiebalk. Druk op de spatiebalk wanneer je een foto van Zorua of het woord ZORUA ziet.  

Druk op de spatiebalk om de taak te starten.
",target5,stimuli/t5.jpg,12,58,stimuli/filler31.jpg,filler,False,None,,,,,,,,,,,,,,0,0,0,0,,,,,0,1,1,4,0,57,57,57,,,,,,,,,,,,,,,,,,,,,,,,,,,,,,,,,,,,,,,,,,,,,,,,,,,,,CS1_USpos,None,1,,,,,,,,,,,,,,,,,,22,f,12,n,2019_Oct_21_1112,ec_RRR,3.0.4,59.9071767980848,
Moran Hussey and Hughes,De target figuur voor deze taak is Zorua:,"Dus wanneer Zorua (zijn naam of foto) verschijnt op het scherm, druk dan zo snel mogelijk op de spatiebalk. Druk op de spatiebalk wanneer je een foto van Zorua of het woord ZORUA ziet.  

Druk op de spatiebalk om de taak te starten.
",target5,stimuli/t5.jpg,12,59,stimuli/filler43.jpg,filler,False,None,,,,,,,,,,,,,,0,0,0,0,,,,,0,1,1,4,0,58,58,58,,,,,,,,,,,,,,,,,,,,,,,,,,,,,,,,,,,,,,,,,,,,,,,,,,,,,CS1_USpos,None,1,,,,,,,,,,,,,,,,,,22,f,12,n,2019_Oct_21_1112,ec_RRR,3.0.4,59.9071767980848,
Moran Hussey and Hughes,De target figuur voor deze taak is Zorua:,"Dus wanneer Zorua (zijn naam of foto) verschijnt op het scherm, druk dan zo snel mogelijk op de spatiebalk. Druk op de spatiebalk wanneer je een foto van Zorua of het woord ZORUA ziet.  

Druk op de spatiebalk om de taak te starten.
",target5,stimuli/t5.jpg,12,60,stimuli/blank.jpg,blank,False,None,,,,,,,,,,,,,,0,0,0,0,,,,,0,1,1,4,0,59,59,59,,,,,,,,,,,,,,,,,,,,,,,,,,,,,,,,,,,,,,,,,,,,,,,,,,,,,CS1_USpos,None,1,,,,,,,,,,,,,,,,,,22,f,12,n,2019_Oct_21_1112,ec_RRR,3.0.4,59.9071767980848,
Moran Hussey and Hughes,De target figuur voor deze taak is Zorua:,"Dus wanneer Zorua (zijn naam of foto) verschijnt op het scherm, druk dan zo snel mogelijk op de spatiebalk. Druk op de spatiebalk wanneer je een foto van Zorua of het woord ZORUA ziet.  

Druk op de spatiebalk om de taak te starten.
",target5,stimuli/t5.jpg,12,61,stimuli/cs2_neg4.jpg,CSUS,False,None,,,,,,,,,,,,,,0,0,0,0,,,,,0,1,1,4,0,60,60,60,,,,,,,,,,,,,,,,,,,,,,,,,,,,,,,,,,,,,,,,,,,,,,,,,,,,,CS1_USpos,None,1,,,,,,,,,,,,,,,,,,22,f,12,n,2019_Oct_21_1112,ec_RRR,3.0.4,59.9071767980848,
Moran Hussey and Hughes,De target figuur voor deze taak is Zorua:,"Dus wanneer Zorua (zijn naam of foto) verschijnt op het scherm, druk dan zo snel mogelijk op de spatiebalk. Druk op de spatiebalk wanneer je een foto van Zorua of het woord ZORUA ziet.  

Druk op de spatiebalk om de taak te starten.
",target5,stimuli/t5.jpg,12,62,stimuli/blank.jpg,blank,False,None,,,,,,,,,,,,,,0,0,0,0,,,,,0,1,1,4,0,61,61,61,,,,,,,,,,,,,,,,,,,,,,,,,,,,,,,,,,,,,,,,,,,,,,,,,,,,,CS1_USpos,None,1,,,,,,,,,,,,,,,,,,22,f,12,n,2019_Oct_21_1112,ec_RRR,3.0.4,59.9071767980848,
Moran Hussey and Hughes,De target figuur voor deze taak is Zorua:,"Dus wanneer Zorua (zijn naam of foto) verschijnt op het scherm, druk dan zo snel mogelijk op de spatiebalk. Druk op de spatiebalk wanneer je een foto van Zorua of het woord ZORUA ziet.  

Druk op de spatiebalk om de taak te starten.
",target5,stimuli/t5.jpg,12,63,stimuli/filler25.jpg,filler,False,None,,,,,,,,,,,,,,0,0,0,0,,,,,0,1,1,4,0,62,62,62,,,,,,,,,,,,,,,,,,,,,,,,,,,,,,,,,,,,,,,,,,,,,,,,,,,,,CS1_USpos,None,1,,,,,,,,,,,,,,,,,,22,f,12,n,2019_Oct_21_1112,ec_RRR,3.0.4,59.9071767980848,
Moran Hussey and Hughes,De target figuur voor deze taak is Zorua:,"Dus wanneer Zorua (zijn naam of foto) verschijnt op het scherm, druk dan zo snel mogelijk op de spatiebalk. Druk op de spatiebalk wanneer je een foto van Zorua of het woord ZORUA ziet.  

Druk op de spatiebalk om de taak te starten.
",target5,stimuli/t5.jpg,12,64,stimuli/filler17.jpg,filler,False,None,,,,,,,,,,,,,,0,0,0,0,,,,,0,1,1,4,0,63,63,63,,,,,,,,,,,,,,,,,,,,,,,,,,,,,,,,,,,,,,,,,,,,,,,,,,,,,CS1_USpos,None,1,,,,,,,,,,,,,,,,,,22,f,12,n,2019_Oct_21_1112,ec_RRR,3.0.4,59.9071767980848,
Moran Hussey and Hughes,De target figuur voor deze taak is Zorua:,"Dus wanneer Zorua (zijn naam of foto) verschijnt op het scherm, druk dan zo snel mogelijk op de spatiebalk. Druk op de spatiebalk wanneer je een foto van Zorua of het woord ZORUA ziet.  

Druk op de spatiebalk om de taak te starten.
",target5,stimuli/t5.jpg,12,65,stimuli/target5_5.jpg,target,True,space,,,,,,,,,,,,,,0,0,0,0,,,,,0,1,1,4,0,64,64,64,,,,,,,,,,,,,,,,,,,,,,,,,,,,,,,,,,,,,,,,,,,,,,,,,,,,,CS1_USpos,space,1,0.6063306123542134,,,,,,,,,,,,,,,,,22,f,12,n,2019_Oct_21_1112,ec_RRR,3.0.4,59.9071767980848,
Moran Hussey and Hughes,De target figuur voor deze taak is Zorua:,"Dus wanneer Zorua (zijn naam of foto) verschijnt op het scherm, druk dan zo snel mogelijk op de spatiebalk. Druk op de spatiebalk wanneer je een foto van Zorua of het woord ZORUA ziet.  

Druk op de spatiebalk om de taak te starten.
",target5,stimuli/t5.jpg,12,66,stimuli/filler28.jpg,filler,False,None,,,,,,,,,,,,,,0,0,0,0,,,,,0,1,1,4,0,65,65,65,,,,,,,,,,,,,,,,,,,,,,,,,,,,,,,,,,,,,,,,,,,,,,,,,,,,,CS1_USpos,None,1,,,,,,,,,,,,,,,,,,22,f,12,n,2019_Oct_21_1112,ec_RRR,3.0.4,59.9071767980848,
Moran Hussey and Hughes,De target figuur voor deze taak is Zorua:,"Dus wanneer Zorua (zijn naam of foto) verschijnt op het scherm, druk dan zo snel mogelijk op de spatiebalk. Druk op de spatiebalk wanneer je een foto van Zorua of het woord ZORUA ziet.  

Druk op de spatiebalk om de taak te starten.
",target5,stimuli/t5.jpg,12,67,stimuli/filler36.jpg,filler,False,None,,,,,,,,,,,,,,0,0,0,0,,,,,0,1,1,4,0,66,66,66,,,,,,,,,,,,,,,,,,,,,,,,,,,,,,,,,,,,,,,,,,,,,,,,,,,,,CS1_USpos,None,1,,,,,,,,,,,,,,,,,,22,f,12,n,2019_Oct_21_1112,ec_RRR,3.0.4,59.9071767980848,
Moran Hussey and Hughes,De target figuur voor deze taak is Zorua:,"Dus wanneer Zorua (zijn naam of foto) verschijnt op het scherm, druk dan zo snel mogelijk op de spatiebalk. Druk op de spatiebalk wanneer je een foto van Zorua of het woord ZORUA ziet.  

Druk op de spatiebalk om de taak te starten.
",target5,stimuli/t5.jpg,12,68,stimuli/filler49.jpg,filler,False,None,,,,,,,,,,,,,,0,0,0,0,,,,,0,1,1,4,0,67,67,67,,,,,,,,,,,,,,,,,,,,,,,,,,,,,,,,,,,,,,,,,,,,,,,,,,,,,CS1_USpos,None,1,,,,,,,,,,,,,,,,,,22,f,12,n,2019_Oct_21_1112,ec_RRR,3.0.4,59.9071767980848,
Moran Hussey and Hughes,De target figuur voor deze taak is Zorua:,"Dus wanneer Zorua (zijn naam of foto) verschijnt op het scherm, druk dan zo snel mogelijk op de spatiebalk. Druk op de spatiebalk wanneer je een foto van Zorua of het woord ZORUA ziet.  

Druk op de spatiebalk om de taak te starten.
",target5,stimuli/t5.jpg,12,69,stimuli/filler7.jpg,filler,False,None,,,,,,,,,,,,,,0,0,0,0,,,,,0,1,1,4,0,68,68,68,,,,,,,,,,,,,,,,,,,,,,,,,,,,,,,,,,,,,,,,,,,,,,,,,,,,,CS1_USpos,None,1,,,,,,,,,,,,,,,,,,22,f,12,n,2019_Oct_21_1112,ec_RRR,3.0.4,59.9071767980848,
Moran Hussey and Hughes,De target figuur voor deze taak is Zorua:,"Dus wanneer Zorua (zijn naam of foto) verschijnt op het scherm, druk dan zo snel mogelijk op de spatiebalk. Druk op de spatiebalk wanneer je een foto van Zorua of het woord ZORUA ziet.  

Druk op de spatiebalk om de taak te starten.
",target5,stimuli/t5.jpg,12,70,stimuli/blank.jpg,blank,False,None,,,,,,,,,,,,,,0,0,0,0,,,,,0,1,1,4,0,69,69,69,,,,,,,,,,,,,,,,,,,,,,,,,,,,,,,,,,,,,,,,,,,,,,,,,,,,,CS1_USpos,None,1,,,,,,,,,,,,,,,,,,22,f,12,n,2019_Oct_21_1112,ec_RRR,3.0.4,59.9071767980848,
Moran Hussey and Hughes,De target figuur voor deze taak is Zorua:,"Dus wanneer Zorua (zijn naam of foto) verschijnt op het scherm, druk dan zo snel mogelijk op de spatiebalk. Druk op de spatiebalk wanneer je een foto van Zorua of het woord ZORUA ziet.  

Druk op de spatiebalk om de taak te starten.
",target5,stimuli/t5.jpg,12,71,stimuli/cs1_pos4.jpg,CSUS,False,None,,,,,,,,,,,,,,0,0,0,0,,,,,0,1,1,4,0,70,70,70,,,,,,,,,,,,,,,,,,,,,,,,,,,,,,,,,,,,,,,,,,,,,,,,,,,,,CS1_USpos,None,1,,,,,,,,,,,,,,,,,,22,f,12,n,2019_Oct_21_1112,ec_RRR,3.0.4,59.9071767980848,
Moran Hussey and Hughes,De target figuur voor deze taak is Zorua:,"Dus wanneer Zorua (zijn naam of foto) verschijnt op het scherm, druk dan zo snel mogelijk op de spatiebalk. Druk op de spatiebalk wanneer je een foto van Zorua of het woord ZORUA ziet.  

Druk op de spatiebalk om de taak te starten.
",target5,stimuli/t5.jpg,12,72,stimuli/blank.jpg,blank,False,None,,,,,,,,,,,,,,0,0,0,0,,,,,0,1,1,4,0,71,71,71,,,,,,,,,,,,,,,,,,,,,,,,,,,,,,,,,,,,,,,,,,,,,,,,,,,,,CS1_USpos,None,1,,,,,,,,,,,,,,,,,,22,f,12,n,2019_Oct_21_1112,ec_RRR,3.0.4,59.9071767980848,
Moran Hussey and Hughes,De target figuur voor deze taak is Zorua:,"Dus wanneer Zorua (zijn naam of foto) verschijnt op het scherm, druk dan zo snel mogelijk op de spatiebalk. Druk op de spatiebalk wanneer je een foto van Zorua of het woord ZORUA ziet.  

Druk op de spatiebalk om de taak te starten.
",target5,stimuli/t5.jpg,12,73,stimuli/filler44.jpg,filler,False,None,,,,,,,,,,,,,,0,0,0,0,,,,,0,1,1,4,0,72,72,72,,,,,,,,,,,,,,,,,,,,,,,,,,,,,,,,,,,,,,,,,,,,,,,,,,,,,CS1_USpos,None,1,,,,,,,,,,,,,,,,,,22,f,12,n,2019_Oct_21_1112,ec_RRR,3.0.4,59.9071767980848,
Moran Hussey and Hughes,De target figuur voor deze taak is Zorua:,"Dus wanneer Zorua (zijn naam of foto) verschijnt op het scherm, druk dan zo snel mogelijk op de spatiebalk. Druk op de spatiebalk wanneer je een foto van Zorua of het woord ZORUA ziet.  

Druk op de spatiebalk om de taak te starten.
",target5,stimuli/t5.jpg,12,74,stimuli/filler5.jpg,filler,False,None,,,,,,,,,,,,,,0,0,0,0,,,,,0,1,1,4,0,73,73,73,,,,,,,,,,,,,,,,,,,,,,,,,,,,,,,,,,,,,,,,,,,,,,,,,,,,,CS1_USpos,None,1,,,,,,,,,,,,,,,,,,22,f,12,n,2019_Oct_21_1112,ec_RRR,3.0.4,59.9071767980848,
Moran Hussey and Hughes,De target figuur voor deze taak is Zorua:,"Dus wanneer Zorua (zijn naam of foto) verschijnt op het scherm, druk dan zo snel mogelijk op de spatiebalk. Druk op de spatiebalk wanneer je een foto van Zorua of het woord ZORUA ziet.  

Druk op de spatiebalk om de taak te starten.
",target5,stimuli/t5.jpg,12,75,stimuli/filler47.jpg,filler,False,None,,,,,,,,,,,,,,0,0,0,0,,,,,0,1,1,4,0,74,74,74,,,,,,,,,,,,,,,,,,,,,,,,,,,,,,,,,,,,,,,,,,,,,,,,,,,,,CS1_USpos,None,1,,,,,,,,,,,,,,,,,,22,f,12,n,2019_Oct_21_1112,ec_RRR,3.0.4,59.9071767980848,
Moran Hussey and Hughes,De target figuur voor deze taak is Zorua:,"Dus wanneer Zorua (zijn naam of foto) verschijnt op het scherm, druk dan zo snel mogelijk op de spatiebalk. Druk op de spatiebalk wanneer je een foto van Zorua of het woord ZORUA ziet.  

Druk op de spatiebalk om de taak te starten.
",target5,stimuli/t5.jpg,12,76,stimuli/filler41.jpg,filler,False,None,,,,,,,,,,,,,,0,0,0,0,,,,,0,1,1,4,0,75,75,75,,,,,,,,,,,,,,,,,,,,,,,,,,,,,,,,,,,,,,,,,,,,,,,,,,,,,CS1_USpos,None,1,,,,,,,,,,,,,,,,,,22,f,12,n,2019_Oct_21_1112,ec_RRR,3.0.4,59.9071767980848,
Moran Hussey and Hughes,De target figuur voor deze taak is Zorua:,"Dus wanneer Zorua (zijn naam of foto) verschijnt op het scherm, druk dan zo snel mogelijk op de spatiebalk. Druk op de spatiebalk wanneer je een foto van Zorua of het woord ZORUA ziet.  

Druk op de spatiebalk om de taak te starten.
",target5,stimuli/t5.jpg,12,77,stimuli/filler20.jpg,filler,False,None,,,,,,,,,,,,,,0,0,0,0,,,,,0,1,1,4,0,76,76,76,,,,,,,,,,,,,,,,,,,,,,,,,,,,,,,,,,,,,,,,,,,,,,,,,,,,,CS1_USpos,None,1,,,,,,,,,,,,,,,,,,22,f,12,n,2019_Oct_21_1112,ec_RRR,3.0.4,59.9071767980848,
Moran Hussey and Hughes,De target figuur voor deze taak is Zorua:,"Dus wanneer Zorua (zijn naam of foto) verschijnt op het scherm, druk dan zo snel mogelijk op de spatiebalk. Druk op de spatiebalk wanneer je een foto van Zorua of het woord ZORUA ziet.  

Druk op de spatiebalk om de taak te starten.
",target5,stimuli/t5.jpg,12,78,stimuli/filler29.jpg,filler,False,None,,,,,,,,,,,,,,0,0,0,0,,,,,0,1,1,4,0,77,77,77,,,,,,,,,,,,,,,,,,,,,,,,,,,,,,,,,,,,,,,,,,,,,,,,,,,,,CS1_USpos,None,1,,,,,,,,,,,,,,,,,,22,f,12,n,2019_Oct_21_1112,ec_RRR,3.0.4,59.9071767980848,
Moran Hussey and Hughes,De target figuur voor deze taak is Zorua:,"Dus wanneer Zorua (zijn naam of foto) verschijnt op het scherm, druk dan zo snel mogelijk op de spatiebalk. Druk op de spatiebalk wanneer je een foto van Zorua of het woord ZORUA ziet.  

Druk op de spatiebalk om de taak te starten.
",target5,stimuli/t5.jpg,12,79,stimuli/filler34.jpg,filler,False,None,,,,,,,,,,,,,,0,0,0,0,,,,,0,1,1,4,0,78,78,78,,,,,,,,,,,,,,,,,,,,,,,,,,,,,,,,,,,,,,,,,,,,,,,,,,,,,CS1_USpos,None,1,,,,,,,,,,,,,,,,,,22,f,12,n,2019_Oct_21_1112,ec_RRR,3.0.4,59.9071767980848,
Moran Hussey and Hughes,De target figuur voor deze taak is Zorua:,"Dus wanneer Zorua (zijn naam of foto) verschijnt op het scherm, druk dan zo snel mogelijk op de spatiebalk. Druk op de spatiebalk wanneer je een foto van Zorua of het woord ZORUA ziet.  

Druk op de spatiebalk om de taak te starten.
",target5,stimuli/t5.jpg,12,80,stimuli/blank.jpg,blank,False,None,,,,,,,,,,,,,,0,0,0,0,,,,,0,1,1,4,0,79,79,79,,,,,,,,,,,,,,,,,,,,,,,,,,,,,,,,,,,,,,,,,,,,,,,,,,,,,CS1_USpos,None,1,,,,,,,,,,,,,,,,,,22,f,12,n,2019_Oct_21_1112,ec_RRR,3.0.4,59.9071767980848,
Moran Hussey and Hughes,De target figuur voor deze taak is Zorua:,"Dus wanneer Zorua (zijn naam of foto) verschijnt op het scherm, druk dan zo snel mogelijk op de spatiebalk. Druk op de spatiebalk wanneer je een foto van Zorua of het woord ZORUA ziet.  

Druk op de spatiebalk om de taak te starten.
",target5,stimuli/t5.jpg,12,81,stimuli/cs2_neg11.jpg,CSUS,False,None,,,,,,,,,,,,,,0,0,0,0,,,,,0,1,1,4,0,80,80,80,,,,,,,,,,,,,,,,,,,,,,,,,,,,,,,,,,,,,,,,,,,,,,,,,,,,,CS1_USpos,None,1,,,,,,,,,,,,,,,,,,22,f,12,n,2019_Oct_21_1112,ec_RRR,3.0.4,59.9071767980848,
Moran Hussey and Hughes,De target figuur voor deze taak is Zorua:,"Dus wanneer Zorua (zijn naam of foto) verschijnt op het scherm, druk dan zo snel mogelijk op de spatiebalk. Druk op de spatiebalk wanneer je een foto van Zorua of het woord ZORUA ziet.  

Druk op de spatiebalk om de taak te starten.
",target5,stimuli/t5.jpg,12,82,stimuli/blank.jpg,blank,False,None,,,,,,,,,,,,,,0,0,0,0,,,,,0,1,1,4,0,81,81,81,,,,,,,,,,,,,,,,,,,,,,,,,,,,,,,,,,,,,,,,,,,,,,,,,,,,,CS1_USpos,None,1,,,,,,,,,,,,,,,,,,22,f,12,n,2019_Oct_21_1112,ec_RRR,3.0.4,59.9071767980848,
Moran Hussey and Hughes,De target figuur voor deze taak is Zorua:,"Dus wanneer Zorua (zijn naam of foto) verschijnt op het scherm, druk dan zo snel mogelijk op de spatiebalk. Druk op de spatiebalk wanneer je een foto van Zorua of het woord ZORUA ziet.  

Druk op de spatiebalk om de taak te starten.
",target5,stimuli/t5.jpg,12,83,stimuli/filler30.jpg,filler,False,None,,,,,,,,,,,,,,0,0,0,0,,,,,0,1,1,4,0,82,82,82,,,,,,,,,,,,,,,,,,,,,,,,,,,,,,,,,,,,,,,,,,,,,,,,,,,,,CS1_USpos,None,1,,,,,,,,,,,,,,,,,,22,f,12,n,2019_Oct_21_1112,ec_RRR,3.0.4,59.9071767980848,
Moran Hussey and Hughes,De target figuur voor deze taak is Zorua:,"Dus wanneer Zorua (zijn naam of foto) verschijnt op het scherm, druk dan zo snel mogelijk op de spatiebalk. Druk op de spatiebalk wanneer je een foto van Zorua of het woord ZORUA ziet.  

Druk op de spatiebalk om de taak te starten.
",target5,stimuli/t5.jpg,12,84,stimuli/filler10.jpg,filler,False,None,,,,,,,,,,,,,,0,0,0,0,,,,,0,1,1,4,0,83,83,83,,,,,,,,,,,,,,,,,,,,,,,,,,,,,,,,,,,,,,,,,,,,,,,,,,,,,CS1_USpos,None,1,,,,,,,,,,,,,,,,,,22,f,12,n,2019_Oct_21_1112,ec_RRR,3.0.4,59.9071767980848,
Moran Hussey and Hughes,De target figuur voor deze taak is Zorua:,"Dus wanneer Zorua (zijn naam of foto) verschijnt op het scherm, druk dan zo snel mogelijk op de spatiebalk. Druk op de spatiebalk wanneer je een foto van Zorua of het woord ZORUA ziet.  

Druk op de spatiebalk om de taak te starten.
