data_collection_site,instructions_text_top,instructions_text_bottom,block_id,example_image,participant,trial_number,stimulus,trial_type,target_trial,surveillance_correct_response,filler_1_items,filler_2_items,middle_text,left_text,right_text,evaluation_stimulus,left_stimulus,right_stimulus,evaluation_response_indicating_CS1_preferred,awareness_1_question_text,awareness_2a_question_text,awareness_2b_question_text,awareness_2_question_text,record_data_collection_site_variable.thisRepN,record_data_collection_site_variable.thisTrialN,record_data_collection_site_variable.thisN,record_data_collection_site_variable.thisIndex,surveillance_instructions_loop.thisRepN,surveillance_instructions_loop.thisTrialN,surveillance_instructions_loop.thisN,surveillance_instructions_loop.thisIndex,surveillance_blocks_loop.thisRepN,surveillance_blocks_loop.thisTrialN,surveillance_blocks_loop.thisN,surveillance_blocks_loop.thisIndex,surveillance_trials_loop.thisRepN,surveillance_trials_loop.thisTrialN,surveillance_trials_loop.thisN,surveillance_trials_loop.thisIndex,filler_1_instructions_loop.thisRepN,filler_1_instructions_loop.thisTrialN,filler_1_instructions_loop.thisN,filler_1_instructions_loop.thisIndex,filler_1_loop.thisRepN,filler_1_loop.thisTrialN,filler_1_loop.thisN,filler_1_loop.thisIndex,filler_2_instructions_loop.thisRepN,filler_2_instructions_loop.thisTrialN,filler_2_instructions_loop.thisN,filler_2_instructions_loop.thisIndex,filler_2_loop.thisRepN,filler_2_loop.thisTrialN,filler_2_loop.thisN,filler_2_loop.thisIndex,evaluation_instructions_loop.thisRepN,evaluation_instructions_loop.thisTrialN,evaluation_instructions_loop.thisN,evaluation_instructions_loop.thisIndex,evaluation_loop.thisRepN,evaluation_loop.thisTrialN,evaluation_loop.thisN,evaluation_loop.thisIndex,evaluation_trials.thisRepN,evaluation_trials.thisTrialN,evaluation_trials.thisN,evaluation_trials.thisIndex,awareness_instructions_loop.thisRepN,awareness_instructions_loop.thisTrialN,awareness_instructions_loop.thisN,awareness_instructions_loop.thisIndex,awareness_1_trials_loop.thisRepN,awareness_1_trials_loop.thisTrialN,awareness_1_trials_loop.thisN,awareness_1_trials_loop.thisIndex,awareness_2a_trials_loop.thisRepN,awareness_2a_trials_loop.thisTrialN,awareness_2a_trials_loop.thisN,awareness_2a_trials_loop.thisIndex,awareness_2b_trials_loop.thisRepN,awareness_2b_trials_loop.thisTrialN,awareness_2b_trials_loop.thisN,awareness_2b_trials_loop.thisIndex,awareness_2c_trials_loop.thisRepN,awareness_2c_trials_loop.thisTrialN,awareness_2c_trials_loop.thisN,awareness_2c_trials_loop.thisIndex,end_message_loop.thisRepN,end_message_loop.thisTrialN,end_message_loop.thisN,end_message_loop.thisIndex,condition,surveillance_response.keys,surveillance_response.corr,surveillance_response.rt,filler_1_rating.response,filler_1_rating.rt,filler_2_rating.response,filler_2_rating.rt,evaluation_response.keys,evaluation_response.corr,evaluation_response.rt,inputText,awareness_1_response.keys,awareness_1_response.rt,awareness_type_2a_rating.response,awareness_type_2a_rating.rt,awareness_type_2b_rating.response,awareness_type_2b_rating.rt,awareness_type_2c_rating.response,awareness_type_2c_rating.rt,age,gender,participant,UseMonkey,date,expName,psychopyVersion,frameRate,
Moran Hussey and Hughes,De target figuur voor deze taak is Bergmite:,"Dus wanneer wanneer Bergmite (zijn naam of foto) verschijnt op het scherm, druk dan zo snel mogelijk op de spatiebalk. Druk op de spatiebalk telkens wanneer je een foto van Bergmite of het woord BERGMITE ziet. 

Druk op de spatiebalk om de taak te starten.
",target2,stimuli/t2.jpg,54,1,stimuli/filler42.jpg,filler,False,None,,,,,,,,,,,,,,0,0,0,0,,,,,0,0,0,1,0,0,0,0,,,,,,,,,,,,,,,,,,,,,,,,,,,,,,,,,,,,,,,,,,,,,,,,,,,,,CS1_USpos,None,1,,,,,,,,,,,,,,,,,,18,f,54,n,2019_Nov_22_0900,ec_RRR,3.0.4,59.82299573741961,
Moran Hussey and Hughes,De target figuur voor deze taak is Bergmite:,"Dus wanneer wanneer Bergmite (zijn naam of foto) verschijnt op het scherm, druk dan zo snel mogelijk op de spatiebalk. Druk op de spatiebalk telkens wanneer je een foto van Bergmite of het woord BERGMITE ziet. 

Druk op de spatiebalk om de taak te starten.
",target2,stimuli/t2.jpg,54,2,stimuli/target2_9.jpg,target,True,space,,,,,,,,,,,,,,0,0,0,0,,,,,0,0,0,1,0,1,1,1,,,,,,,,,,,,,,,,,,,,,,,,,,,,,,,,,,,,,,,,,,,,,,,,,,,,,CS1_USpos,space,1,1.05701919994317,,,,,,,,,,,,,,,,,18,f,54,n,2019_Nov_22_0900,ec_RRR,3.0.4,59.82299573741961,
Moran Hussey and Hughes,De target figuur voor deze taak is Bergmite:,"Dus wanneer wanneer Bergmite (zijn naam of foto) verschijnt op het scherm, druk dan zo snel mogelijk op de spatiebalk. Druk op de spatiebalk telkens wanneer je een foto van Bergmite of het woord BERGMITE ziet. 

Druk op de spatiebalk om de taak te starten.
",target2,stimuli/t2.jpg,54,3,stimuli/filler17.jpg,filler,False,None,,,,,,,,,,,,,,0,0,0,0,,,,,0,0,0,1,0,2,2,2,,,,,,,,,,,,,,,,,,,,,,,,,,,,,,,,,,,,,,,,,,,,,,,,,,,,,CS1_USpos,None,1,,,,,,,,,,,,,,,,,,18,f,54,n,2019_Nov_22_0900,ec_RRR,3.0.4,59.82299573741961,
Moran Hussey and Hughes,De target figuur voor deze taak is Bergmite:,"Dus wanneer wanneer Bergmite (zijn naam of foto) verschijnt op het scherm, druk dan zo snel mogelijk op de spatiebalk. Druk op de spatiebalk telkens wanneer je een foto van Bergmite of het woord BERGMITE ziet. 

Druk op de spatiebalk om de taak te starten.
",target2,stimuli/t2.jpg,54,4,stimuli/filler16.jpg,filler,False,None,,,,,,,,,,,,,,0,0,0,0,,,,,0,0,0,1,0,3,3,3,,,,,,,,,,,,,,,,,,,,,,,,,,,,,,,,,,,,,,,,,,,,,,,,,,,,,CS1_USpos,None,1,,,,,,,,,,,,,,,,,,18,f,54,n,2019_Nov_22_0900,ec_RRR,3.0.4,59.82299573741961,
Moran Hussey and Hughes,De target figuur voor deze taak is Bergmite:,"Dus wanneer wanneer Bergmite (zijn naam of foto) verschijnt op het scherm, druk dan zo snel mogelijk op de spatiebalk. Druk op de spatiebalk telkens wanneer je een foto van Bergmite of het woord BERGMITE ziet. 

Druk op de spatiebalk om de taak te starten.
",target2,stimuli/t2.jpg,54,5,stimuli/filler3.jpg,filler,False,None,,,,,,,,,,,,,,0,0,0,0,,,,,0,0,0,1,0,4,4,4,,,,,,,,,,,,,,,,,,,,,,,,,,,,,,,,,,,,,,,,,,,,,,,,,,,,,CS1_USpos,None,1,,,,,,,,,,,,,,,,,,18,f,54,n,2019_Nov_22_0900,ec_RRR,3.0.4,59.82299573741961,
Moran Hussey and Hughes,De target figuur voor deze taak is Bergmite:,"Dus wanneer wanneer Bergmite (zijn naam of foto) verschijnt op het scherm, druk dan zo snel mogelijk op de spatiebalk. Druk op de spatiebalk telkens wanneer je een foto van Bergmite of het woord BERGMITE ziet. 

Druk op de spatiebalk om de taak te starten.
",target2,stimuli/t2.jpg,54,6,stimuli/filler18.jpg,filler,False,None,,,,,,,,,,,,,,0,0,0,0,,,,,0,0,0,1,0,5,5,5,,,,,,,,,,,,,,,,,,,,,,,,,,,,,,,,,,,,,,,,,,,,,,,,,,,,,CS1_USpos,None,1,,,,,,,,,,,,,,,,,,18,f,54,n,2019_Nov_22_0900,ec_RRR,3.0.4,59.82299573741961,
Moran Hussey and Hughes,De target figuur voor deze taak is Bergmite:,"Dus wanneer wanneer Bergmite (zijn naam of foto) verschijnt op het scherm, druk dan zo snel mogelijk op de spatiebalk. Druk op de spatiebalk telkens wanneer je een foto van Bergmite of het woord BERGMITE ziet. 

Druk op de spatiebalk om de taak te starten.
",target2,stimuli/t2.jpg,54,7,stimuli/filler49.jpg,filler,False,None,,,,,,,,,,,,,,0,0,0,0,,,,,0,0,0,1,0,6,6,6,,,,,,,,,,,,,,,,,,,,,,,,,,,,,,,,,,,,,,,,,,,,,,,,,,,,,CS1_USpos,None,1,,,,,,,,,,,,,,,,,,18,f,54,n,2019_Nov_22_0900,ec_RRR,3.0.4,59.82299573741961,
Moran Hussey and Hughes,De target figuur voor deze taak is Bergmite:,"Dus wanneer wanneer Bergmite (zijn naam of foto) verschijnt op het scherm, druk dan zo snel mogelijk op de spatiebalk. Druk op de spatiebalk telkens wanneer je een foto van Bergmite of het woord BERGMITE ziet. 

Druk op de spatiebalk om de taak te starten.
",target2,stimuli/t2.jpg,54,8,stimuli/filler22.jpg,filler,False,None,,,,,,,,,,,,,,0,0,0,0,,,,,0,0,0,1,0,7,7,7,,,,,,,,,,,,,,,,,,,,,,,,,,,,,,,,,,,,,,,,,,,,,,,,,,,,,CS1_USpos,None,1,,,,,,,,,,,,,,,,,,18,f,54,n,2019_Nov_22_0900,ec_RRR,3.0.4,59.82299573741961,
Moran Hussey and Hughes,De target figuur voor deze taak is Bergmite:,"Dus wanneer wanneer Bergmite (zijn naam of foto) verschijnt op het scherm, druk dan zo snel mogelijk op de spatiebalk. Druk op de spatiebalk telkens wanneer je een foto van Bergmite of het woord BERGMITE ziet. 

Druk op de spatiebalk om de taak te starten.
",target2,stimuli/t2.jpg,54,9,stimuli/filler29.jpg,filler,False,None,,,,,,,,,,,,,,0,0,0,0,,,,,0,0,0,1,0,8,8,8,,,,,,,,,,,,,,,,,,,,,,,,,,,,,,,,,,,,,,,,,,,,,,,,,,,,,CS1_USpos,None,1,,,,,,,,,,,,,,,,,,18,f,54,n,2019_Nov_22_0900,ec_RRR,3.0.4,59.82299573741961,
Moran Hussey and Hughes,De target figuur voor deze taak is Bergmite:,"Dus wanneer wanneer Bergmite (zijn naam of foto) verschijnt op het scherm, druk dan zo snel mogelijk op de spatiebalk. Druk op de spatiebalk telkens wanneer je een foto van Bergmite of het woord BERGMITE ziet. 

Druk op de spatiebalk om de taak te starten.
",target2,stimuli/t2.jpg,54,10,stimuli/blank.jpg,blank,False,None,,,,,,,,,,,,,,0,0,0,0,,,,,0,0,0,1,0,9,9,9,,,,,,,,,,,,,,,,,,,,,,,,,,,,,,,,,,,,,,,,,,,,,,,,,,,,,CS1_USpos,None,1,,,,,,,,,,,,,,,,,,18,f,54,n,2019_Nov_22_0900,ec_RRR,3.0.4,59.82299573741961,
Moran Hussey and Hughes,De target figuur voor deze taak is Bergmite:,"Dus wanneer wanneer Bergmite (zijn naam of foto) verschijnt op het scherm, druk dan zo snel mogelijk op de spatiebalk. Druk op de spatiebalk telkens wanneer je een foto van Bergmite of het woord BERGMITE ziet. 

Druk op de spatiebalk om de taak te starten.
",target2,stimuli/t2.jpg,54,11,stimuli/cs1_pos6.jpg,CSUS,False,None,,,,,,,,,,,,,,0,0,0,0,,,,,0,0,0,1,0,10,10,10,,,,,,,,,,,,,,,,,,,,,,,,,,,,,,,,,,,,,,,,,,,,,,,,,,,,,CS1_USpos,None,1,,,,,,,,,,,,,,,,,,18,f,54,n,2019_Nov_22_0900,ec_RRR,3.0.4,59.82299573741961,
Moran Hussey and Hughes,De target figuur voor deze taak is Bergmite:,"Dus wanneer wanneer Bergmite (zijn naam of foto) verschijnt op het scherm, druk dan zo snel mogelijk op de spatiebalk. Druk op de spatiebalk telkens wanneer je een foto van Bergmite of het woord BERGMITE ziet. 

Druk op de spatiebalk om de taak te starten.
",target2,stimuli/t2.jpg,54,12,stimuli/blank.jpg,blank,False,None,,,,,,,,,,,,,,0,0,0,0,,,,,0,0,0,1,0,11,11,11,,,,,,,,,,,,,,,,,,,,,,,,,,,,,,,,,,,,,,,,,,,,,,,,,,,,,CS1_USpos,None,1,,,,,,,,,,,,,,,,,,18,f,54,n,2019_Nov_22_0900,ec_RRR,3.0.4,59.82299573741961,
Moran Hussey and Hughes,De target figuur voor deze taak is Bergmite:,"Dus wanneer wanneer Bergmite (zijn naam of foto) verschijnt op het scherm, druk dan zo snel mogelijk op de spatiebalk. Druk op de spatiebalk telkens wanneer je een foto van Bergmite of het woord BERGMITE ziet. 

Druk op de spatiebalk om de taak te starten.
",target2,stimuli/t2.jpg,54,13,stimuli/filler13.jpg,filler,False,None,,,,,,,,,,,,,,0,0,0,0,,,,,0,0,0,1,0,12,12,12,,,,,,,,,,,,,,,,,,,,,,,,,,,,,,,,,,,,,,,,,,,,,,,,,,,,,CS1_USpos,None,1,,,,,,,,,,,,,,,,,,18,f,54,n,2019_Nov_22_0900,ec_RRR,3.0.4,59.82299573741961,
Moran Hussey and Hughes,De target figuur voor deze taak is Bergmite:,"Dus wanneer wanneer Bergmite (zijn naam of foto) verschijnt op het scherm, druk dan zo snel mogelijk op de spatiebalk. Druk op de spatiebalk telkens wanneer je een foto van Bergmite of het woord BERGMITE ziet. 

Druk op de spatiebalk om de taak te starten.
",target2,stimuli/t2.jpg,54,14,stimuli/filler8.jpg,filler,False,None,,,,,,,,,,,,,,0,0,0,0,,,,,0,0,0,1,0,13,13,13,,,,,,,,,,,,,,,,,,,,,,,,,,,,,,,,,,,,,,,,,,,,,,,,,,,,,CS1_USpos,None,1,,,,,,,,,,,,,,,,,,18,f,54,n,2019_Nov_22_0900,ec_RRR,3.0.4,59.82299573741961,
Moran Hussey and Hughes,De target figuur voor deze taak is Bergmite:,"Dus wanneer wanneer Bergmite (zijn naam of foto) verschijnt op het scherm, druk dan zo snel mogelijk op de spatiebalk. Druk op de spatiebalk telkens wanneer je een foto van Bergmite of het woord BERGMITE ziet. 

Druk op de spatiebalk om de taak te starten.
",target2,stimuli/t2.jpg,54,15,stimuli/target2_5.jpg,target,True,space,,,,,,,,,,,,,,0,0,0,0,,,,,0,0,0,1,0,14,14,14,,,,,,,,,,,,,,,,,,,,,,,,,,,,,,,,,,,,,,,,,,,,,,,,,,,,,CS1_USpos,space,1,0.5604409999214113,,,,,,,,,,,,,,,,,18,f,54,n,2019_Nov_22_0900,ec_RRR,3.0.4,59.82299573741961,
Moran Hussey and Hughes,De target figuur voor deze taak is Bergmite:,"Dus wanneer wanneer Bergmite (zijn naam of foto) verschijnt op het scherm, druk dan zo snel mogelijk op de spatiebalk. Druk op de spatiebalk telkens wanneer je een foto van Bergmite of het woord BERGMITE ziet. 

Druk op de spatiebalk om de taak te starten.
",target2,stimuli/t2.jpg,54,16,stimuli/filler40.jpg,filler,False,None,,,,,,,,,,,,,,0,0,0,0,,,,,0,0,0,1,0,15,15,15,,,,,,,,,,,,,,,,,,,,,,,,,,,,,,,,,,,,,,,,,,,,,,,,,,,,,CS1_USpos,None,1,,,,,,,,,,,,,,,,,,18,f,54,n,2019_Nov_22_0900,ec_RRR,3.0.4,59.82299573741961,
Moran Hussey and Hughes,De target figuur voor deze taak is Bergmite:,"Dus wanneer wanneer Bergmite (zijn naam of foto) verschijnt op het scherm, druk dan zo snel mogelijk op de spatiebalk. Druk op de spatiebalk telkens wanneer je een foto van Bergmite of het woord BERGMITE ziet. 

Druk op de spatiebalk om de taak te starten.
",target2,stimuli/t2.jpg,54,17,stimuli/filler6.jpg,filler,False,None,,,,,,,,,,,,,,0,0,0,0,,,,,0,0,0,1,0,16,16,16,,,,,,,,,,,,,,,,,,,,,,,,,,,,,,,,,,,,,,,,,,,,,,,,,,,,,CS1_USpos,None,1,,,,,,,,,,,,,,,,,,18,f,54,n,2019_Nov_22_0900,ec_RRR,3.0.4,59.82299573741961,
Moran Hussey and Hughes,De target figuur voor deze taak is Bergmite:,"Dus wanneer wanneer Bergmite (zijn naam of foto) verschijnt op het scherm, druk dan zo snel mogelijk op de spatiebalk. Druk op de spatiebalk telkens wanneer je een foto van Bergmite of het woord BERGMITE ziet. 

Druk op de spatiebalk om de taak te starten.
",target2,stimuli/t2.jpg,54,18,stimuli/filler44.jpg,filler,False,None,,,,,,,,,,,,,,0,0,0,0,,,,,0,0,0,1,0,17,17,17,,,,,,,,,,,,,,,,,,,,,,,,,,,,,,,,,,,,,,,,,,,,,,,,,,,,,CS1_USpos,None,1,,,,,,,,,,,,,,,,,,18,f,54,n,2019_Nov_22_0900,ec_RRR,3.0.4,59.82299573741961,
Moran Hussey and Hughes,De target figuur voor deze taak is Bergmite:,"Dus wanneer wanneer Bergmite (zijn naam of foto) verschijnt op het scherm, druk dan zo snel mogelijk op de spatiebalk. Druk op de spatiebalk telkens wanneer je een foto van Bergmite of het woord BERGMITE ziet. 

Druk op de spatiebalk om de taak te starten.
",target2,stimuli/t2.jpg,54,19,stimuli/target2_1.jpg,target,True,space,,,,,,,,,,,,,,0,0,0,0,,,,,0,0,0,1,0,18,18,18,,,,,,,,,,,,,,,,,,,,,,,,,,,,,,,,,,,,,,,,,,,,,,,,,,,,,CS1_USpos,space,1,0.6443799000699073,,,,,,,,,,,,,,,,,18,f,54,n,2019_Nov_22_0900,ec_RRR,3.0.4,59.82299573741961,
Moran Hussey and Hughes,De target figuur voor deze taak is Bergmite:,"Dus wanneer wanneer Bergmite (zijn naam of foto) verschijnt op het scherm, druk dan zo snel mogelijk op de spatiebalk. Druk op de spatiebalk telkens wanneer je een foto van Bergmite of het woord BERGMITE ziet. 

Druk op de spatiebalk om de taak te starten.
",target2,stimuli/t2.jpg,54,20,stimuli/blank.jpg,blank,False,None,,,,,,,,,,,,,,0,0,0,0,,,,,0,0,0,1,0,19,19,19,,,,,,,,,,,,,,,,,,,,,,,,,,,,,,,,,,,,,,,,,,,,,,,,,,,,,CS1_USpos,None,1,,,,,,,,,,,,,,,,,,18,f,54,n,2019_Nov_22_0900,ec_RRR,3.0.4,59.82299573741961,
Moran Hussey and Hughes,De target figuur voor deze taak is Bergmite:,"Dus wanneer wanneer Bergmite (zijn naam of foto) verschijnt op het scherm, druk dan zo snel mogelijk op de spatiebalk. Druk op de spatiebalk telkens wanneer je een foto van Bergmite of het woord BERGMITE ziet. 

Druk op de spatiebalk om de taak te starten.
",target2,stimuli/t2.jpg,54,21,stimuli/cs2_neg12.jpg,CSUS,False,None,,,,,,,,,,,,,,0,0,0,0,,,,,0,0,0,1,0,20,20,20,,,,,,,,,,,,,,,,,,,,,,,,,,,,,,,,,,,,,,,,,,,,,,,,,,,,,CS1_USpos,None,1,,,,,,,,,,,,,,,,,,18,f,54,n,2019_Nov_22_0900,ec_RRR,3.0.4,59.82299573741961,
Moran Hussey and Hughes,De target figuur voor deze taak is Bergmite:,"Dus wanneer wanneer Bergmite (zijn naam of foto) verschijnt op het scherm, druk dan zo snel mogelijk op de spatiebalk. Druk op de spatiebalk telkens wanneer je een foto van Bergmite of het woord BERGMITE ziet. 

Druk op de spatiebalk om de taak te starten.
",target2,stimuli/t2.jpg,54,22,stimuli/blank.jpg,blank,False,None,,,,,,,,,,,,,,0,0,0,0,,,,,0,0,0,1,0,21,21,21,,,,,,,,,,,,,,,,,,,,,,,,,,,,,,,,,,,,,,,,,,,,,,,,,,,,,CS1_USpos,None,1,,,,,,,,,,,,,,,,,,18,f,54,n,2019_Nov_22_0900,ec_RRR,3.0.4,59.82299573741961,
Moran Hussey and Hughes,De target figuur voor deze taak is Bergmite:,"Dus wanneer wanneer Bergmite (zijn naam of foto) verschijnt op het scherm, druk dan zo snel mogelijk op de spatiebalk. Druk op de spatiebalk telkens wanneer je een foto van Bergmite of het woord BERGMITE ziet. 

Druk op de spatiebalk om de taak te starten.
",target2,stimuli/t2.jpg,54,23,stimuli/filler32.jpg,filler,False,None,,,,,,,,,,,,,,0,0,0,0,,,,,0,0,0,1,0,22,22,22,,,,,,,,,,,,,,,,,,,,,,,,,,,,,,,,,,,,,,,,,,,,,,,,,,,,,CS1_USpos,None,1,,,,,,,,,,,,,,,,,,18,f,54,n,2019_Nov_22_0900,ec_RRR,3.0.4,59.82299573741961,
Moran Hussey and Hughes,De target figuur voor deze taak is Bergmite:,"Dus wanneer wanneer Bergmite (zijn naam of foto) verschijnt op het scherm, druk dan zo snel mogelijk op de spatiebalk. Druk op de spatiebalk telkens wanneer je een foto van Bergmite of het woord BERGMITE ziet. 

Druk op de spatiebalk om de taak te starten.
",target2,stimuli/t2.jpg,54,24,stimuli/filler34.jpg,filler,False,None,,,,,,,,,,,,,,0,0,0,0,,,,,0,0,0,1,0,23,23,23,,,,,,,,,,,,,,,,,,,,,,,,,,,,,,,,,,,,,,,,,,,,,,,,,,,,,CS1_USpos,None,1,,,,,,,,,,,,,,,,,,18,f,54,n,2019_Nov_22_0900,ec_RRR,3.0.4,59.82299573741961,
Moran Hussey and Hughes,De target figuur voor deze taak is Bergmite:,"Dus wanneer wanneer Bergmite (zijn naam of foto) verschijnt op het scherm, druk dan zo snel mogelijk op de spatiebalk. Druk op de spatiebalk telkens wanneer je een foto van Bergmite of het woord BERGMITE ziet. 

Druk op de spatiebalk om de taak te starten.
",target2,stimuli/t2.jpg,54,25,stimuli/filler7.jpg,filler,False,None,,,,,,,,,,,,,,0,0,0,0,,,,,0,0,0,1,0,24,24,24,,,,,,,,,,,,,,,,,,,,,,,,,,,,,,,,,,,,,,,,,,,,,,,,,,,,,CS1_USpos,None,1,,,,,,,,,,,,,,,,,,18,f,54,n,2019_Nov_22_0900,ec_RRR,3.0.4,59.82299573741961,
Moran Hussey and Hughes,De target figuur voor deze taak is Bergmite:,"Dus wanneer wanneer Bergmite (zijn naam of foto) verschijnt op het scherm, druk dan zo snel mogelijk op de spatiebalk. Druk op de spatiebalk telkens wanneer je een foto van Bergmite of het woord BERGMITE ziet. 

Druk op de spatiebalk om de taak te starten.
",target2,stimuli/t2.jpg,54,26,stimuli/target2_8.jpg,target,True,space,,,,,,,,,,,,,,0,0,0,0,,,,,0,0,0,1,0,25,25,25,,,,,,,,,,,,,,,,,,,,,,,,,,,,,,,,,,,,,,,,,,,,,,,,,,,,,CS1_USpos,space,1,0.5712924001272768,,,,,,,,,,,,,,,,,18,f,54,n,2019_Nov_22_0900,ec_RRR,3.0.4,59.82299573741961,
Moran Hussey and Hughes,De target figuur voor deze taak is Bergmite:,"Dus wanneer wanneer Bergmite (zijn naam of foto) verschijnt op het scherm, druk dan zo snel mogelijk op de spatiebalk. Druk op de spatiebalk telkens wanneer je een foto van Bergmite of het woord BERGMITE ziet. 

Druk op de spatiebalk om de taak te starten.
",target2,stimuli/t2.jpg,54,27,stimuli/filler45.jpg,filler,False,None,,,,,,,,,,,,,,0,0,0,0,,,,,0,0,0,1,0,26,26,26,,,,,,,,,,,,,,,,,,,,,,,,,,,,,,,,,,,,,,,,,,,,,,,,,,,,,CS1_USpos,None,1,,,,,,,,,,,,,,,,,,18,f,54,n,2019_Nov_22_0900,ec_RRR,3.0.4,59.82299573741961,
Moran Hussey and Hughes,De target figuur voor deze taak is Bergmite:,"Dus wanneer wanneer Bergmite (zijn naam of foto) verschijnt op het scherm, druk dan zo snel mogelijk op de spatiebalk. Druk op de spatiebalk telkens wanneer je een foto van Bergmite of het woord BERGMITE ziet. 

Druk op de spatiebalk om de taak te starten.
",target2,stimuli/t2.jpg,54,28,stimuli/filler1.jpg,filler,False,None,,,,,,,,,,,,,,0,0,0,0,,,,,0,0,0,1,0,27,27,27,,,,,,,,,,,,,,,,,,,,,,,,,,,,,,,,,,,,,,,,,,,,,,,,,,,,,CS1_USpos,None,1,,,,,,,,,,,,,,,,,,18,f,54,n,2019_Nov_22_0900,ec_RRR,3.0.4,59.82299573741961,
Moran Hussey and Hughes,De target figuur voor deze taak is Bergmite:,"Dus wanneer wanneer Bergmite (zijn naam of foto) verschijnt op het scherm, druk dan zo snel mogelijk op de spatiebalk. Druk op de spatiebalk telkens wanneer je een foto van Bergmite of het woord BERGMITE ziet. 

Druk op de spatiebalk om de taak te starten.
",target2,stimuli/t2.jpg,54,29,stimuli/filler30.jpg,filler,False,None,,,,,,,,,,,,,,0,0,0,0,,,,,0,0,0,1,0,28,28,28,,,,,,,,,,,,,,,,,,,,,,,,,,,,,,,,,,,,,,,,,,,,,,,,,,,,,CS1_USpos,None,1,,,,,,,,,,,,,,,,,,18,f,54,n,2019_Nov_22_0900,ec_RRR,3.0.4,59.82299573741961,
Moran Hussey and Hughes,De target figuur voor deze taak is Bergmite:,"Dus wanneer wanneer Bergmite (zijn naam of foto) verschijnt op het scherm, druk dan zo snel mogelijk op de spatiebalk. Druk op de spatiebalk telkens wanneer je een foto van Bergmite of het woord BERGMITE ziet. 

Druk op de spatiebalk om de taak te starten.
",target2,stimuli/t2.jpg,54,30,stimuli/blank.jpg,blank,False,None,,,,,,,,,,,,,,0,0,0,0,,,,,0,0,0,1,0,29,29,29,,,,,,,,,,,,,,,,,,,,,,,,,,,,,,,,,,,,,,,,,,,,,,,,,,,,,CS1_USpos,None,1,,,,,,,,,,,,,,,,,,18,f,54,n,2019_Nov_22_0900,ec_RRR,3.0.4,59.82299573741961,
Moran Hussey and Hughes,De target figuur voor deze taak is Bergmite:,"Dus wanneer wanneer Bergmite (zijn naam of foto) verschijnt op het scherm, druk dan zo snel mogelijk op de spatiebalk. Druk op de spatiebalk telkens wanneer je een foto van Bergmite of het woord BERGMITE ziet. 

Druk op de spatiebalk om de taak te starten.
",target2,stimuli/t2.jpg,54,31,stimuli/cs1_pos17.jpg,CSUS,False,None,,,,,,,,,,,,,,0,0,0,0,,,,,0,0,0,1,0,30,30,30,,,,,,,,,,,,,,,,,,,,,,,,,,,,,,,,,,,,,,,,,,,,,,,,,,,,,CS1_USpos,None,1,,,,,,,,,,,,,,,,,,18,f,54,n,2019_Nov_22_0900,ec_RRR,3.0.4,59.82299573741961,
Moran Hussey and Hughes,De target figuur voor deze taak is Bergmite:,"Dus wanneer wanneer Bergmite (zijn naam of foto) verschijnt op het scherm, druk dan zo snel mogelijk op de spatiebalk. Druk op de spatiebalk telkens wanneer je een foto van Bergmite of het woord BERGMITE ziet. 

Druk op de spatiebalk om de taak te starten.
",target2,stimuli/t2.jpg,54,32,stimuli/blank.jpg,blank,False,None,,,,,,,,,,,,,,0,0,0,0,,,,,0,0,0,1,0,31,31,31,,,,,,,,,,,,,,,,,,,,,,,,,,,,,,,,,,,,,,,,,,,,,,,,,,,,,CS1_USpos,None,1,,,,,,,,,,,,,,,,,,18,f,54,n,2019_Nov_22_0900,ec_RRR,3.0.4,59.82299573741961,
Moran Hussey and Hughes,De target figuur voor deze taak is Bergmite:,"Dus wanneer wanneer Bergmite (zijn naam of foto) verschijnt op het scherm, druk dan zo snel mogelijk op de spatiebalk. Druk op de spatiebalk telkens wanneer je een foto van Bergmite of het woord BERGMITE ziet. 

Druk op de spatiebalk om de taak te starten.
",target2,stimuli/t2.jpg,54,33,stimuli/target2_6.jpg,target,True,space,,,,,,,,,,,,,,0,0,0,0,,,,,0,0,0,1,0,32,32,32,,,,,,,,,,,,,,,,,,,,,,,,,,,,,,,,,,,,,,,,,,,,,,,,,,,,,CS1_USpos,space,1,0.7199022001586854,,,,,,,,,,,,,,,,,18,f,54,n,2019_Nov_22_0900,ec_RRR,3.0.4,59.82299573741961,
Moran Hussey and Hughes,De target figuur voor deze taak is Bergmite:,"Dus wanneer wanneer Bergmite (zijn naam of foto) verschijnt op het scherm, druk dan zo snel mogelijk op de spatiebalk. Druk op de spatiebalk telkens wanneer je een foto van Bergmite of het woord BERGMITE ziet. 

Druk op de spatiebalk om de taak te starten.
",target2,stimuli/t2.jpg,54,34,stimuli/target2_7.jpg,target,True,space,,,,,,,,,,,,,,0,0,0,0,,,,,0,0,0,1,0,33,33,33,,,,,,,,,,,,,,,,,,,,,,,,,,,,,,,,,,,,,,,,,,,,,,,,,,,,,CS1_USpos,space,1,0.8763534999452531,,,,,,,,,,,,,,,,,18,f,54,n,2019_Nov_22_0900,ec_RRR,3.0.4,59.82299573741961,
Moran Hussey and Hughes,De target figuur voor deze taak is Bergmite:,"Dus wanneer wanneer Bergmite (zijn naam of foto) verschijnt op het scherm, druk dan zo snel mogelijk op de spatiebalk. Druk op de spatiebalk telkens wanneer je een foto van Bergmite of het woord BERGMITE ziet. 

Druk op de spatiebalk om de taak te starten.
",target2,stimuli/t2.jpg,54,35,stimuli/filler35.jpg,filler,False,None,,,,,,,,,,,,,,0,0,0,0,,,,,0,0,0,1,0,34,34,34,,,,,,,,,,,,,,,,,,,,,,,,,,,,,,,,,,,,,,,,,,,,,,,,,,,,,CS1_USpos,None,1,,,,,,,,,,,,,,,,,,18,f,54,n,2019_Nov_22_0900,ec_RRR,3.0.4,59.82299573741961,
Moran Hussey and Hughes,De target figuur voor deze taak is Bergmite:,"Dus wanneer wanneer Bergmite (zijn naam of foto) verschijnt op het scherm, druk dan zo snel mogelijk op de spatiebalk. Druk op de spatiebalk telkens wanneer je een foto van Bergmite of het woord BERGMITE ziet. 

Druk op de spatiebalk om de taak te starten.
",target2,stimuli/t2.jpg,54,36,stimuli/filler50.jpg,filler,False,None,,,,,,,,,,,,,,0,0,0,0,,,,,0,0,0,1,0,35,35,35,,,,,,,,,,,,,,,,,,,,,,,,,,,,,,,,,,,,,,,,,,,,,,,,,,,,,CS1_USpos,None,1,,,,,,,,,,,,,,,,,,18,f,54,n,2019_Nov_22_0900,ec_RRR,3.0.4,59.82299573741961,
Moran Hussey and Hughes,De target figuur voor deze taak is Bergmite:,"Dus wanneer wanneer Bergmite (zijn naam of foto) verschijnt op het scherm, druk dan zo snel mogelijk op de spatiebalk. Druk op de spatiebalk telkens wanneer je een foto van Bergmite of het woord BERGMITE ziet. 

Druk op de spatiebalk om de taak te starten.
",target2,stimuli/t2.jpg,54,37,stimuli/target2_4.jpg,target,True,space,,,,,,,,,,,,,,0,0,0,0,,,,,0,0,0,1,0,36,36,36,,,,,,,,,,,,,,,,,,,,,,,,,,,,,,,,,,,,,,,,,,,,,,,,,,,,,CS1_USpos,space,1,0.5798328998498619,,,,,,,,,,,,,,,,,18,f,54,n,2019_Nov_22_0900,ec_RRR,3.0.4,59.82299573741961,
Moran Hussey and Hughes,De target figuur voor deze taak is Bergmite:,"Dus wanneer wanneer Bergmite (zijn naam of foto) verschijnt op het scherm, druk dan zo snel mogelijk op de spatiebalk. Druk op de spatiebalk telkens wanneer je een foto van Bergmite of het woord BERGMITE ziet. 

Druk op de spatiebalk om de taak te starten.
",target2,stimuli/t2.jpg,54,38,stimuli/filler41.jpg,filler,False,None,,,,,,,,,,,,,,0,0,0,0,,,,,0,0,0,1,0,37,37,37,,,,,,,,,,,,,,,,,,,,,,,,,,,,,,,,,,,,,,,,,,,,,,,,,,,,,CS1_USpos,None,1,,,,,,,,,,,,,,,,,,18,f,54,n,2019_Nov_22_0900,ec_RRR,3.0.4,59.82299573741961,
Moran Hussey and Hughes,De target figuur voor deze taak is Bergmite:,"Dus wanneer wanneer Bergmite (zijn naam of foto) verschijnt op het scherm, druk dan zo snel mogelijk op de spatiebalk. Druk op de spatiebalk telkens wanneer je een foto van Bergmite of het woord BERGMITE ziet. 

Druk op de spatiebalk om de taak te starten.
",target2,stimuli/t2.jpg,54,39,stimuli/filler26.jpg,filler,False,None,,,,,,,,,,,,,,0,0,0,0,,,,,0,0,0,1,0,38,38,38,,,,,,,,,,,,,,,,,,,,,,,,,,,,,,,,,,,,,,,,,,,,,,,,,,,,,CS1_USpos,None,1,,,,,,,,,,,,,,,,,,18,f,54,n,2019_Nov_22_0900,ec_RRR,3.0.4,59.82299573741961,
Moran Hussey and Hughes,De target figuur voor deze taak is Bergmite:,"Dus wanneer wanneer Bergmite (zijn naam of foto) verschijnt op het scherm, druk dan zo snel mogelijk op de spatiebalk. Druk op de spatiebalk telkens wanneer je een foto van Bergmite of het woord BERGMITE ziet. 

Druk op de spatiebalk om de taak te starten.
",target2,stimuli/t2.jpg,54,40,stimuli/blank.jpg,blank,False,None,,,,,,,,,,,,,,0,0,0,0,,,,,0,0,0,1,0,39,39,39,,,,,,,,,,,,,,,,,,,,,,,,,,,,,,,,,,,,,,,,,,,,,,,,,,,,,CS1_USpos,None,1,,,,,,,,,,,,,,,,,,18,f,54,n,2019_Nov_22_0900,ec_RRR,3.0.4,59.82299573741961,
Moran Hussey and Hughes,De target figuur voor deze taak is Bergmite:,"Dus wanneer wanneer Bergmite (zijn naam of foto) verschijnt op het scherm, druk dan zo snel mogelijk op de spatiebalk. Druk op de spatiebalk telkens wanneer je een foto van Bergmite of het woord BERGMITE ziet. 

Druk op de spatiebalk om de taak te starten.
",target2,stimuli/t2.jpg,54,41,stimuli/cs2_neg19.jpg,CSUS,False,None,,,,,,,,,,,,,,0,0,0,0,,,,,0,0,0,1,0,40,40,40,,,,,,,,,,,,,,,,,,,,,,,,,,,,,,,,,,,,,,,,,,,,,,,,,,,,,CS1_USpos,None,1,,,,,,,,,,,,,,,,,,18,f,54,n,2019_Nov_22_0900,ec_RRR,3.0.4,59.82299573741961,
Moran Hussey and Hughes,De target figuur voor deze taak is Bergmite:,"Dus wanneer wanneer Bergmite (zijn naam of foto) verschijnt op het scherm, druk dan zo snel mogelijk op de spatiebalk. Druk op de spatiebalk telkens wanneer je een foto van Bergmite of het woord BERGMITE ziet. 

Druk op de spatiebalk om de taak te starten.
",target2,stimuli/t2.jpg,54,42,stimuli/blank.jpg,blank,False,None,,,,,,,,,,,,,,0,0,0,0,,,,,0,0,0,1,0,41,41,41,,,,,,,,,,,,,,,,,,,,,,,,,,,,,,,,,,,,,,,,,,,,,,,,,,,,,CS1_USpos,None,1,,,,,,,,,,,,,,,,,,18,f,54,n,2019_Nov_22_0900,ec_RRR,3.0.4,59.82299573741961,
Moran Hussey and Hughes,De target figuur voor deze taak is Bergmite:,"Dus wanneer wanneer Bergmite (zijn naam of foto) verschijnt op het scherm, druk dan zo snel mogelijk op de spatiebalk. Druk op de spatiebalk telkens wanneer je een foto van Bergmite of het woord BERGMITE ziet. 

Druk op de spatiebalk om de taak te starten.
",target2,stimuli/t2.jpg,54,43,stimuli/filler47.jpg,filler,False,None,,,,,,,,,,,,,,0,0,0,0,,,,,0,0,0,1,0,42,42,42,,,,,,,,,,,,,,,,,,,,,,,,,,,,,,,,,,,,,,,,,,,,,,,,,,,,,CS1_USpos,None,1,,,,,,,,,,,,,,,,,,18,f,54,n,2019_Nov_22_0900,ec_RRR,3.0.4,59.82299573741961,
Moran Hussey and Hughes,De target figuur voor deze taak is Bergmite:,"Dus wanneer wanneer Bergmite (zijn naam of foto) verschijnt op het scherm, druk dan zo snel mogelijk op de spatiebalk. Druk op de spatiebalk telkens wanneer je een foto van Bergmite of het woord BERGMITE ziet. 

Druk op de spatiebalk om de taak te starten.
",target2,stimuli/t2.jpg,54,44,stimuli/filler46.jpg,filler,False,None,,,,,,,,,,,,,,0,0,0,0,,,,,0,0,0,1,0,43,43,43,,,,,,,,,,,,,,,,,,,,,,,,,,,,,,,,,,,,,,,,,,,,,,,,,,,,,CS1_USpos,None,1,,,,,,,,,,,,,,,,,,18,f,54,n,2019_Nov_22_0900,ec_RRR,3.0.4,59.82299573741961,
Moran Hussey and Hughes,De target figuur voor deze taak is Bergmite:,"Dus wanneer wanneer Bergmite (zijn naam of foto) verschijnt op het scherm, druk dan zo snel mogelijk op de spatiebalk. Druk op de spatiebalk telkens wanneer je een foto van Bergmite of het woord BERGMITE ziet. 

Druk op de spatiebalk om de taak te starten.
",target2,stimuli/t2.jpg,54,45,stimuli/filler36.jpg,filler,False,None,,,,,,,,,,,,,,0,0,0,0,,,,,0,0,0,1,0,44,44,44,,,,,,,,,,,,,,,,,,,,,,,,,,,,,,,,,,,,,,,,,,,,,,,,,,,,,CS1_USpos,None,1,,,,,,,,,,,,,,,,,,18,f,54,n,2019_Nov_22_0900,ec_RRR,3.0.4,59.82299573741961,
Moran Hussey and Hughes,De target figuur voor deze taak is Bergmite:,"Dus wanneer wanneer Bergmite (zijn naam of foto) verschijnt op het scherm, druk dan zo snel mogelijk op de spatiebalk. Druk op de spatiebalk telkens wanneer je een foto van Bergmite of het woord BERGMITE ziet. 

Druk op de spatiebalk om de taak te starten.
",target2,stimuli/t2.jpg,54,46,stimuli/filler11.jpg,filler,False,None,,,,,,,,,,,,,,0,0,0,0,,,,,0,0,0,1,0,45,45,45,,,,,,,,,,,,,,,,,,,,,,,,,,,,,,,,,,,,,,,,,,,,,,,,,,,,,CS1_USpos,None,1,,,,,,,,,,,,,,,,,,18,f,54,n,2019_Nov_22_0900,ec_RRR,3.0.4,59.82299573741961,
Moran Hussey and Hughes,De target figuur voor deze taak is Bergmite:,"Dus wanneer wanneer Bergmite (zijn naam of foto) verschijnt op het scherm, druk dan zo snel mogelijk op de spatiebalk. Druk op de spatiebalk telkens wanneer je een foto van Bergmite of het woord BERGMITE ziet. 

Druk op de spatiebalk om de taak te starten.
",target2,stimuli/t2.jpg,54,47,stimuli/filler5.jpg,filler,False,None,,,,,,,,,,,,,,0,0,0,0,,,,,0,0,0,1,0,46,46,46,,,,,,,,,,,,,,,,,,,,,,,,,,,,,,,,,,,,,,,,,,,,,,,,,,,,,CS1_USpos,None,1,,,,,,,,,,,,,,,,,,18,f,54,n,2019_Nov_22_0900,ec_RRR,3.0.4,59.82299573741961,
Moran Hussey and Hughes,De target figuur voor deze taak is Bergmite:,"Dus wanneer wanneer Bergmite (zijn naam of foto) verschijnt op het scherm, druk dan zo snel mogelijk op de spatiebalk. Druk op de spatiebalk telkens wanneer je een foto van Bergmite of het woord BERGMITE ziet. 

Druk op de spatiebalk om de taak te starten.
",target2,stimuli/t2.jpg,54,48,stimuli/filler27.jpg,filler,False,None,,,,,,,,,,,,,,0,0,0,0,,,,,0,0,0,1,0,47,47,47,,,,,,,,,,,,,,,,,,,,,,,,,,,,,,,,,,,,,,,,,,,,,,,,,,,,,CS1_USpos,None,1,,,,,,,,,,,,,,,,,,18,f,54,n,2019_Nov_22_0900,ec_RRR,3.0.4,59.82299573741961,
Moran Hussey and Hughes,De target figuur voor deze taak is Bergmite:,"Dus wanneer wanneer Bergmite (zijn naam of foto) verschijnt op het scherm, druk dan zo snel mogelijk op de spatiebalk. Druk op de spatiebalk telkens wanneer je een foto van Bergmite of het woord BERGMITE ziet. 

Druk op de spatiebalk om de taak te starten.
",target2,stimuli/t2.jpg,54,49,stimuli/filler37.jpg,filler,False,None,,,,,,,,,,,,,,0,0,0,0,,,,,0,0,0,1,0,48,48,48,,,,,,,,,,,,,,,,,,,,,,,,,,,,,,,,,,,,,,,,,,,,,,,,,,,,,CS1_USpos,None,1,,,,,,,,,,,,,,,,,,18,f,54,n,2019_Nov_22_0900,ec_RRR,3.0.4,59.82299573741961,
Moran Hussey and Hughes,De target figuur voor deze taak is Bergmite:,"Dus wanneer wanneer Bergmite (zijn naam of foto) verschijnt op het scherm, druk dan zo snel mogelijk op de spatiebalk. Druk op de spatiebalk telkens wanneer je een foto van Bergmite of het woord BERGMITE ziet. 

Druk op de spatiebalk om de taak te starten.
",target2,stimuli/t2.jpg,54,50,stimuli/blank.jpg,blank,False,None,,,,,,,,,,,,,,0,0,0,0,,,,,0,0,0,1,0,49,49,49,,,,,,,,,,,,,,,,,,,,,,,,,,,,,,,,,,,,,,,,,,,,,,,,,,,,,CS1_USpos,None,1,,,,,,,,,,,,,,,,,,18,f,54,n,2019_Nov_22_0900,ec_RRR,3.0.4,59.82299573741961,
Moran Hussey and Hughes,De target figuur voor deze taak is Bergmite:,"Dus wanneer wanneer Bergmite (zijn naam of foto) verschijnt op het scherm, druk dan zo snel mogelijk op de spatiebalk. Druk op de spatiebalk telkens wanneer je een foto van Bergmite of het woord BERGMITE ziet. 

Druk op de spatiebalk om de taak te starten.
",target2,stimuli/t2.jpg,54,51,stimuli/cs1_pos8.jpg,CSUS,False,None,,,,,,,,,,,,,,0,0,0,0,,,,,0,0,0,1,0,50,50,50,,,,,,,,,,,,,,,,,,,,,,,,,,,,,,,,,,,,,,,,,,,,,,,,,,,,,CS1_USpos,None,1,,,,,,,,,,,,,,,,,,18,f,54,n,2019_Nov_22_0900,ec_RRR,3.0.4,59.82299573741961,
Moran Hussey and Hughes,De target figuur voor deze taak is Bergmite:,"Dus wanneer wanneer Bergmite (zijn naam of foto) verschijnt op het scherm, druk dan zo snel mogelijk op de spatiebalk. Druk op de spatiebalk telkens wanneer je een foto van Bergmite of het woord BERGMITE ziet. 

Druk op de spatiebalk om de taak te starten.
",target2,stimuli/t2.jpg,54,52,stimuli/blank.jpg,blank,False,None,,,,,,,,,,,,,,0,0,0,0,,,,,0,0,0,1,0,51,51,51,,,,,,,,,,,,,,,,,,,,,,,,,,,,,,,,,,,,,,,,,,,,,,,,,,,,,CS1_USpos,None,1,,,,,,,,,,,,,,,,,,18,f,54,n,2019_Nov_22_0900,ec_RRR,3.0.4,59.82299573741961,
Moran Hussey and Hughes,De target figuur voor deze taak is Bergmite:,"Dus wanneer wanneer Bergmite (zijn naam of foto) verschijnt op het scherm, druk dan zo snel mogelijk op de spatiebalk. Druk op de spatiebalk telkens wanneer je een foto van Bergmite of het woord BERGMITE ziet. 

Druk op de spatiebalk om de taak te starten.
",target2,stimuli/t2.jpg,54,53,stimuli/target2_2.jpg,target,True,space,,,,,,,,,,,,,,0,0,0,0,,,,,0,0,0,1,0,52,52,52,,,,,,,,,,,,,,,,,,,,,,,,,,,,,,,,,,,,,,,,,,,,,,,,,,,,,CS1_USpos,space,1,0.621046399930492,,,,,,,,,,,,,,,,,18,f,54,n,2019_Nov_22_0900,ec_RRR,3.0.4,59.82299573741961,
Moran Hussey and Hughes,De target figuur voor deze taak is Bergmite:,"Dus wanneer wanneer Bergmite (zijn naam of foto) verschijnt op het scherm, druk dan zo snel mogelijk op de spatiebalk. Druk op de spatiebalk telkens wanneer je een foto van Bergmite of het woord BERGMITE ziet. 

Druk op de spatiebalk om de taak te starten.
",target2,stimuli/t2.jpg,54,54,stimuli/filler31.jpg,filler,False,None,,,,,,,,,,,,,,0,0,0,0,,,,,0,0,0,1,0,53,53,53,,,,,,,,,,,,,,,,,,,,,,,,,,,,,,,,,,,,,,,,,,,,,,,,,,,,,CS1_USpos,None,1,,,,,,,,,,,,,,,,,,18,f,54,n,2019_Nov_22_0900,ec_RRR,3.0.4,59.82299573741961,
Moran Hussey and Hughes,De target figuur voor deze taak is Bergmite:,"Dus wanneer wanneer Bergmite (zijn naam of foto) verschijnt op het scherm, druk dan zo snel mogelijk op de spatiebalk. Druk op de spatiebalk telkens wanneer je een foto van Bergmite of het woord BERGMITE ziet. 

Druk op de spatiebalk om de taak te starten.
",target2,stimuli/t2.jpg,54,55,stimuli/filler14.jpg,filler,False,None,,,,,,,,,,,,,,0,0,0,0,,,,,0,0,0,1,0,54,54,54,,,,,,,,,,,,,,,,,,,,,,,,,,,,,,,,,,,,,,,,,,,,,,,,,,,,,CS1_USpos,None,1,,,,,,,,,,,,,,,,,,18,f,54,n,2019_Nov_22_0900,ec_RRR,3.0.4,59.82299573741961,
Moran Hussey and Hughes,De target figuur voor deze taak is Bergmite:,"Dus wanneer wanneer Bergmite (zijn naam of foto) verschijnt op het scherm, druk dan zo snel mogelijk op de spatiebalk. Druk op de spatiebalk telkens wanneer je een foto van Bergmite of het woord BERGMITE ziet. 

Druk op de spatiebalk om de taak te starten.
",target2,stimuli/t2.jpg,54,56,stimuli/filler38.jpg,filler,False,None,,,,,,,,,,,,,,0,0,0,0,,,,,0,0,0,1,0,55,55,55,,,,,,,,,,,,,,,,,,,,,,,,,,,,,,,,,,,,,,,,,,,,,,,,,,,,,CS1_USpos,None,1,,,,,,,,,,,,,,,,,,18,f,54,n,2019_Nov_22_0900,ec_RRR,3.0.4,59.82299573741961,
Moran Hussey and Hughes,De target figuur voor deze taak is Bergmite:,"Dus wanneer wanneer Bergmite (zijn naam of foto) verschijnt op het scherm, druk dan zo snel mogelijk op de spatiebalk. Druk op de spatiebalk telkens wanneer je een foto van Bergmite of het woord BERGMITE ziet. 

Druk op de spatiebalk om de taak te starten.
",target2,stimuli/t2.jpg,54,57,stimuli/filler23.jpg,filler,False,None,,,,,,,,,,,,,,0,0,0,0,,,,,0,0,0,1,0,56,56,56,,,,,,,,,,,,,,,,,,,,,,,,,,,,,,,,,,,,,,,,,,,,,,,,,,,,,CS1_USpos,None,1,,,,,,,,,,,,,,,,,,18,f,54,n,2019_Nov_22_0900,ec_RRR,3.0.4,59.82299573741961,
Moran Hussey and Hughes,De target figuur voor deze taak is Bergmite:,"Dus wanneer wanneer Bergmite (zijn naam of foto) verschijnt op het scherm, druk dan zo snel mogelijk op de spatiebalk. Druk op de spatiebalk telkens wanneer je een foto van Bergmite of het woord BERGMITE ziet. 

Druk op de spatiebalk om de taak te starten.
",target2,stimuli/t2.jpg,54,58,stimuli/filler2.jpg,filler,False,None,,,,,,,,,,,,,,0,0,0,0,,,,,0,0,0,1,0,57,57,57,,,,,,,,,,,,,,,,,,,,,,,,,,,,,,,,,,,,,,,,,,,,,,,,,,,,,CS1_USpos,None,1,,,,,,,,,,,,,,,,,,18,f,54,n,2019_Nov_22_0900,ec_RRR,3.0.4,59.82299573741961,
Moran Hussey and Hughes,De target figuur voor deze taak is Bergmite:,"Dus wanneer wanneer Bergmite (zijn naam of foto) verschijnt op het scherm, druk dan zo snel mogelijk op de spatiebalk. Druk op de spatiebalk telkens wanneer je een foto van Bergmite of het woord BERGMITE ziet. 

Druk op de spatiebalk om de taak te starten.
",target2,stimuli/t2.jpg,54,59,stimuli/filler25.jpg,filler,False,None,,,,,,,,,,,,,,0,0,0,0,,,,,0,0,0,1,0,58,58,58,,,,,,,,,,,,,,,,,,,,,,,,,,,,,,,,,,,,,,,,,,,,,,,,,,,,,CS1_USpos,None,1,,,,,,,,,,,,,,,,,,18,f,54,n,2019_Nov_22_0900,ec_RRR,3.0.4,59.82299573741961,
Moran Hussey and Hughes,De target figuur voor deze taak is Bergmite:,"Dus wanneer wanneer Bergmite (zijn naam of foto) verschijnt op het scherm, druk dan zo snel mogelijk op de spatiebalk. Druk op de spatiebalk telkens wanneer je een foto van Bergmite of het woord BERGMITE ziet. 

Druk op de spatiebalk om de taak te starten.
",target2,stimuli/t2.jpg,54,60,stimuli/blank.jpg,blank,False,None,,,,,,,,,,,,,,0,0,0,0,,,,,0,0,0,1,0,59,59,59,,,,,,,,,,,,,,,,,,,,,,,,,,,,,,,,,,,,,,,,,,,,,,,,,,,,,CS1_USpos,None,1,,,,,,,,,,,,,,,,,,18,f,54,n,2019_Nov_22_0900,ec_RRR,3.0.4,59.82299573741961,
Moran Hussey and Hughes,De target figuur voor deze taak is Bergmite:,"Dus wanneer wanneer Bergmite (zijn naam of foto) verschijnt op het scherm, druk dan zo snel mogelijk op de spatiebalk. Druk op de spatiebalk telkens wanneer je een foto van Bergmite of het woord BERGMITE ziet. 

Druk op de spatiebalk om de taak te starten.
",target2,stimuli/t2.jpg,54,61,stimuli/cs2_neg8.jpg,CSUS,False,None,,,,,,,,,,,,,,0,0,0,0,,,,,0,0,0,1,0,60,60,60,,,,,,,,,,,,,,,,,,,,,,,,,,,,,,,,,,,,,,,,,,,,,,,,,,,,,CS1_USpos,None,1,,,,,,,,,,,,,,,,,,18,f,54,n,2019_Nov_22_0900,ec_RRR,3.0.4,59.82299573741961,
Moran Hussey and Hughes,De target figuur voor deze taak is Bergmite:,"Dus wanneer wanneer Bergmite (zijn naam of foto) verschijnt op het scherm, druk dan zo snel mogelijk op de spatiebalk. Druk op de spatiebalk telkens wanneer je een foto van Bergmite of het woord BERGMITE ziet. 

Druk op de spatiebalk om de taak te starten.
",target2,stimuli/t2.jpg,54,62,stimuli/blank.jpg,blank,False,None,,,,,,,,,,,,,,0,0,0,0,,,,,0,0,0,1,0,61,61,61,,,,,,,,,,,,,,,,,,,,,,,,,,,,,,,,,,,,,,,,,,,,,,,,,,,,,CS1_USpos,None,1,,,,,,,,,,,,,,,,,,18,f,54,n,2019_Nov_22_0900,ec_RRR,3.0.4,59.82299573741961,
Moran Hussey and Hughes,De target figuur voor deze taak is Bergmite:,"Dus wanneer wanneer Bergmite (zijn naam of foto) verschijnt op het scherm, druk dan zo snel mogelijk op de spatiebalk. Druk op de spatiebalk telkens wanneer je een foto van Bergmite of het woord BERGMITE ziet. 

Druk op de spatiebalk om de taak te starten.
",target2,stimuli/t2.jpg,54,63,stimuli/filler10.jpg,filler,False,None,,,,,,,,,,,,,,0,0,0,0,,,,,0,0,0,1,0,62,62,62,,,,,,,,,,,,,,,,,,,,,,,,,,,,,,,,,,,,,,,,,,,,,,,,,,,,,CS1_USpos,None,1,,,,,,,,,,,,,,,,,,18,f,54,n,2019_Nov_22_0900,ec_RRR,3.0.4,59.82299573741961,
Moran Hussey and Hughes,De target figuur voor deze taak is Bergmite:,"Dus wanneer wanneer Bergmite (zijn naam of foto) verschijnt op het scherm, druk dan zo snel mogelijk op de spatiebalk. Druk op de spatiebalk telkens wanneer je een foto van Bergmite of het woord BERGMITE ziet. 

Druk op de spatiebalk om de taak te starten.
",target2,stimuli/t2.jpg,54,64,stimuli/filler12.jpg,filler,False,None,,,,,,,,,,,,,,0,0,0,0,,,,,0,0,0,1,0,63,63,63,,,,,,,,,,,,,,,,,,,,,,,,,,,,,,,,,,,,,,,,,,,,,,,,,,,,,CS1_USpos,None,1,,,,,,,,,,,,,,,,,,18,f,54,n,2019_Nov_22_0900,ec_RRR,3.0.4,59.82299573741961,
Moran Hussey and Hughes,De target figuur voor deze taak is Bergmite:,"Dus wanneer wanneer Bergmite (zijn naam of foto) verschijnt op het scherm, druk dan zo snel mogelijk op de spatiebalk. Druk op de spatiebalk telkens wanneer je een foto van Bergmite of het woord BERGMITE ziet. 

Druk op de spatiebalk om de taak te starten.
",target2,stimuli/t2.jpg,54,65,stimuli/filler43.jpg,filler,False,None,,,,,,,,,,,,,,0,0,0,0,,,,,0,0,0,1,0,64,64,64,,,,,,,,,,,,,,,,,,,,,,,,,,,,,,,,,,,,,,,,,,,,,,,,,,,,,CS1_USpos,None,1,,,,,,,,,,,,,,,,,,18,f,54,n,2019_Nov_22_0900,ec_RRR,3.0.4,59.82299573741961,
Moran Hussey and Hughes,De target figuur voor deze taak is Bergmite:,"Dus wanneer wanneer Bergmite (zijn naam of foto) verschijnt op het scherm, druk dan zo snel mogelijk op de spatiebalk. Druk op de spatiebalk telkens wanneer je een foto van Bergmite of het woord BERGMITE ziet. 

Druk op de spatiebalk om de taak te starten.
",target2,stimuli/t2.jpg,54,66,stimuli/filler28.jpg,filler,False,None,,,,,,,,,,,,,,0,0,0,0,,,,,0,0,0,1,0,65,65,65,,,,,,,,,,,,,,,,,,,,,,,,,,,,,,,,,,,,,,,,,,,,,,,,,,,,,CS1_USpos,None,1,,,,,,,,,,,,,,,,,,18,f,54,n,2019_Nov_22_0900,ec_RRR,3.0.4,59.82299573741961,
Moran Hussey and Hughes,De target figuur voor deze taak is Bergmite:,"Dus wanneer wanneer Bergmite (zijn naam of foto) verschijnt op het scherm, druk dan zo snel mogelijk op de spatiebalk. Druk op de spatiebalk telkens wanneer je een foto van Bergmite of het woord BERGMITE ziet. 

Druk op de spatiebalk om de taak te starten.
",target2,stimuli/t2.jpg,54,67,stimuli/target2_3.jpg,target,True,space,,,,,,,,,,,,,,0,0,0,0,,,,,0,0,0,1,0,66,66,66,,,,,,,,,,,,,,,,,,,,,,,,,,,,,,,,,,,,,,,,,,,,,,,,,,,,,CS1_USpos,space,1,0.6788911998737603,,,,,,,,,,,,,,,,,18,f,54,n,2019_Nov_22_0900,ec_RRR,3.0.4,59.82299573741961,
Moran Hussey and Hughes,De target figuur voor deze taak is Bergmite:,"Dus wanneer wanneer Bergmite (zijn naam of foto) verschijnt op het scherm, druk dan zo snel mogelijk op de spatiebalk. Druk op de spatiebalk telkens wanneer je een foto van Bergmite of het woord BERGMITE ziet. 

Druk op de spatiebalk om de taak te starten.
",target2,stimuli/t2.jpg,54,68,stimuli/filler48.jpg,filler,False,None,,,,,,,,,,,,,,0,0,0,0,,,,,0,0,0,1,0,67,67,67,,,,,,,,,,,,,,,,,,,,,,,,,,,,,,,,,,,,,,,,,,,,,,,,,,,,,CS1_USpos,None,1,,,,,,,,,,,,,,,,,,18,f,54,n,2019_Nov_22_0900,ec_RRR,3.0.4,59.82299573741961,
Moran Hussey and Hughes,De target figuur voor deze taak is Bergmite:,"Dus wanneer wanneer Bergmite (zijn naam of foto) verschijnt op het scherm, druk dan zo snel mogelijk op de spatiebalk. Druk op de spatiebalk telkens wanneer je een foto van Bergmite of het woord BERGMITE ziet. 

Druk op de spatiebalk om de taak te starten.
",target2,stimuli/t2.jpg,54,69,stimuli/filler4.jpg,filler,False,None,,,,,,,,,,,,,,0,0,0,0,,,,,0,0,0,1,0,68,68,68,,,,,,,,,,,,,,,,,,,,,,,,,,,,,,,,,,,,,,,,,,,,,,,,,,,,,CS1_USpos,None,1,,,,,,,,,,,,,,,,,,18,f,54,n,2019_Nov_22_0900,ec_RRR,3.0.4,59.82299573741961,
Moran Hussey and Hughes,De target figuur voor deze taak is Bergmite:,"Dus wanneer wanneer Bergmite (zijn naam of foto) verschijnt op het scherm, druk dan zo snel mogelijk op de spatiebalk. Druk op de spatiebalk telkens wanneer je een foto van Bergmite of het woord BERGMITE ziet. 

Druk op de spatiebalk om de taak te starten.
",target2,stimuli/t2.jpg,54,70,stimuli/blank.jpg,blank,False,None,,,,,,,,,,,,,,0,0,0,0,,,,,0,0,0,1,0,69,69,69,,,,,,,,,,,,,,,,,,,,,,,,,,,,,,,,,,,,,,,,,,,,,,,,,,,,,CS1_USpos,None,1,,,,,,,,,,,,,,,,,,18,f,54,n,2019_Nov_22_0900,ec_RRR,3.0.4,59.82299573741961,
Moran Hussey and Hughes,De target figuur voor deze taak is Bergmite:,"Dus wanneer wanneer Bergmite (zijn naam of foto) verschijnt op het scherm, druk dan zo snel mogelijk op de spatiebalk. Druk op de spatiebalk telkens wanneer je een foto van Bergmite of het woord BERGMITE ziet. 

Druk op de spatiebalk om de taak te starten.
",target2,stimuli/t2.jpg,54,71,stimuli/cs1_pos11.jpg,CSUS,False,None,,,,,,,,,,,,,,0,0,0,0,,,,,0,0,0,1,0,70,70,70,,,,,,,,,,,,,,,,,,,,,,,,,,,,,,,,,,,,,,,,,,,,,,,,,,,,,CS1_USpos,None,1,,,,,,,,,,,,,,,,,,18,f,54,n,2019_Nov_22_0900,ec_RRR,3.0.4,59.82299573741961,
Moran Hussey and Hughes,De target figuur voor deze taak is Bergmite:,"Dus wanneer wanneer Bergmite (zijn naam of foto) verschijnt op het scherm, druk dan zo snel mogelijk op de spatiebalk. Druk op de spatiebalk telkens wanneer je een foto van Bergmite of het woord BERGMITE ziet. 

Druk op de spatiebalk om de taak te starten.
",target2,stimuli/t2.jpg,54,72,stimuli/blank.jpg,blank,False,None,,,,,,,,,,,,,,0,0,0,0,,,,,0,0,0,1,0,71,71,71,,,,,,,,,,,,,,,,,,,,,,,,,,,,,,,,,,,,,,,,,,,,,,,,,,,,,CS1_USpos,None,1,,,,,,,,,,,,,,,,,,18,f,54,n,2019_Nov_22_0900,ec_RRR,3.0.4,59.82299573741961,
Moran Hussey and Hughes,De target figuur voor deze taak is Bergmite:,"Dus wanneer wanneer Bergmite (zijn naam of foto) verschijnt op het scherm, druk dan zo snel mogelijk op de spatiebalk. Druk op de spatiebalk telkens wanneer je een foto van Bergmite of het woord BERGMITE ziet. 

Druk op de spatiebalk om de taak te starten.
",target2,stimuli/t2.jpg,54,73,stimuli/filler21.jpg,filler,False,None,,,,,,,,,,,,,,0,0,0,0,,,,,0,0,0,1,0,72,72,72,,,,,,,,,,,,,,,,,,,,,,,,,,,,,,,,,,,,,,,,,,,,,,,,,,,,,CS1_USpos,None,1,,,,,,,,,,,,,,,,,,18,f,54,n,2019_Nov_22_0900,ec_RRR,3.0.4,59.82299573741961,
Moran Hussey and Hughes,De target figuur voor deze taak is Bergmite:,"Dus wanneer wanneer Bergmite (zijn naam of foto) verschijnt op het scherm, druk dan zo snel mogelijk op de spatiebalk. Druk op de spatiebalk telkens wanneer je een foto van Bergmite of het woord BERGMITE ziet. 

Druk op de spatiebalk om de taak te starten.
",target2,stimuli/t2.jpg,54,74,stimuli/target2_10.jpg,target,True,space,,,,,,,,,,,,,,0,0,0,0,,,,,0,0,0,1,0,73,73,73,,,,,,,,,,,,,,,,,,,,,,,,,,,,,,,,,,,,,,,,,,,,,,,,,,,,,CS1_USpos,space,1,0.7827288000844419,,,,,,,,,,,,,,,,,18,f,54,n,2019_Nov_22_0900,ec_RRR,3.0.4,59.82299573741961,
Moran Hussey and Hughes,De target figuur voor deze taak is Bergmite:,"Dus wanneer wanneer Bergmite (zijn naam of foto) verschijnt op het scherm, druk dan zo snel mogelijk op de spatiebalk. Druk op de spatiebalk telkens wanneer je een foto van Bergmite of het woord BERGMITE ziet. 

Druk op de spatiebalk om de taak te starten.
",target2,stimuli/t2.jpg,54,75,stimuli/filler33.jpg,filler,False,None,,,,,,,,,,,,,,0,0,0,0,,,,,0,0,0,1,0,74,74,74,,,,,,,,,,,,,,,,,,,,,,,,,,,,,,,,,,,,,,,,,,,,,,,,,,,,,CS1_USpos,None,1,,,,,,,,,,,,,,,,,,18,f,54,n,2019_Nov_22_0900,ec_RRR,3.0.4,59.82299573741961,
Moran Hussey and Hughes,De target figuur voor deze taak is Bergmite:,"Dus wanneer wanneer Bergmite (zijn naam of foto) verschijnt op het scherm, druk dan zo snel mogelijk op de spatiebalk. Druk op de spatiebalk telkens wanneer je een foto van Bergmite of het woord BERGMITE ziet. 

Druk op de spatiebalk om de taak te starten.
",target2,stimuli/t2.jpg,54,76,stimuli/filler15.jpg,filler,False,None,,,,,,,,,,,,,,0,0,0,0,,,,,0,0,0,1,0,75,75,75,,,,,,,,,,,,,,,,,,,,,,,,,,,,,,,,,,,,,,,,,,,,,,,,,,,,,CS1_USpos,None,1,,,,,,,,,,,,,,,,,,18,f,54,n,2019_Nov_22_0900,ec_RRR,3.0.4,59.82299573741961,
Moran Hussey and Hughes,De target figuur voor deze taak is Bergmite:,"Dus wanneer wanneer Bergmite (zijn naam of foto) verschijnt op het scherm, druk dan zo snel mogelijk op de spatiebalk. Druk op de spatiebalk telkens wanneer je een foto van Bergmite of het woord BERGMITE ziet. 

Druk op de spatiebalk om de taak te starten.
",target2,stimuli/t2.jpg,54,77,stimuli/filler20.jpg,filler,False,None,,,,,,,,,,,,,,0,0,0,0,,,,,0,0,0,1,0,76,76,76,,,,,,,,,,,,,,,,,,,,,,,,,,,,,,,,,,,,,,,,,,,,,,,,,,,,,CS1_USpos,None,1,,,,,,,,,,,,,,,,,,18,f,54,n,2019_Nov_22_0900,ec_RRR,3.0.4,59.82299573741961,
Moran Hussey and Hughes,De target figuur voor deze taak is Bergmite:,"Dus wanneer wanneer Bergmite (zijn naam of foto) verschijnt op het scherm, druk dan zo snel mogelijk op de spatiebalk. Druk op de spatiebalk telkens wanneer je een foto van Bergmite of het woord BERGMITE ziet. 

Druk op de spatiebalk om de taak te starten.
",target2,stimuli/t2.jpg,54,78,stimuli/filler9.jpg,filler,False,None,,,,,,,,,,,,,,0,0,0,0,,,,,0,0,0,1,0,77,77,77,,,,,,,,,,,,,,,,,,,,,,,,,,,,,,,,,,,,,,,,,,,,,,,,,,,,,CS1_USpos,None,1,,,,,,,,,,,,,,,,,,18,f,54,n,2019_Nov_22_0900,ec_RRR,3.0.4,59.82299573741961,
Moran Hussey and Hughes,De target figuur voor deze taak is Bergmite:,"Dus wanneer wanneer Bergmite (zijn naam of foto) verschijnt op het scherm, druk dan zo snel mogelijk op de spatiebalk. Druk op de spatiebalk telkens wanneer je een foto van Bergmite of het woord BERGMITE ziet. 

Druk op de spatiebalk om de taak te starten.
",target2,stimuli/t2.jpg,54,79,stimuli/filler19.jpg,filler,False,None,,,,,,,,,,,,,,0,0,0,0,,,,,0,0,0,1,0,78,78,78,,,,,,,,,,,,,,,,,,,,,,,,,,,,,,,,,,,,,,,,,,,,,,,,,,,,,CS1_USpos,None,1,,,,,,,,,,,,,,,,,,18,f,54,n,2019_Nov_22_0900,ec_RRR,3.0.4,59.82299573741961,
Moran Hussey and Hughes,De target figuur voor deze taak is Bergmite:,"Dus wanneer wanneer Bergmite (zijn naam of foto) verschijnt op het scherm, druk dan zo snel mogelijk op de spatiebalk. Druk op de spatiebalk telkens wanneer je een foto van Bergmite of het woord BERGMITE ziet. 

Druk op de spatiebalk om de taak te starten.
",target2,stimuli/t2.jpg,54,80,stimuli/blank.jpg,blank,False,None,,,,,,,,,,,,,,0,0,0,0,,,,,0,0,0,1,0,79,79,79,,,,,,,,,,,,,,,,,,,,,,,,,,,,,,,,,,,,,,,,,,,,,,,,,,,,,CS1_USpos,None,1,,,,,,,,,,,,,,,,,,18,f,54,n,2019_Nov_22_0900,ec_RRR,3.0.4,59.82299573741961,
Moran Hussey and Hughes,De target figuur voor deze taak is Bergmite:,"Dus wanneer wanneer Bergmite (zijn naam of foto) verschijnt op het scherm, druk dan zo snel mogelijk op de spatiebalk. Druk op de spatiebalk telkens wanneer je een foto van Bergmite of het woord BERGMITE ziet. 

Druk op de spatiebalk om de taak te starten.
",target2,stimuli/t2.jpg,54,81,stimuli/cs2_neg5.jpg,CSUS,False,None,,,,,,,,,,,,,,0,0,0,0,,,,,0,0,0,1,0,80,80,80,,,,,,,,,,,,,,,,,,,,,,,,,,,,,,,,,,,,,,,,,,,,,,,,,,,,,CS1_USpos,None,1,,,,,,,,,,,,,,,,,,18,f,54,n,2019_Nov_22_0900,ec_RRR,3.0.4,59.82299573741961,
Moran Hussey and Hughes,De target figuur voor deze taak is Bergmite:,"Dus wanneer wanneer Bergmite (zijn naam of foto) verschijnt op het scherm, druk dan zo snel mogelijk op de spatiebalk. Druk op de spatiebalk telkens wanneer je een foto van Bergmite of het woord BERGMITE ziet. 

Druk op de spatiebalk om de taak te starten.
",target2,stimuli/t2.jpg,54,82,stimuli/blank.jpg,blank,False,None,,,,,,,,,,,,,,0,0,0,0,,,,,0,0,0,1,0,81,81,81,,,,,,,,,,,,,,,,,,,,,,,,,,,,,,,,,,,,,,,,,,,,,,,,,,,,,CS1_USpos,None,1,,,,,,,,,,,,,,,,,,18,f,54,n,2019_Nov_22_0900,ec_RRR,3.0.4,59.82299573741961,
Moran Hussey and Hughes,De target figuur voor deze taak is Bergmite:,"Dus wanneer wanneer Bergmite (zijn naam of foto) verschijnt op het scherm, druk dan zo snel mogelijk op de spatiebalk. Druk op de spatiebalk telkens wanneer je een foto van Bergmite of het woord BERGMITE ziet. 

Druk op de spatiebalk om de taak te starten.
",target2,stimuli/t2.jpg,54,83,stimuli/filler39.jpg,filler,False,None,,,,,,,,,,,,,,0,0,0,0,,,,,0,0,0,1,0,82,82,82,,,,,,,,,,,,,,,,,,,,,,,,,,,,,,,,,,,,,,,,,,,,,,,,,,,,,CS1_USpos,None,1,,,,,,,,,,,,,,,,,,18,f,54,n,2019_Nov_22_0900,ec_RRR,3.0.4,59.82299573741961,
Moran Hussey and Hughes,De target figuur voor deze taak is Bergmite:,"Dus wanneer wanneer Bergmite (zijn naam of foto) verschijnt op het scherm, druk dan zo snel mogelijk op de spatiebalk. Druk op de spatiebalk telkens wanneer je een foto van Bergmite of het woord BERGMITE ziet. 

Druk op de spatiebalk om de taak te starten.
",target2,stimuli/t2.jpg,54,84,stimuli/filler52.jpg,filler,False,None,,,,,,,,,,,,,,0,0,0,0,,,,,0,0,0,1,0,83,83,83,,,,,,,,,,,,,,,,,,,,,,,,,,,,,,,,,,,,,,,,,,,,,,,,,,,,,CS1_USpos,None,1,,,,,,,,,,,,,,,,,,18,f,54,n,2019_Nov_22_0900,ec_RRR,3.0.4,59.82299573741961,
Moran Hussey and Hughes,De target figuur voor deze taak is Bergmite:,"Dus wanneer wanneer Bergmite (zijn naam of foto) verschijnt op het scherm, druk dan zo snel mogelijk op de spatiebalk. Druk op de spatiebalk telkens wanneer je een foto van Bergmite of het woord BERGMITE ziet. 

Druk op de spatiebalk om de taak te starten.
",target2,stimuli/t2.jpg,54,85,stimuli/filler51.jpg,filler,False,None,,,,,,,,,,,,,,0,0,0,0,,,,,0,0,0,1,0,84,84,84,,,,,,,,,,,,,,,,,,,,,,,,,,,,,,,,,,,,,,,,,,,,,,,,,,,,,CS1_USpos,None,1,,,,,,,,,,,,,,,,,,18,f,54,n,2019_Nov_22_0900,ec_RRR,3.0.4,59.82299573741961,
Moran Hussey and Hughes,De target figuur voor deze taak is Bergmite:,"Dus wanneer wanneer Bergmite (zijn naam of foto) verschijnt op het scherm, druk dan zo snel mogelijk op de spatiebalk. Druk op de spatiebalk telkens wanneer je een foto van Bergmite of het woord BERGMITE ziet. 

Druk op de spatiebalk om de taak te starten.
",target2,stimuli/t2.jpg,54,86,stimuli/filler24.jpg,filler,False,None,,,,,,,,,,,,,,0,0,0,0,,,,,0,0,0,1,0,85,85,85,,,,,,,,,,,,,,,,,,,,,,,,,,,,,,,,,,,,,,,,,,,,,,,,,,,,,CS1_USpos,None,1,,,,,,,,,,,,,,,,,,18,f,54,n,2019_Nov_22_0900,ec_RRR,3.0.4,59.82299573741961,
Moran Hussey and Hughes,De target figuur voor deze taak is Golett: ,"Dus wanneer Golett (zijn naam of foto) verschijnt op het scherm, druk dan zo snel mogelijk op de spatiebalk. Druk op de spatiebalk telkens wanneer je een foto van Golett of het woord GOLETT ziet. 

Druk op de spatiebalk om de taak te starten.
",target4,stimuli/t4.jpg,54,1,stimuli/filler28.jpg,filler,False,None,,,,,,,,,,,,,,0,0,0,0,,,,,0,1,1,3,0,0,0,0,,,,,,,,,,,,,,,,,,,,,,,,,,,,,,,,,,,,,,,,,,,,,,,,,,,,,CS1_USpos,None,1,,,,,,,,,,,,,,,,,,18,f,54,n,2019_Nov_22_0900,ec_RRR,3.0.4,59.82299573741961,
Moran Hussey and Hughes,De target figuur voor deze taak is Golett: ,"Dus wanneer Golett (zijn naam of foto) verschijnt op het scherm, druk dan zo snel mogelijk op de spatiebalk. Druk op de spatiebalk telkens wanneer je een foto van Golett of het woord GOLETT ziet. 

Druk op de spatiebalk om de taak te starten.
",target4,stimuli/t4.jpg,54,2,stimuli/filler24.jpg,filler,False,None,,,,,,,,,,,,,,0,0,0,0,,,,,0,1,1,3,0,1,1,1,,,,,,,,,,,,,,,,,,,,,,,,,,,,,,,,,,,,,,,,,,,,,,,,,,,,,CS1_USpos,None,1,,,,,,,,,,,,,,,,,,18,f,54,n,2019_Nov_22_0900,ec_RRR,3.0.4,59.82299573741961,
Moran Hussey and Hughes,De target figuur voor deze taak is Golett: ,"Dus wanneer Golett (zijn naam of foto) verschijnt op het scherm, druk dan zo snel mogelijk op de spatiebalk. Druk op de spatiebalk telkens wanneer je een foto van Golett of het woord GOLETT ziet. 

Druk op de spatiebalk om de taak te starten.
",target4,stimuli/t4.jpg,54,3,stimuli/filler17.jpg,filler,False,None,,,,,,,,,,,,,,0,0,0,0,,,,,0,1,1,3,0,2,2,2,,,,,,,,,,,,,,,,,,,,,,,,,,,,,,,,,,,,,,,,,,,,,,,,,,,,,CS1_USpos,None,1,,,,,,,,,,,,,,,,,,18,f,54,n,2019_Nov_22_0900,ec_RRR,3.0.4,59.82299573741961,
Moran Hussey and Hughes,De target figuur voor deze taak is Golett: ,"Dus wanneer Golett (zijn naam of foto) verschijnt op het scherm, druk dan zo snel mogelijk op de spatiebalk. Druk op de spatiebalk telkens wanneer je een foto van Golett of het woord GOLETT ziet. 

Druk op de spatiebalk om de taak te starten.
",target4,stimuli/t4.jpg,54,4,stimuli/filler7.jpg,filler,False,None,,,,,,,,,,,,,,0,0,0,0,,,,,0,1,1,3,0,3,3,3,,,,,,,,,,,,,,,,,,,,,,,,,,,,,,,,,,,,,,,,,,,,,,,,,,,,,CS1_USpos,None,1,,,,,,,,,,,,,,,,,,18,f,54,n,2019_Nov_22_0900,ec_RRR,3.0.4,59.82299573741961,
Moran Hussey and Hughes,De target figuur voor deze taak is Golett: ,"Dus wanneer Golett (zijn naam of foto) verschijnt op het scherm, druk dan zo snel mogelijk op de spatiebalk. Druk op de spatiebalk telkens wanneer je een foto van Golett of het woord GOLETT ziet. 

Druk op de spatiebalk om de taak te starten.
",target4,stimuli/t4.jpg,54,5,stimuli/filler6.jpg,filler,False,None,,,,,,,,,,,,,,0,0,0,0,,,,,0,1,1,3,0,4,4,4,,,,,,,,,,,,,,,,,,,,,,,,,,,,,,,,,,,,,,,,,,,,,,,,,,,,,CS1_USpos,None,1,,,,,,,,,,,,,,,,,,18,f,54,n,2019_Nov_22_0900,ec_RRR,3.0.4,59.82299573741961,
Moran Hussey and Hughes,De target figuur voor deze taak is Golett: ,"Dus wanneer Golett (zijn naam of foto) verschijnt op het scherm, druk dan zo snel mogelijk op de spatiebalk. Druk op de spatiebalk telkens wanneer je een foto van Golett of het woord GOLETT ziet. 

Druk op de spatiebalk om de taak te starten.
",target4,stimuli/t4.jpg,54,6,stimuli/filler37.jpg,filler,False,None,,,,,,,,,,,,,,0,0,0,0,,,,,0,1,1,3,0,5,5,5,,,,,,,,,,,,,,,,,,,,,,,,,,,,,,,,,,,,,,,,,,,,,,,,,,,,,CS1_USpos,None,1,,,,,,,,,,,,,,,,,,18,f,54,n,2019_Nov_22_0900,ec_RRR,3.0.4,59.82299573741961,
Moran Hussey and Hughes,De target figuur voor deze taak is Golett: ,"Dus wanneer Golett (zijn naam of foto) verschijnt op het scherm, druk dan zo snel mogelijk op de spatiebalk. Druk op de spatiebalk telkens wanneer je een foto van Golett of het woord GOLETT ziet. 

Druk op de spatiebalk om de taak te starten.
",target4,stimuli/t4.jpg,54,7,stimuli/filler40.jpg,filler,False,None,,,,,,,,,,,,,,0,0,0,0,,,,,0,1,1,3,0,6,6,6,,,,,,,,,,,,,,,,,,,,,,,,,,,,,,,,,,,,,,,,,,,,,,,,,,,,,CS1_USpos,None,1,,,,,,,,,,,,,,,,,,18,f,54,n,2019_Nov_22_0900,ec_RRR,3.0.4,59.82299573741961,
Moran Hussey and Hughes,De target figuur voor deze taak is Golett: ,"Dus wanneer Golett (zijn naam of foto) verschijnt op het scherm, druk dan zo snel mogelijk op de spatiebalk. Druk op de spatiebalk telkens wanneer je een foto van Golett of het woord GOLETT ziet. 

Druk op de spatiebalk om de taak te starten.
",target4,stimuli/t4.jpg,54,8,stimuli/target4_2.jpg,target,True,space,,,,,,,,,,,,,,0,0,0,0,,,,,0,1,1,3,0,7,7,7,,,,,,,,,,,,,,,,,,,,,,,,,,,,,,,,,,,,,,,,,,,,,,,,,,,,,CS1_USpos,space,1,0.559136499883607,,,,,,,,,,,,,,,,,18,f,54,n,2019_Nov_22_0900,ec_RRR,3.0.4,59.82299573741961,
Moran Hussey and Hughes,De target figuur voor deze taak is Golett: ,"Dus wanneer Golett (zijn naam of foto) verschijnt op het scherm, druk dan zo snel mogelijk op de spatiebalk. Druk op de spatiebalk telkens wanneer je een foto van Golett of het woord GOLETT ziet. 

Druk op de spatiebalk om de taak te starten.
",target4,stimuli/t4.jpg,54,9,stimuli/filler23.jpg,filler,False,None,,,,,,,,,,,,,,0,0,0,0,,,,,0,1,1,3,0,8,8,8,,,,,,,,,,,,,,,,,,,,,,,,,,,,,,,,,,,,,,,,,,,,,,,,,,,,,CS1_USpos,None,1,,,,,,,,,,,,,,,,,,18,f,54,n,2019_Nov_22_0900,ec_RRR,3.0.4,59.82299573741961,
Moran Hussey and Hughes,De target figuur voor deze taak is Golett: ,"Dus wanneer Golett (zijn naam of foto) verschijnt op het scherm, druk dan zo snel mogelijk op de spatiebalk. Druk op de spatiebalk telkens wanneer je een foto van Golett of het woord GOLETT ziet. 

Druk op de spatiebalk om de taak te starten.
",target4,stimuli/t4.jpg,54,10,stimuli/blank.jpg,blank,False,None,,,,,,,,,,,,,,0,0,0,0,,,,,0,1,1,3,0,9,9,9,,,,,,,,,,,,,,,,,,,,,,,,,,,,,,,,,,,,,,,,,,,,,,,,,,,,,CS1_USpos,None,1,,,,,,,,,,,,,,,,,,18,f,54,n,2019_Nov_22_0900,ec_RRR,3.0.4,59.82299573741961,
Moran Hussey and Hughes,De target figuur voor deze taak is Golett: ,"Dus wanneer Golett (zijn naam of foto) verschijnt op het scherm, druk dan zo snel mogelijk op de spatiebalk. Druk op de spatiebalk telkens wanneer je een foto van Golett of het woord GOLETT ziet. 

Druk op de spatiebalk om de taak te starten.
",target4,stimuli/t4.jpg,54,11,stimuli/cs1_pos13.jpg,CSUS,False,None,,,,,,,,,,,,,,0,0,0,0,,,,,0,1,1,3,0,10,10,10,,,,,,,,,,,,,,,,,,,,,,,,,,,,,,,,,,,,,,,,,,,,,,,,,,,,,CS1_USpos,None,1,,,,,,,,,,,,,,,,,,18,f,54,n,2019_Nov_22_0900,ec_RRR,3.0.4,59.82299573741961,
Moran Hussey and Hughes,De target figuur voor deze taak is Golett: ,"Dus wanneer Golett (zijn naam of foto) verschijnt op het scherm, druk dan zo snel mogelijk op de spatiebalk. Druk op de spatiebalk telkens wanneer je een foto van Golett of het woord GOLETT ziet. 

Druk op de spatiebalk om de taak te starten.
",target4,stimuli/t4.jpg,54,12,stimuli/blank.jpg,blank,False,None,,,,,,,,,,,,,,0,0,0,0,,,,,0,1,1,3,0,11,11,11,,,,,,,,,,,,,,,,,,,,,,,,,,,,,,,,,,,,,,,,,,,,,,,,,,,,,CS1_USpos,None,1,,,,,,,,,,,,,,,,,,18,f,54,n,2019_Nov_22_0900,ec_RRR,3.0.4,59.82299573741961,
Moran Hussey and Hughes,De target figuur voor deze taak is Golett: ,"Dus wanneer Golett (zijn naam of foto) verschijnt op het scherm, druk dan zo snel mogelijk op de spatiebalk. Druk op de spatiebalk telkens wanneer je een foto van Golett of het woord GOLETT ziet. 

Druk op de spatiebalk om de taak te starten.
",target4,stimuli/t4.jpg,54,13,stimuli/filler15.jpg,filler,False,None,,,,,,,,,,,,,,0,0,0,0,,,,,0,1,1,3,0,12,12,12,,,,,,,,,,,,,,,,,,,,,,,,,,,,,,,,,,,,,,,,,,,,,,,,,,,,,CS1_USpos,None,1,,,,,,,,,,,,,,,,,,18,f,54,n,2019_Nov_22_0900,ec_RRR,3.0.4,59.82299573741961,
Moran Hussey and Hughes,De target figuur voor deze taak is Golett: ,"Dus wanneer Golett (zijn naam of foto) verschijnt op het scherm, druk dan zo snel mogelijk op de spatiebalk. Druk op de spatiebalk telkens wanneer je een foto van Golett of het woord GOLETT ziet. 

Druk op de spatiebalk om de taak te starten.
",target4,stimuli/t4.jpg,54,14,stimuli/filler44.jpg,filler,False,None,,,,,,,,,,,,,,0,0,0,0,,,,,0,1,1,3,0,13,13,13,,,,,,,,,,,,,,,,,,,,,,,,,,,,,,,,,,,,,,,,,,,,,,,,,,,,,CS1_USpos,None,1,,,,,,,,,,,,,,,,,,18,f,54,n,2019_Nov_22_0900,ec_RRR,3.0.4,59.82299573741961,
Moran Hussey and Hughes,De target figuur voor deze taak is Golett: ,"Dus wanneer Golett (zijn naam of foto) verschijnt op het scherm, druk dan zo snel mogelijk op de spatiebalk. Druk op de spatiebalk telkens wanneer je een foto van Golett of het woord GOLETT ziet. 

Druk op de spatiebalk om de taak te starten.
",target4,stimuli/t4.jpg,54,15,stimuli/filler3.jpg,filler,False,None,,,,,,,,,,,,,,0,0,0,0,,,,,0,1,1,3,0,14,14,14,,,,,,,,,,,,,,,,,,,,,,,,,,,,,,,,,,,,,,,,,,,,,,,,,,,,,CS1_USpos,None,1,,,,,,,,,,,,,,,,,,18,f,54,n,2019_Nov_22_0900,ec_RRR,3.0.4,59.82299573741961,
Moran Hussey and Hughes,De target figuur voor deze taak is Golett: ,"Dus wanneer Golett (zijn naam of foto) verschijnt op het scherm, druk dan zo snel mogelijk op de spatiebalk. Druk op de spatiebalk telkens wanneer je een foto van Golett of het woord GOLETT ziet. 

Druk op de spatiebalk om de taak te starten.
",target4,stimuli/t4.jpg,54,16,stimuli/filler22.jpg,filler,False,None,,,,,,,,,,,,,,0,0,0,0,,,,,0,1,1,3,0,15,15,15,,,,,,,,,,,,,,,,,,,,,,,,,,,,,,,,,,,,,,,,,,,,,,,,,,,,,CS1_USpos,None,1,,,,,,,,,,,,,,,,,,18,f,54,n,2019_Nov_22_0900,ec_RRR,3.0.4,59.82299573741961,
Moran Hussey and Hughes,De target figuur voor deze taak is Golett: ,"Dus wanneer Golett (zijn naam of foto) verschijnt op het scherm, druk dan zo snel mogelijk op de spatiebalk. Druk op de spatiebalk telkens wanneer je een foto van Golett of het woord GOLETT ziet. 

Druk op de spatiebalk om de taak te starten.
",target4,stimuli/t4.jpg,54,17,stimuli/filler46.jpg,filler,False,None,,,,,,,,,,,,,,0,0,0,0,,,,,0,1,1,3,0,16,16,16,,,,,,,,,,,,,,,,,,,,,,,,,,,,,,,,,,,,,,,,,,,,,,,,,,,,,CS1_USpos,None,1,,,,,,,,,,,,,,,,,,18,f,54,n,2019_Nov_22_0900,ec_RRR,3.0.4,59.82299573741961,
Moran Hussey and Hughes,De target figuur voor deze taak is Golett: ,"Dus wanneer Golett (zijn naam of foto) verschijnt op het scherm, druk dan zo snel mogelijk op de spatiebalk. Druk op de spatiebalk telkens wanneer je een foto van Golett of het woord GOLETT ziet. 

Druk op de spatiebalk om de taak te starten.
",target4,stimuli/t4.jpg,54,18,stimuli/filler32.jpg,filler,False,None,,,,,,,,,,,,,,0,0,0,0,,,,,0,1,1,3,0,17,17,17,,,,,,,,,,,,,,,,,,,,,,,,,,,,,,,,,,,,,,,,,,,,,,,,,,,,,CS1_USpos,None,1,,,,,,,,,,,,,,,,,,18,f,54,n,2019_Nov_22_0900,ec_RRR,3.0.4,59.82299573741961,
Moran Hussey and Hughes,De target figuur voor deze taak is Golett: ,"Dus wanneer Golett (zijn naam of foto) verschijnt op het scherm, druk dan zo snel mogelijk op de spatiebalk. Druk op de spatiebalk telkens wanneer je een foto van Golett of het woord GOLETT ziet. 

Druk op de spatiebalk om de taak te starten.
",target4,stimuli/t4.jpg,54,19,stimuli/filler52.jpg,filler,False,None,,,,,,,,,,,,,,0,0,0,0,,,,,0,1,1,3,0,18,18,18,,,,,,,,,,,,,,,,,,,,,,,,,,,,,,,,,,,,,,,,,,,,,,,,,,,,,CS1_USpos,None,1,,,,,,,,,,,,,,,,,,18,f,54,n,2019_Nov_22_0900,ec_RRR,3.0.4,59.82299573741961,
Moran Hussey and Hughes,De target figuur voor deze taak is Golett: ,"Dus wanneer Golett (zijn naam of foto) verschijnt op het scherm, druk dan zo snel mogelijk op de spatiebalk. Druk op de spatiebalk telkens wanneer je een foto van Golett of het woord GOLETT ziet. 

Druk op de spatiebalk om de taak te starten.
",target4,stimuli/t4.jpg,54,20,stimuli/blank.jpg,blank,False,None,,,,,,,,,,,,,,0,0,0,0,,,,,0,1,1,3,0,19,19,19,,,,,,,,,,,,,,,,,,,,,,,,,,,,,,,,,,,,,,,,,,,,,,,,,,,,,CS1_USpos,None,1,,,,,,,,,,,,,,,,,,18,f,54,n,2019_Nov_22_0900,ec_RRR,3.0.4,59.82299573741961,
Moran Hussey and Hughes,De target figuur voor deze taak is Golett: ,"Dus wanneer Golett (zijn naam of foto) verschijnt op het scherm, druk dan zo snel mogelijk op de spatiebalk. Druk op de spatiebalk telkens wanneer je een foto van Golett of het woord GOLETT ziet. 

Druk op de spatiebalk om de taak te starten.
",target4,stimuli/t4.jpg,54,21,stimuli/cs2_neg7.jpg,CSUS,False,None,,,,,,,,,,,,,,0,0,0,0,,,,,0,1,1,3,0,20,20,20,,,,,,,,,,,,,,,,,,,,,,,,,,,,,,,,,,,,,,,,,,,,,,,,,,,,,CS1_USpos,None,1,,,,,,,,,,,,,,,,,,18,f,54,n,2019_Nov_22_0900,ec_RRR,3.0.4,59.82299573741961,
Moran Hussey and Hughes,De target figuur voor deze taak is Golett: ,"Dus wanneer Golett (zijn naam of foto) verschijnt op het scherm, druk dan zo snel mogelijk op de spatiebalk. Druk op de spatiebalk telkens wanneer je een foto van Golett of het woord GOLETT ziet. 

Druk op de spatiebalk om de taak te starten.
",target4,stimuli/t4.jpg,54,22,stimuli/blank.jpg,blank,False,None,,,,,,,,,,,,,,0,0,0,0,,,,,0,1,1,3,0,21,21,21,,,,,,,,,,,,,,,,,,,,,,,,,,,,,,,,,,,,,,,,,,,,,,,,,,,,,CS1_USpos,None,1,,,,,,,,,,,,,,,,,,18,f,54,n,2019_Nov_22_0900,ec_RRR,3.0.4,59.82299573741961,
Moran Hussey and Hughes,De target figuur voor deze taak is Golett: ,"Dus wanneer Golett (zijn naam of foto) verschijnt op het scherm, druk dan zo snel mogelijk op de spatiebalk. Druk op de spatiebalk telkens wanneer je een foto van Golett of het woord GOLETT ziet. 

Druk op de spatiebalk om de taak te starten.
",target4,stimuli/t4.jpg,54,23,stimuli/filler10.jpg,filler,False,None,,,,,,,,,,,,,,0,0,0,0,,,,,0,1,1,3,0,22,22,22,,,,,,,,,,,,,,,,,,,,,,,,,,,,,,,,,,,,,,,,,,,,,,,,,,,,,CS1_USpos,None,1,,,,,,,,,,,,,,,,,,18,f,54,n,2019_Nov_22_0900,ec_RRR,3.0.4,59.82299573741961,
Moran Hussey and Hughes,De target figuur voor deze taak is Golett: ,"Dus wanneer Golett (zijn naam of foto) verschijnt op het scherm, druk dan zo snel mogelijk op de spatiebalk. Druk op de spatiebalk telkens wanneer je een foto van Golett of het woord GOLETT ziet. 

Druk op de spatiebalk om de taak te starten.
",target4,stimuli/t4.jpg,54,24,stimuli/filler34.jpg,filler,False,None,,,,,,,,,,,,,,0,0,0,0,,,,,0,1,1,3,0,23,23,23,,,,,,,,,,,,,,,,,,,,,,,,,,,,,,,,,,,,,,,,,,,,,,,,,,,,,CS1_USpos,None,1,,,,,,,,,,,,,,,,,,18,f,54,n,2019_Nov_22_0900,ec_RRR,3.0.4,59.82299573741961,
Moran Hussey and Hughes,De target figuur voor deze taak is Golett: ,"Dus wanneer Golett (zijn naam of foto) verschijnt op het scherm, druk dan zo snel mogelijk op de spatiebalk. Druk op de spatiebalk telkens wanneer je een foto van Golett of het woord GOLETT ziet. 

Druk op de spatiebalk om de taak te starten.
",target4,stimuli/t4.jpg,54,25,stimuli/filler33.jpg,filler,False,None,,,,,,,,,,,,,,0,0,0,0,,,,,0,1,1,3,0,24,24,24,,,,,,,,,,,,,,,,,,,,,,,,,,,,,,,,,,,,,,,,,,,,,,,,,,,,,CS1_USpos,None,1,,,,,,,,,,,,,,,,,,18,f,54,n,2019_Nov_22_0900,ec_RRR,3.0.4,59.82299573741961,
Moran Hussey and Hughes,De target figuur voor deze taak is Golett: ,"Dus wanneer Golett (zijn naam of foto) verschijnt op het scherm, druk dan zo snel mogelijk op de spatiebalk. Druk op de spatiebalk telkens wanneer je een foto van Golett of het woord GOLETT ziet. 

Druk op de spatiebalk om de taak te starten.
",target4,stimuli/t4.jpg,54,26,stimuli/filler26.jpg,filler,False,None,,,,,,,,,,,,,,0,0,0,0,,,,,0,1,1,3,0,25,25,25,,,,,,,,,,,,,,,,,,,,,,,,,,,,,,,,,,,,,,,,,,,,,,,,,,,,,CS1_USpos,None,1,,,,,,,,,,,,,,,,,,18,f,54,n,2019_Nov_22_0900,ec_RRR,3.0.4,59.82299573741961,
Moran Hussey and Hughes,De target figuur voor deze taak is Golett: ,"Dus wanneer Golett (zijn naam of foto) verschijnt op het scherm, druk dan zo snel mogelijk op de spatiebalk. Druk op de spatiebalk telkens wanneer je een foto van Golett of het woord GOLETT ziet. 

Druk op de spatiebalk om de taak te starten.
",target4,stimuli/t4.jpg,54,27,stimuli/filler1.jpg,filler,False,None,,,,,,,,,,,,,,0,0,0,0,,,,,0,1,1,3,0,26,26,26,,,,,,,,,,,,,,,,,,,,,,,,,,,,,,,,,,,,,,,,,,,,,,,,,,,,,CS1_USpos,None,1,,,,,,,,,,,,,,,,,,18,f,54,n,2019_Nov_22_0900,ec_RRR,3.0.4,59.82299573741961,
Moran Hussey and Hughes,De target figuur voor deze taak is Golett: ,"Dus wanneer Golett (zijn naam of foto) verschijnt op het scherm, druk dan zo snel mogelijk op de spatiebalk. Druk op de spatiebalk telkens wanneer je een foto van Golett of het woord GOLETT ziet. 

Druk op de spatiebalk om de taak te starten.
",target4,stimuli/t4.jpg,54,28,stimuli/filler21.jpg,filler,False,None,,,,,,,,,,,,,,0,0,0,0,,,,,0,1,1,3,0,27,27,27,,,,,,,,,,,,,,,,,,,,,,,,,,,,,,,,,,,,,,,,,,,,,,,,,,,,,CS1_USpos,None,1,,,,,,,,,,,,,,,,,,18,f,54,n,2019_Nov_22_0900,ec_RRR,3.0.4,59.82299573741961,
Moran Hussey and Hughes,De target figuur voor deze taak is Golett: ,"Dus wanneer Golett (zijn naam of foto) verschijnt op het scherm, druk dan zo snel mogelijk op de spatiebalk. Druk op de spatiebalk telkens wanneer je een foto van Golett of het woord GOLETT ziet. 

Druk op de spatiebalk om de taak te starten.
",target4,stimuli/t4.jpg,54,29,stimuli/target4_6.jpg,target,True,space,,,,,,,,,,,,,,0,0,0,0,,,,,0,1,1,3,0,28,28,28,,,,,,,,,,,,,,,,,,,,,,,,,,,,,,,,,,,,,,,,,,,,,,,,,,,,,CS1_USpos,space,1,0.6597831000108272,,,,,,,,,,,,,,,,,18,f,54,n,2019_Nov_22_0900,ec_RRR,3.0.4,59.82299573741961,
Moran Hussey and Hughes,De target figuur voor deze taak is Golett: ,"Dus wanneer Golett (zijn naam of foto) verschijnt op het scherm, druk dan zo snel mogelijk op de spatiebalk. Druk op de spatiebalk telkens wanneer je een foto van Golett of het woord GOLETT ziet. 

Druk op de spatiebalk om de taak te starten.
",target4,stimuli/t4.jpg,54,30,stimuli/blank.jpg,blank,False,None,,,,,,,,,,,,,,0,0,0,0,,,,,0,1,1,3,0,29,29,29,,,,,,,,,,,,,,,,,,,,,,,,,,,,,,,,,,,,,,,,,,,,,,,,,,,,,CS1_USpos,None,1,,,,,,,,,,,,,,,,,,18,f,54,n,2019_Nov_22_0900,ec_RRR,3.0.4,59.82299573741961,
Moran Hussey and Hughes,De target figuur voor deze taak is Golett: ,"Dus wanneer Golett (zijn naam of foto) verschijnt op het scherm, druk dan zo snel mogelijk op de spatiebalk. Druk op de spatiebalk telkens wanneer je een foto van Golett of het woord GOLETT ziet. 

Druk op de spatiebalk om de taak te starten.
",target4,stimuli/t4.jpg,54,31,stimuli/cs1_pos15.jpg,CSUS,False,None,,,,,,,,,,,,,,0,0,0,0,,,,,0,1,1,3,0,30,30,30,,,,,,,,,,,,,,,,,,,,,,,,,,,,,,,,,,,,,,,,,,,,,,,,,,,,,CS1_USpos,None,1,,,,,,,,,,,,,,,,,,18,f,54,n,2019_Nov_22_0900,ec_RRR,3.0.4,59.82299573741961,
Moran Hussey and Hughes,De target figuur voor deze taak is Golett: ,"Dus wanneer Golett (zijn naam of foto) verschijnt op het scherm, druk dan zo snel mogelijk op de spatiebalk. Druk op de spatiebalk telkens wanneer je een foto van Golett of het woord GOLETT ziet. 

Druk op de spatiebalk om de taak te starten.
",target4,stimuli/t4.jpg,54,32,stimuli/blank.jpg,blank,False,None,,,,,,,,,,,,,,0,0,0,0,,,,,0,1,1,3,0,31,31,31,,,,,,,,,,,,,,,,,,,,,,,,,,,,,,,,,,,,,,,,,,,,,,,,,,,,,CS1_USpos,None,1,,,,,,,,,,,,,,,,,,18,f,54,n,2019_Nov_22_0900,ec_RRR,3.0.4,59.82299573741961,
Moran Hussey and Hughes,De target figuur voor deze taak is Golett: ,"Dus wanneer Golett (zijn naam of foto) verschijnt op het scherm, druk dan zo snel mogelijk op de spatiebalk. Druk op de spatiebalk telkens wanneer je een foto van Golett of het woord GOLETT ziet. 

Druk op de spatiebalk om de taak te starten.
",target4,stimuli/t4.jpg,54,33,stimuli/filler42.jpg,filler,False,None,,,,,,,,,,,,,,0,0,0,0,,,,,0,1,1,3,0,32,32,32,,,,,,,,,,,,,,,,,,,,,,,,,,,,,,,,,,,,,,,,,,,,,,,,,,,,,CS1_USpos,None,1,,,,,,,,,,,,,,,,,,18,f,54,n,2019_Nov_22_0900,ec_RRR,3.0.4,59.82299573741961,
Moran Hussey and Hughes,De target figuur voor deze taak is Golett: ,"Dus wanneer Golett (zijn naam of foto) verschijnt op het scherm, druk dan zo snel mogelijk op de spatiebalk. Druk op de spatiebalk telkens wanneer je een foto van Golett of het woord GOLETT ziet. 

Druk op de spatiebalk om de taak te starten.
",target4,stimuli/t4.jpg,54,34,stimuli/target4_1.jpg,target,True,space,,,,,,,,,,,,,,0,0,0,0,,,,,0,1,1,3,0,33,33,33,,,,,,,,,,,,,,,,,,,,,,,,,,,,,,,,,,,,,,,,,,,,,,,,,,,,,CS1_USpos,space,1,0.704472600016743,,,,,,,,,,,,,,,,,18,f,54,n,2019_Nov_22_0900,ec_RRR,3.0.4,59.82299573741961,
Moran Hussey and Hughes,De target figuur voor deze taak is Golett: ,"Dus wanneer Golett (zijn naam of foto) verschijnt op het scherm, druk dan zo snel mogelijk op de spatiebalk. Druk op de spatiebalk telkens wanneer je een foto van Golett of het woord GOLETT ziet. 

Druk op de spatiebalk om de taak te starten.
",target4,stimuli/t4.jpg,54,35,stimuli/filler14.jpg,filler,False,None,,,,,,,,,,,,,,0,0,0,0,,,,,0,1,1,3,0,34,34,34,,,,,,,,,,,,,,,,,,,,,,,,,,,,,,,,,,,,,,,,,,,,,,,,,,,,,CS1_USpos,None,1,,,,,,,,,,,,,,,,,,18,f,54,n,2019_Nov_22_0900,ec_RRR,3.0.4,59.82299573741961,
Moran Hussey and Hughes,De target figuur voor deze taak is Golett: ,"Dus wanneer Golett (zijn naam of foto) verschijnt op het scherm, druk dan zo snel mogelijk op de spatiebalk. Druk op de spatiebalk telkens wanneer je een foto van Golett of het woord GOLETT ziet. 

Druk op de spatiebalk om de taak te starten.
",target4,stimuli/t4.jpg,54,36,stimuli/filler27.jpg,filler,False,None,,,,,,,,,,,,,,0,0,0,0,,,,,0,1,1,3,0,35,35,35,,,,,,,,,,,,,,,,,,,,,,,,,,,,,,,,,,,,,,,,,,,,,,,,,,,,,CS1_USpos,None,1,,,,,,,,,,,,,,,,,,18,f,54,n,2019_Nov_22_0900,ec_RRR,3.0.4,59.82299573741961,
Moran Hussey and Hughes,De target figuur voor deze taak is Golett: ,"Dus wanneer Golett (zijn naam of foto) verschijnt op het scherm, druk dan zo snel mogelijk op de spatiebalk. Druk op de spatiebalk telkens wanneer je een foto van Golett of het woord GOLETT ziet. 

Druk op de spatiebalk om de taak te starten.
",target4,stimuli/t4.jpg,54,37,stimuli/filler49.jpg,filler,False,None,,,,,,,,,,,,,,0,0,0,0,,,,,0,1,1,3,0,36,36,36,,,,,,,,,,,,,,,,,,,,,,,,,,,,,,,,,,,,,,,,,,,,,,,,,,,,,CS1_USpos,None,1,,,,,,,,,,,,,,,,,,18,f,54,n,2019_Nov_22_0900,ec_RRR,3.0.4,59.82299573741961,
Moran Hussey and Hughes,De target figuur voor deze taak is Golett: ,"Dus wanneer Golett (zijn naam of foto) verschijnt op het scherm, druk dan zo snel mogelijk op de spatiebalk. Druk op de spatiebalk telkens wanneer je een foto van Golett of het woord GOLETT ziet. 

Druk op de spatiebalk om de taak te starten.
",target4,stimuli/t4.jpg,54,38,stimuli/filler11.jpg,filler,False,None,,,,,,,,,,,,,,0,0,0,0,,,,,0,1,1,3,0,37,37,37,,,,,,,,,,,,,,,,,,,,,,,,,,,,,,,,,,,,,,,,,,,,,,,,,,,,,CS1_USpos,None,1,,,,,,,,,,,,,,,,,,18,f,54,n,2019_Nov_22_0900,ec_RRR,3.0.4,59.82299573741961,
Moran Hussey and Hughes,De target figuur voor deze taak is Golett: ,"Dus wanneer Golett (zijn naam of foto) verschijnt op het scherm, druk dan zo snel mogelijk op de spatiebalk. Druk op de spatiebalk telkens wanneer je een foto van Golett of het woord GOLETT ziet. 

Druk op de spatiebalk om de taak te starten.
",target4,stimuli/t4.jpg,54,39,stimuli/filler4.jpg,filler,False,None,,,,,,,,,,,,,,0,0,0,0,,,,,0,1,1,3,0,38,38,38,,,,,,,,,,,,,,,,,,,,,,,,,,,,,,,,,,,,,,,,,,,,,,,,,,,,,CS1_USpos,None,1,,,,,,,,,,,,,,,,,,18,f,54,n,2019_Nov_22_0900,ec_RRR,3.0.4,59.82299573741961,
Moran Hussey and Hughes,De target figuur voor deze taak is Golett: ,"Dus wanneer Golett (zijn naam of foto) verschijnt op het scherm, druk dan zo snel mogelijk op de spatiebalk. Druk op de spatiebalk telkens wanneer je een foto van Golett of het woord GOLETT ziet. 

Druk op de spatiebalk om de taak te starten.
",target4,stimuli/t4.jpg,54,40,stimuli/blank.jpg,blank,False,None,,,,,,,,,,,,,,0,0,0,0,,,,,0,1,1,3,0,39,39,39,,,,,,,,,,,,,,,,,,,,,,,,,,,,,,,,,,,,,,,,,,,,,,,,,,,,,CS1_USpos,None,1,,,,,,,,,,,,,,,,,,18,f,54,n,2019_Nov_22_0900,ec_RRR,3.0.4,59.82299573741961,
Moran Hussey and Hughes,De target figuur voor deze taak is Golett: ,"Dus wanneer Golett (zijn naam of foto) verschijnt op het scherm, druk dan zo snel mogelijk op de spatiebalk. Druk op de spatiebalk telkens wanneer je een foto van Golett of het woord GOLETT ziet. 

Druk op de spatiebalk om de taak te starten.
",target4,stimuli/t4.jpg,54,41,stimuli/cs2_neg15.jpg,CSUS,False,None,,,,,,,,,,,,,,0,0,0,0,,,,,0,1,1,3,0,40,40,40,,,,,,,,,,,,,,,,,,,,,,,,,,,,,,,,,,,,,,,,,,,,,,,,,,,,,CS1_USpos,None,1,,,,,,,,,,,,,,,,,,18,f,54,n,2019_Nov_22_0900,ec_RRR,3.0.4,59.82299573741961,
Moran Hussey and Hughes,De target figuur voor deze taak is Golett: ,"Dus wanneer Golett (zijn naam of foto) verschijnt op het scherm, druk dan zo snel mogelijk op de spatiebalk. Druk op de spatiebalk telkens wanneer je een foto van Golett of het woord GOLETT ziet. 

Druk op de spatiebalk om de taak te starten.
",target4,stimuli/t4.jpg,54,42,stimuli/blank.jpg,blank,False,None,,,,,,,,,,,,,,0,0,0,0,,,,,0,1,1,3,0,41,41,41,,,,,,,,,,,,,,,,,,,,,,,,,,,,,,,,,,,,,,,,,,,,,,,,,,,,,CS1_USpos,None,1,,,,,,,,,,,,,,,,,,18,f,54,n,2019_Nov_22_0900,ec_RRR,3.0.4,59.82299573741961,
Moran Hussey and Hughes,De target figuur voor deze taak is Golett: ,"Dus wanneer Golett (zijn naam of foto) verschijnt op het scherm, druk dan zo snel mogelijk op de spatiebalk. Druk op de spatiebalk telkens wanneer je een foto van Golett of het woord GOLETT ziet. 

Druk op de spatiebalk om de taak te starten.
",target4,stimuli/t4.jpg,54,43,stimuli/filler51.jpg,filler,False,None,,,,,,,,,,,,,,0,0,0,0,,,,,0,1,1,3,0,42,42,42,,,,,,,,,,,,,,,,,,,,,,,,,,,,,,,,,,,,,,,,,,,,,,,,,,,,,CS1_USpos,None,1,,,,,,,,,,,,,,,,,,18,f,54,n,2019_Nov_22_0900,ec_RRR,3.0.4,59.82299573741961,
Moran Hussey and Hughes,De target figuur voor deze taak is Golett: ,"Dus wanneer Golett (zijn naam of foto) verschijnt op het scherm, druk dan zo snel mogelijk op de spatiebalk. Druk op de spatiebalk telkens wanneer je een foto van Golett of het woord GOLETT ziet. 

Druk op de spatiebalk om de taak te starten.
",target4,stimuli/t4.jpg,54,44,stimuli/target4_3.jpg,target,True,space,,,,,,,,,,,,,,0,0,0,0,,,,,0,1,1,3,0,43,43,43,,,,,,,,,,,,,,,,,,,,,,,,,,,,,,,,,,,,,,,,,,,,,,,,,,,,,CS1_USpos,space,1,0.7457238999195397,,,,,,,,,,,,,,,,,18,f,54,n,2019_Nov_22_0900,ec_RRR,3.0.4,59.82299573741961,
Moran Hussey and Hughes,De target figuur voor deze taak is Golett: ,"Dus wanneer Golett (zijn naam of foto) verschijnt op het scherm, druk dan zo snel mogelijk op de spatiebalk. Druk op de spatiebalk telkens wanneer je een foto van Golett of het woord GOLETT ziet. 

Druk op de spatiebalk om de taak te starten.
",target4,stimuli/t4.jpg,54,45,stimuli/filler29.jpg,filler,False,None,,,,,,,,,,,,,,0,0,0,0,,,,,0,1,1,3,0,44,44,44,,,,,,,,,,,,,,,,,,,,,,,,,,,,,,,,,,,,,,,,,,,,,,,,,,,,,CS1_USpos,None,1,,,,,,,,,,,,,,,,,,18,f,54,n,2019_Nov_22_0900,ec_RRR,3.0.4,59.82299573741961,
Moran Hussey and Hughes,De target figuur voor deze taak is Golett: ,"Dus wanneer Golett (zijn naam of foto) verschijnt op het scherm, druk dan zo snel mogelijk op de spatiebalk. Druk op de spatiebalk telkens wanneer je een foto van Golett of het woord GOLETT ziet. 

Druk op de spatiebalk om de taak te starten.
",target4,stimuli/t4.jpg,54,46,stimuli/filler41.jpg,filler,False,None,,,,,,,,,,,,,,0,0,0,0,,,,,0,1,1,3,0,45,45,45,,,,,,,,,,,,,,,,,,,,,,,,,,,,,,,,,,,,,,,,,,,,,,,,,,,,,CS1_USpos,None,1,,,,,,,,,,,,,,,,,,18,f,54,n,2019_Nov_22_0900,ec_RRR,3.0.4,59.82299573741961,
Moran Hussey and Hughes,De target figuur voor deze taak is Golett: ,"Dus wanneer Golett (zijn naam of foto) verschijnt op het scherm, druk dan zo snel mogelijk op de spatiebalk. Druk op de spatiebalk telkens wanneer je een foto van Golett of het woord GOLETT ziet. 

Druk op de spatiebalk om de taak te starten.
",target4,stimuli/t4.jpg,54,47,stimuli/filler30.jpg,filler,False,None,,,,,,,,,,,,,,0,0,0,0,,,,,0,1,1,3,0,46,46,46,,,,,,,,,,,,,,,,,,,,,,,,,,,,,,,,,,,,,,,,,,,,,,,,,,,,,CS1_USpos,None,1,,,,,,,,,,,,,,,,,,18,f,54,n,2019_Nov_22_0900,ec_RRR,3.0.4,59.82299573741961,
Moran Hussey and Hughes,De target figuur voor deze taak is Golett: ,"Dus wanneer Golett (zijn naam of foto) verschijnt op het scherm, druk dan zo snel mogelijk op de spatiebalk. Druk op de spatiebalk telkens wanneer je een foto van Golett of het woord GOLETT ziet. 

Druk op de spatiebalk om de taak te starten.
",target4,stimuli/t4.jpg,54,48,stimuli/filler35.jpg,filler,False,None,,,,,,,,,,,,,,0,0,0,0,,,,,0,1,1,3,0,47,47,47,,,,,,,,,,,,,,,,,,,,,,,,,,,,,,,,,,,,,,,,,,,,,,,,,,,,,CS1_USpos,None,1,,,,,,,,,,,,,,,,,,18,f,54,n,2019_Nov_22_0900,ec_RRR,3.0.4,59.82299573741961,
Moran Hussey and Hughes,De target figuur voor deze taak is Golett: ,"Dus wanneer Golett (zijn naam of foto) verschijnt op het scherm, druk dan zo snel mogelijk op de spatiebalk. Druk op de spatiebalk telkens wanneer je een foto van Golett of het woord GOLETT ziet. 

Druk op de spatiebalk om de taak te starten.
",target4,stimuli/t4.jpg,54,49,stimuli/filler48.jpg,filler,False,None,,,,,,,,,,,,,,0,0,0,0,,,,,0,1,1,3,0,48,48,48,,,,,,,,,,,,,,,,,,,,,,,,,,,,,,,,,,,,,,,,,,,,,,,,,,,,,CS1_USpos,None,1,,,,,,,,,,,,,,,,,,18,f,54,n,2019_Nov_22_0900,ec_RRR,3.0.4,59.82299573741961,
Moran Hussey and Hughes,De target figuur voor deze taak is Golett: ,"Dus wanneer Golett (zijn naam of foto) verschijnt op het scherm, druk dan zo snel mogelijk op de spatiebalk. Druk op de spatiebalk telkens wanneer je een foto van Golett of het woord GOLETT ziet. 

Druk op de spatiebalk om de taak te starten.
",target4,stimuli/t4.jpg,54,50,stimuli/blank.jpg,blank,False,None,,,,,,,,,,,,,,0,0,0,0,,,,,0,1,1,3,0,49,49,49,,,,,,,,,,,,,,,,,,,,,,,,,,,,,,,,,,,,,,,,,,,,,,,,,,,,,CS1_USpos,None,1,,,,,,,,,,,,,,,,,,18,f,54,n,2019_Nov_22_0900,ec_RRR,3.0.4,59.82299573741961,
Moran Hussey and Hughes,De target figuur voor deze taak is Golett: ,"Dus wanneer Golett (zijn naam of foto) verschijnt op het scherm, druk dan zo snel mogelijk op de spatiebalk. Druk op de spatiebalk telkens wanneer je een foto van Golett of het woord GOLETT ziet. 

Druk op de spatiebalk om de taak te starten.
",target4,stimuli/t4.jpg,54,51,stimuli/cs1_pos20.jpg,CSUS,False,None,,,,,,,,,,,,,,0,0,0,0,,,,,0,1,1,3,0,50,50,50,,,,,,,,,,,,,,,,,,,,,,,,,,,,,,,,,,,,,,,,,,,,,,,,,,,,,CS1_USpos,None,1,,,,,,,,,,,,,,,,,,18,f,54,n,2019_Nov_22_0900,ec_RRR,3.0.4,59.82299573741961,
Moran Hussey and Hughes,De target figuur voor deze taak is Golett: ,"Dus wanneer Golett (zijn naam of foto) verschijnt op het scherm, druk dan zo snel mogelijk op de spatiebalk. Druk op de spatiebalk telkens wanneer je een foto van Golett of het woord GOLETT ziet. 

Druk op de spatiebalk om de taak te starten.
",target4,stimuli/t4.jpg,54,52,stimuli/blank.jpg,blank,False,None,,,,,,,,,,,,,,0,0,0,0,,,,,0,1,1,3,0,51,51,51,,,,,,,,,,,,,,,,,,,,,,,,,,,,,,,,,,,,,,,,,,,,,,,,,,,,,CS1_USpos,None,1,,,,,,,,,,,,,,,,,,18,f,54,n,2019_Nov_22_0900,ec_RRR,3.0.4,59.82299573741961,
Moran Hussey and Hughes,De target figuur voor deze taak is Golett: ,"Dus wanneer Golett (zijn naam of foto) verschijnt op het scherm, druk dan zo snel mogelijk op de spatiebalk. Druk op de spatiebalk telkens wanneer je een foto van Golett of het woord GOLETT ziet. 

Druk op de spatiebalk om de taak te starten.
",target4,stimuli/t4.jpg,54,53,stimuli/filler43.jpg,filler,False,None,,,,,,,,,,,,,,0,0,0,0,,,,,0,1,1,3,0,52,52,52,,,,,,,,,,,,,,,,,,,,,,,,,,,,,,,,,,,,,,,,,,,,,,,,,,,,,CS1_USpos,None,1,,,,,,,,,,,,,,,,,,18,f,54,n,2019_Nov_22_0900,ec_RRR,3.0.4,59.82299573741961,
Moran Hussey and Hughes,De target figuur voor deze taak is Golett: ,"Dus wanneer Golett (zijn naam of foto) verschijnt op het scherm, druk dan zo snel mogelijk op de spatiebalk. Druk op de spatiebalk telkens wanneer je een foto van Golett of het woord GOLETT ziet. 

Druk op de spatiebalk om de taak te starten.
",target4,stimuli/t4.jpg,54,54,stimuli/filler50.jpg,filler,False,None,,,,,,,,,,,,,,0,0,0,0,,,,,0,1,1,3,0,53,53,53,,,,,,,,,,,,,,,,,,,,,,,,,,,,,,,,,,,,,,,,,,,,,,,,,,,,,CS1_USpos,None,1,,,,,,,,,,,,,,,,,,18,f,54,n,2019_Nov_22_0900,ec_RRR,3.0.4,59.82299573741961,
Moran Hussey and Hughes,De target figuur voor deze taak is Golett: ,"Dus wanneer Golett (zijn naam of foto) verschijnt op het scherm, druk dan zo snel mogelijk op de spatiebalk. Druk op de spatiebalk telkens wanneer je een foto van Golett of het woord GOLETT ziet. 

Druk op de spatiebalk om de taak te starten.
",target4,stimuli/t4.jpg,54,55,stimuli/filler36.jpg,filler,False,None,,,,,,,,,,,,,,0,0,0,0,,,,,0,1,1,3,0,54,54,54,,,,,,,,,,,,,,,,,,,,,,,,,,,,,,,,,,,,,,,,,,,,,,,,,,,,,CS1_USpos,None,1,,,,,,,,,,,,,,,,,,18,f,54,n,2019_Nov_22_0900,ec_RRR,3.0.4,59.82299573741961,
Moran Hussey and Hughes,De target figuur voor deze taak is Golett: ,"Dus wanneer Golett (zijn naam of foto) verschijnt op het scherm, druk dan zo snel mogelijk op de spatiebalk. Druk op de spatiebalk telkens wanneer je een foto van Golett of het woord GOLETT ziet. 

Druk op de spatiebalk om de taak te starten.
",target4,stimuli/t4.jpg,54,56,stimuli/filler20.jpg,filler,False,None,,,,,,,,,,,,,,0,0,0,0,,,,,0,1,1,3,0,55,55,55,,,,,,,,,,,,,,,,,,,,,,,,,,,,,,,,,,,,,,,,,,,,,,,,,,,,,CS1_USpos,None,1,,,,,,,,,,,,,,,,,,18,f,54,n,2019_Nov_22_0900,ec_RRR,3.0.4,59.82299573741961,
Moran Hussey and Hughes,De target figuur voor deze taak is Golett: ,"Dus wanneer Golett (zijn naam of foto) verschijnt op het scherm, druk dan zo snel mogelijk op de spatiebalk. Druk op de spatiebalk telkens wanneer je een foto van Golett of het woord GOLETT ziet. 

Druk op de spatiebalk om de taak te starten.
",target4,stimuli/t4.jpg,54,57,stimuli/target4_10.jpg,target,True,space,,,,,,,,,,,,,,0,0,0,0,,,,,0,1,1,3,0,56,56,56,,,,,,,,,,,,,,,,,,,,,,,,,,,,,,,,,,,,,,,,,,,,,,,,,,,,,CS1_USpos,space,1,0.5266532001551241,,,,,,,,,,,,,,,,,18,f,54,n,2019_Nov_22_0900,ec_RRR,3.0.4,59.82299573741961,
Moran Hussey and Hughes,De target figuur voor deze taak is Golett: ,"Dus wanneer Golett (zijn naam of foto) verschijnt op het scherm, druk dan zo snel mogelijk op de spatiebalk. Druk op de spatiebalk telkens wanneer je een foto van Golett of het woord GOLETT ziet. 

Druk op de spatiebalk om de taak te starten.
",target4,stimuli/t4.jpg,54,58,stimuli/target4_8.jpg,target,True,space,,,,,,,,,,,,,,0,0,0,0,,,,,0,1,1,3,0,57,57,57,,,,,,,,,,,,,,,,,,,,,,,,,,,,,,,,,,,,,,,,,,,,,,,,,,,,,CS1_USpos,space,1,1.2776486000511795,,,,,,,,,,,,,,,,,18,f,54,n,2019_Nov_22_0900,ec_RRR,3.0.4,59.82299573741961,
Moran Hussey and Hughes,De target figuur voor deze taak is Golett: ,"Dus wanneer Golett (zijn naam of foto) verschijnt op het scherm, druk dan zo snel mogelijk op de spatiebalk. Druk op de spatiebalk telkens wanneer je een foto van Golett of het woord GOLETT ziet. 

Druk op de spatiebalk om de taak te starten.
",target4,stimuli/t4.jpg,54,59,stimuli/filler39.jpg,filler,False,None,,,,,,,,,,,,,,0,0,0,0,,,,,0,1,1,3,0,58,58,58,,,,,,,,,,,,,,,,,,,,,,,,,,,,,,,,,,,,,,,,,,,,,,,,,,,,,CS1_USpos,None,1,,,,,,,,,,,,,,,,,,18,f,54,n,2019_Nov_22_0900,ec_RRR,3.0.4,59.82299573741961,
Moran Hussey and Hughes,De target figuur voor deze taak is Golett: ,"Dus wanneer Golett (zijn naam of foto) verschijnt op het scherm, druk dan zo snel mogelijk op de spatiebalk. Druk op de spatiebalk telkens wanneer je een foto van Golett of het woord GOLETT ziet. 

Druk op de spatiebalk om de taak te starten.
",target4,stimuli/t4.jpg,54,60,stimuli/blank.jpg,blank,False,None,,,,,,,,,,,,,,0,0,0,0,,,,,0,1,1,3,0,59,59,59,,,,,,,,,,,,,,,,,,,,,,,,,,,,,,,,,,,,,,,,,,,,,,,,,,,,,CS1_USpos,None,1,,,,,,,,,,,,,,,,,,18,f,54,n,2019_Nov_22_0900,ec_RRR,3.0.4,59.82299573741961,
Moran Hussey and Hughes,De target figuur voor deze taak is Golett: ,"Dus wanneer Golett (zijn naam of foto) verschijnt op het scherm, druk dan zo snel mogelijk op de spatiebalk. Druk op de spatiebalk telkens wanneer je een foto van Golett of het woord GOLETT ziet. 

Druk op de spatiebalk om de taak te starten.
",target4,stimuli/t4.jpg,54,61,stimuli/cs2_neg10.jpg,CSUS,False,None,,,,,,,,,,,,,,0,0,0,0,,,,,0,1,1,3,0,60,60,60,,,,,,,,,,,,,,,,,,,,,,,,,,,,,,,,,,,,,,,,,,,,,,,,,,,,,CS1_USpos,None,1,,,,,,,,,,,,,,,,,,18,f,54,n,2019_Nov_22_0900,ec_RRR,3.0.4,59.82299573741961,
Moran Hussey and Hughes,De target figuur voor deze taak is Golett: ,"Dus wanneer Golett (zijn naam of foto) verschijnt op het scherm, druk dan zo snel mogelijk op de spatiebalk. Druk op de spatiebalk telkens wanneer je een foto van Golett of het woord GOLETT ziet. 

Druk op de spatiebalk om de taak te starten.
",target4,stimuli/t4.jpg,54,62,stimuli/blank.jpg,blank,False,None,,,,,,,,,,,,,,0,0,0,0,,,,,0,1,1,3,0,61,61,61,,,,,,,,,,,,,,,,,,,,,,,,,,,,,,,,,,,,,,,,,,,,,,,,,,,,,CS1_USpos,None,1,,,,,,,,,,,,,,,,,,18,f,54,n,2019_Nov_22_0900,ec_RRR,3.0.4,59.82299573741961,
Moran Hussey and Hughes,De target figuur voor deze taak is Golett: ,"Dus wanneer Golett (zijn naam of foto) verschijnt op het scherm, druk dan zo snel mogelijk op de spatiebalk. Druk op de spatiebalk telkens wanneer je een foto van Golett of het woord GOLETT ziet. 

Druk op de spatiebalk om de taak te starten.
",target4,stimuli/t4.jpg,54,63,stimuli/filler45.jpg,filler,False,None,,,,,,,,,,,,,,0,0,0,0,,,,,0,1,1,3,0,62,62,62,,,,,,,,,,,,,,,,,,,,,,,,,,,,,,,,,,,,,,,,,,,,,,,,,,,,,CS1_USpos,None,1,,,,,,,,,,,,,,,,,,18,f,54,n,2019_Nov_22_0900,ec_RRR,3.0.4,59.82299573741961,
Moran Hussey and Hughes,De target figuur voor deze taak is Golett: ,"Dus wanneer Golett (zijn naam of foto) verschijnt op het scherm, druk dan zo snel mogelijk op de spatiebalk. Druk op de spatiebalk telkens wanneer je een foto van Golett of het woord GOLETT ziet. 

Druk op de spatiebalk om de taak te starten.
",target4,stimuli/t4.jpg,54,64,stimuli/filler38.jpg,filler,False,None,,,,,,,,,,,,,,0,0,0,0,,,,,0,1,1,3,0,63,63,63,,,,,,,,,,,,,,,,,,,,,,,,,,,,,,,,,,,,,,,,,,,,,,,,,,,,,CS1_USpos,None,1,,,,,,,,,,,,,,,,,,18,f,54,n,2019_Nov_22_0900,ec_RRR,3.0.4,59.82299573741961,
Moran Hussey and Hughes,De target figuur voor deze taak is Golett: ,"Dus wanneer Golett (zijn naam of foto) verschijnt op het scherm, druk dan zo snel mogelijk op de spatiebalk. Druk op de spatiebalk telkens wanneer je een foto van Golett of het woord GOLETT ziet. 

Druk op de spatiebalk om de taak te starten.
",target4,stimuli/t4.jpg,54,65,stimuli/filler5.jpg,filler,False,None,,,,,,,,,,,,,,0,0,0,0,,,,,0,1,1,3,0,64,64,64,,,,,,,,,,,,,,,,,,,,,,,,,,,,,,,,,,,,,,,,,,,,,,,,,,,,,CS1_USpos,None,1,,,,,,,,,,,,,,,,,,18,f,54,n,2019_Nov_22_0900,ec_RRR,3.0.4,59.82299573741961,
Moran Hussey and Hughes,De target figuur voor deze taak is Golett: ,"Dus wanneer Golett (zijn naam of foto) verschijnt op het scherm, druk dan zo snel mogelijk op de spatiebalk. Druk op de spatiebalk telkens wanneer je een foto van Golett of het woord GOLETT ziet. 

Druk op de spatiebalk om de taak te starten.
",target4,stimuli/t4.jpg,54,66,stimuli/filler25.jpg,filler,False,None,,,,,,,,,,,,,,0,0,0,0,,,,,0,1,1,3,0,65,65,65,,,,,,,,,,,,,,,,,,,,,,,,,,,,,,,,,,,,,,,,,,,,,,,,,,,,,CS1_USpos,None,1,,,,,,,,,,,,,,,,,,18,f,54,n,2019_Nov_22_0900,ec_RRR,3.0.4,59.82299573741961,
Moran Hussey and Hughes,De target figuur voor deze taak is Golett: ,"Dus wanneer Golett (zijn naam of foto) verschijnt op het scherm, druk dan zo snel mogelijk op de spatiebalk. Druk op de spatiebalk telkens wanneer je een foto van Golett of het woord GOLETT ziet. 

Druk op de spatiebalk om de taak te starten.
",target4,stimuli/t4.jpg,54,67,stimuli/filler13.jpg,filler,False,None,,,,,,,,,,,,,,0,0,0,0,,,,,0,1,1,3,0,66,66,66,,,,,,,,,,,,,,,,,,,,,,,,,,,,,,,,,,,,,,,,,,,,,,,,,,,,,CS1_USpos,None,1,,,,,,,,,,,,,,,,,,18,f,54,n,2019_Nov_22_0900,ec_RRR,3.0.4,59.82299573741961,
Moran Hussey and Hughes,De target figuur voor deze taak is Golett: ,"Dus wanneer Golett (zijn naam of foto) verschijnt op het scherm, druk dan zo snel mogelijk op de spatiebalk. Druk op de spatiebalk telkens wanneer je een foto van Golett of het woord GOLETT ziet. 

Druk op de spatiebalk om de taak te starten.
",target4,stimuli/t4.jpg,54,68,stimuli/target4_7.jpg,target,True,space,,,,,,,,,,,,,,0,0,0,0,,,,,0,1,1,3,0,67,67,67,,,,,,,,,,,,,,,,,,,,,,,,,,,,,,,,,,,,,,,,,,,,,,,,,,,,,CS1_USpos,space,1,0.6688797001261264,,,,,,,,,,,,,,,,,18,f,54,n,2019_Nov_22_0900,ec_RRR,3.0.4,59.82299573741961,
Moran Hussey and Hughes,De target figuur voor deze taak is Golett: ,"Dus wanneer Golett (zijn naam of foto) verschijnt op het scherm, druk dan zo snel mogelijk op de spatiebalk. Druk op de spatiebalk telkens wanneer je een foto van Golett of het woord GOLETT ziet. 

Druk op de spatiebalk om de taak te starten.
",target4,stimuli/t4.jpg,54,69,stimuli/filler31.jpg,filler,False,None,,,,,,,,,,,,,,0,0,0,0,,,,,0,1,1,3,0,68,68,68,,,,,,,,,,,,,,,,,,,,,,,,,,,,,,,,,,,,,,,,,,,,,,,,,,,,,CS1_USpos,None,1,,,,,,,,,,,,,,,,,,18,f,54,n,2019_Nov_22_0900,ec_RRR,3.0.4,59.82299573741961,
Moran Hussey and Hughes,De target figuur voor deze taak is Golett: ,"Dus wanneer Golett (zijn naam of foto) verschijnt op het scherm, druk dan zo snel mogelijk op de spatiebalk. Druk op de spatiebalk telkens wanneer je een foto van Golett of het woord GOLETT ziet. 

Druk op de spatiebalk om de taak te starten.
",target4,stimuli/t4.jpg,54,70,stimuli/blank.jpg,blank,False,None,,,,,,,,,,,,,,0,0,0,0,,,,,0,1,1,3,0,69,69,69,,,,,,,,,,,,,,,,,,,,,,,,,,,,,,,,,,,,,,,,,,,,,,,,,,,,,CS1_USpos,None,1,,,,,,,,,,,,,,,,,,18,f,54,n,2019_Nov_22_0900,ec_RRR,3.0.4,59.82299573741961,
Moran Hussey and Hughes,De target figuur voor deze taak is Golett: ,"Dus wanneer Golett (zijn naam of foto) verschijnt op het scherm, druk dan zo snel mogelijk op de spatiebalk. Druk op de spatiebalk telkens wanneer je een foto van Golett of het woord GOLETT ziet. 

Druk op de spatiebalk om de taak te starten.
",target4,stimuli/t4.jpg,54,71,stimuli/cs1_pos3.jpg,CSUS,False,None,,,,,,,,,,,,,,0,0,0,0,,,,,0,1,1,3,0,70,70,70,,,,,,,,,,,,,,,,,,,,,,,,,,,,,,,,,,,,,,,,,,,,,,,,,,,,,CS1_USpos,None,1,,,,,,,,,,,,,,,,,,18,f,54,n,2019_Nov_22_0900,ec_RRR,3.0.4,59.82299573741961,
Moran Hussey and Hughes,De target figuur voor deze taak is Golett: ,"Dus wanneer Golett (zijn naam of foto) verschijnt op het scherm, druk dan zo snel mogelijk op de spatiebalk. Druk op de spatiebalk telkens wanneer je een foto van Golett of het woord GOLETT ziet. 

Druk op de spatiebalk om de taak te starten.
",target4,stimuli/t4.jpg,54,72,stimuli/blank.jpg,blank,False,None,,,,,,,,,,,,,,0,0,0,0,,,,,0,1,1,3,0,71,71,71,,,,,,,,,,,,,,,,,,,,,,,,,,,,,,,,,,,,,,,,,,,,,,,,,,,,,CS1_USpos,None,1,,,,,,,,,,,,,,,,,,18,f,54,n,2019_Nov_22_0900,ec_RRR,3.0.4,59.82299573741961,
Moran Hussey and Hughes,De target figuur voor deze taak is Golett: ,"Dus wanneer Golett (zijn naam of foto) verschijnt op het scherm, druk dan zo snel mogelijk op de spatiebalk. Druk op de spatiebalk telkens wanneer je een foto van Golett of het woord GOLETT ziet. 

Druk op de spatiebalk om de taak te starten.
",target4,stimuli/t4.jpg,54,73,stimuli/filler16.jpg,filler,False,None,,,,,,,,,,,,,,0,0,0,0,,,,,0,1,1,3,0,72,72,72,,,,,,,,,,,,,,,,,,,,,,,,,,,,,,,,,,,,,,,,,,,,,,,,,,,,,CS1_USpos,None,1,,,,,,,,,,,,,,,,,,18,f,54,n,2019_Nov_22_0900,ec_RRR,3.0.4,59.82299573741961,
Moran Hussey and Hughes,De target figuur voor deze taak is Golett: ,"Dus wanneer Golett (zijn naam of foto) verschijnt op het scherm, druk dan zo snel mogelijk op de spatiebalk. Druk op de spatiebalk telkens wanneer je een foto van Golett of het woord GOLETT ziet. 

Druk op de spatiebalk om de taak te starten.
",target4,stimuli/t4.jpg,54,74,stimuli/filler9.jpg,filler,False,None,,,,,,,,,,,,,,0,0,0,0,,,,,0,1,1,3,0,73,73,73,,,,,,,,,,,,,,,,,,,,,,,,,,,,,,,,,,,,,,,,,,,,,,,,,,,,,CS1_USpos,None,1,,,,,,,,,,,,,,,,,,18,f,54,n,2019_Nov_22_0900,ec_RRR,3.0.4,59.82299573741961,
Moran Hussey and Hughes,De target figuur voor deze taak is Golett: ,"Dus wanneer Golett (zijn naam of foto) verschijnt op het scherm, druk dan zo snel mogelijk op de spatiebalk. Druk op de spatiebalk telkens wanneer je een foto van Golett of het woord GOLETT ziet. 

Druk op de spatiebalk om de taak te starten.
",target4,stimuli/t4.jpg,54,75,stimuli/target4_5.jpg,target,True,space,,,,,,,,,,,,,,0,0,0,0,,,,,0,1,1,3,0,74,74,74,,,,,,,,,,,,,,,,,,,,,,,,,,,,,,,,,,,,,,,,,,,,,,,,,,,,,CS1_USpos,space,1,0.747892800020054,,,,,,,,,,,,,,,,,18,f,54,n,2019_Nov_22_0900,ec_RRR,3.0.4,59.82299573741961,
Moran Hussey and Hughes,De target figuur voor deze taak is Golett: ,"Dus wanneer Golett (zijn naam of foto) verschijnt op het scherm, druk dan zo snel mogelijk op de spatiebalk. Druk op de spatiebalk telkens wanneer je een foto van Golett of het woord GOLETT ziet. 

Druk op de spatiebalk om de taak te starten.
",target4,stimuli/t4.jpg,54,76,stimuli/filler8.jpg,filler,False,None,,,,,,,,,,,,,,0,0,0,0,,,,,0,1,1,3,0,75,75,75,,,,,,,,,,,,,,,,,,,,,,,,,,,,,,,,,,,,,,,,,,,,,,,,,,,,,CS1_USpos,None,1,,,,,,,,,,,,,,,,,,18,f,54,n,2019_Nov_22_0900,ec_RRR,3.0.4,59.82299573741961,
Moran Hussey and Hughes,De target figuur voor deze taak is Golett: ,"Dus wanneer Golett (zijn naam of foto) verschijnt op het scherm, druk dan zo snel mogelijk op de spatiebalk. Druk op de spatiebalk telkens wanneer je een foto van Golett of het woord GOLETT ziet. 

Druk op de spatiebalk om de taak te starten.
",target4,stimuli/t4.jpg,54,77,stimuli/filler19.jpg,filler,False,None,,,,,,,,,,,,,,0,0,0,0,,,,,0,1,1,3,0,76,76,76,,,,,,,,,,,,,,,,,,,,,,,,,,,,,,,,,,,,,,,,,,,,,,,,,,,,,CS1_USpos,None,1,,,,,,,,,,,,,,,,,,18,f,54,n,2019_Nov_22_0900,ec_RRR,3.0.4,59.82299573741961,
Moran Hussey and Hughes,De target figuur voor deze taak is Golett: ,"Dus wanneer Golett (zijn naam of foto) verschijnt op het scherm, druk dan zo snel mogelijk op de spatiebalk. Druk op de spatiebalk telkens wanneer je een foto van Golett of het woord GOLETT ziet. 

Druk op de spatiebalk om de taak te starten.
",target4,stimuli/t4.jpg,54,78,stimuli/target4_9.jpg,target,True,space,,,,,,,,,,,,,,0,0,0,0,,,,,0,1,1,3,0,77,77,77,,,,,,,,,,,,,,,,,,,,,,,,,,,,,,,,,,,,,,,,,,,,,,,,,,,,,CS1_USpos,space,1,0.7156726999673992,,,,,,,,,,,,,,,,,18,f,54,n,2019_Nov_22_0900,ec_RRR,3.0.4,59.82299573741961,
Moran Hussey and Hughes,De target figuur voor deze taak is Golett: ,"Dus wanneer Golett (zijn naam of foto) verschijnt op het scherm, druk dan zo snel mogelijk op de spatiebalk. Druk op de spatiebalk telkens wanneer je een foto van Golett of het woord GOLETT ziet. 

Druk op de spatiebalk om de taak te starten.
",target4,stimuli/t4.jpg,54,79,stimuli/filler47.jpg,filler,False,None,,,,,,,,,,,,,,0,0,0,0,,,,,0,1,1,3,0,78,78,78,,,,,,,,,,,,,,,,,,,,,,,,,,,,,,,,,,,,,,,,,,,,,,,,,,,,,CS1_USpos,None,1,,,,,,,,,,,,,,,,,,18,f,54,n,2019_Nov_22_0900,ec_RRR,3.0.4,59.82299573741961,
Moran Hussey and Hughes,De target figuur voor deze taak is Golett: ,"Dus wanneer Golett (zijn naam of foto) verschijnt op het scherm, druk dan zo snel mogelijk op de spatiebalk. Druk op de spatiebalk telkens wanneer je een foto van Golett of het woord GOLETT ziet. 

Druk op de spatiebalk om de taak te starten.
",target4,stimuli/t4.jpg,54,80,stimuli/blank.jpg,blank,False,None,,,,,,,,,,,,,,0,0,0,0,,,,,0,1,1,3,0,79,79,79,,,,,,,,,,,,,,,,,,,,,,,,,,,,,,,,,,,,,,,,,,,,,,,,,,,,,CS1_USpos,None,1,,,,,,,,,,,,,,,,,,18,f,54,n,2019_Nov_22_0900,ec_RRR,3.0.4,59.82299573741961,
Moran Hussey and Hughes,De target figuur voor deze taak is Golett: ,"Dus wanneer Golett (zijn naam of foto) verschijnt op het scherm, druk dan zo snel mogelijk op de spatiebalk. Druk op de spatiebalk telkens wanneer je een foto van Golett of het woord GOLETT ziet. 

Druk op de spatiebalk om de taak te starten.
