data_collection_site,instructions_text_top,instructions_text_bottom,block_id,example_image,participant,trial_number,stimulus,trial_type,target_trial,surveillance_correct_response,filler_1_items,filler_2_items,middle_text,left_text,right_text,evaluation_stimulus,left_stimulus,right_stimulus,evaluation_response_indicating_CS1_preferred,awareness_1_question_text,awareness_2a_question_text,awareness_2b_question_text,awareness_2_question_text,record_data_collection_site_variable.thisRepN,record_data_collection_site_variable.thisTrialN,record_data_collection_site_variable.thisN,record_data_collection_site_variable.thisIndex,surveillance_instructions_loop.thisRepN,surveillance_instructions_loop.thisTrialN,surveillance_instructions_loop.thisN,surveillance_instructions_loop.thisIndex,surveillance_blocks_loop.thisRepN,surveillance_blocks_loop.thisTrialN,surveillance_blocks_loop.thisN,surveillance_blocks_loop.thisIndex,surveillance_trials_loop.thisRepN,surveillance_trials_loop.thisTrialN,surveillance_trials_loop.thisN,surveillance_trials_loop.thisIndex,filler_1_instructions_loop.thisRepN,filler_1_instructions_loop.thisTrialN,filler_1_instructions_loop.thisN,filler_1_instructions_loop.thisIndex,filler_1_loop.thisRepN,filler_1_loop.thisTrialN,filler_1_loop.thisN,filler_1_loop.thisIndex,filler_2_instructions_loop.thisRepN,filler_2_instructions_loop.thisTrialN,filler_2_instructions_loop.thisN,filler_2_instructions_loop.thisIndex,filler_2_loop.thisRepN,filler_2_loop.thisTrialN,filler_2_loop.thisN,filler_2_loop.thisIndex,evaluation_instructions_loop.thisRepN,evaluation_instructions_loop.thisTrialN,evaluation_instructions_loop.thisN,evaluation_instructions_loop.thisIndex,evaluation_loop.thisRepN,evaluation_loop.thisTrialN,evaluation_loop.thisN,evaluation_loop.thisIndex,evaluation_trials.thisRepN,evaluation_trials.thisTrialN,evaluation_trials.thisN,evaluation_trials.thisIndex,awareness_instructions_loop.thisRepN,awareness_instructions_loop.thisTrialN,awareness_instructions_loop.thisN,awareness_instructions_loop.thisIndex,awareness_1_trials_loop.thisRepN,awareness_1_trials_loop.thisTrialN,awareness_1_trials_loop.thisN,awareness_1_trials_loop.thisIndex,awareness_2a_trials_loop.thisRepN,awareness_2a_trials_loop.thisTrialN,awareness_2a_trials_loop.thisN,awareness_2a_trials_loop.thisIndex,awareness_2b_trials_loop.thisRepN,awareness_2b_trials_loop.thisTrialN,awareness_2b_trials_loop.thisN,awareness_2b_trials_loop.thisIndex,awareness_2c_trials_loop.thisRepN,awareness_2c_trials_loop.thisTrialN,awareness_2c_trials_loop.thisN,awareness_2c_trials_loop.thisIndex,end_message_loop.thisRepN,end_message_loop.thisTrialN,end_message_loop.thisN,end_message_loop.thisIndex,condition,surveillance_response.keys,surveillance_response.corr,surveillance_response.rt,filler_1_rating.response,filler_1_rating.rt,filler_2_rating.response,filler_2_rating.rt,evaluation_response.keys,evaluation_response.corr,evaluation_response.rt,inputText,awareness_1_response.keys,awareness_1_response.rt,awareness_type_2a_rating.response,awareness_type_2a_rating.rt,awareness_type_2b_rating.response,awareness_type_2b_rating.rt,awareness_type_2c_rating.response,awareness_type_2c_rating.rt,age,gender,participant,UseMonkey,date,expName,psychopyVersion,frameRate,
Hutter,Das Zielwesen für diese Aufgabe ist Gourgeist:,"Also sobald Gourgeist (sein Name oder sein Bild) auf dem Bildschirm erscheint, drücken Sie so schnell wie möglich die Leertaste. Drücken Sie die Leertaste, immer wenn Sie ein Bild von Gourgeist oder das Wort GOURGEIST sehen. 

Drücken Sie die Leertaste, um die Aufgabe zu starten.",target5,stimuli/t5.jpg,15,1,stimuli/filler11.jpg,filler,False,None,,,,,,,,,,,,,,0,0,0,0,,,,,0,0,0,4,0,0,0,0,,,,,,,,,,,,,,,,,,,,,,,,,,,,,,,,,,,,,,,,,,,,,,,,,,,,,CS1_USneg,None,1,,,,,,,,,,,,,,,,,,19,w,15,n,2019_Nov_22_1347,ec_RRR,3.0.4,60.02346917642285,
Hutter,Das Zielwesen für diese Aufgabe ist Gourgeist:,"Also sobald Gourgeist (sein Name oder sein Bild) auf dem Bildschirm erscheint, drücken Sie so schnell wie möglich die Leertaste. Drücken Sie die Leertaste, immer wenn Sie ein Bild von Gourgeist oder das Wort GOURGEIST sehen. 

Drücken Sie die Leertaste, um die Aufgabe zu starten.",target5,stimuli/t5.jpg,15,2,stimuli/filler36.jpg,filler,False,None,,,,,,,,,,,,,,0,0,0,0,,,,,0,0,0,4,0,1,1,1,,,,,,,,,,,,,,,,,,,,,,,,,,,,,,,,,,,,,,,,,,,,,,,,,,,,,CS1_USneg,None,1,,,,,,,,,,,,,,,,,,19,w,15,n,2019_Nov_22_1347,ec_RRR,3.0.4,60.02346917642285,
Hutter,Das Zielwesen für diese Aufgabe ist Gourgeist:,"Also sobald Gourgeist (sein Name oder sein Bild) auf dem Bildschirm erscheint, drücken Sie so schnell wie möglich die Leertaste. Drücken Sie die Leertaste, immer wenn Sie ein Bild von Gourgeist oder das Wort GOURGEIST sehen. 

Drücken Sie die Leertaste, um die Aufgabe zu starten.",target5,stimuli/t5.jpg,15,3,stimuli/filler5.jpg,filler,False,None,,,,,,,,,,,,,,0,0,0,0,,,,,0,0,0,4,0,2,2,2,,,,,,,,,,,,,,,,,,,,,,,,,,,,,,,,,,,,,,,,,,,,,,,,,,,,,CS1_USneg,None,1,,,,,,,,,,,,,,,,,,19,w,15,n,2019_Nov_22_1347,ec_RRR,3.0.4,60.02346917642285,
Hutter,Das Zielwesen für diese Aufgabe ist Gourgeist:,"Also sobald Gourgeist (sein Name oder sein Bild) auf dem Bildschirm erscheint, drücken Sie so schnell wie möglich die Leertaste. Drücken Sie die Leertaste, immer wenn Sie ein Bild von Gourgeist oder das Wort GOURGEIST sehen. 

Drücken Sie die Leertaste, um die Aufgabe zu starten.",target5,stimuli/t5.jpg,15,4,stimuli/filler13.jpg,filler,False,None,,,,,,,,,,,,,,0,0,0,0,,,,,0,0,0,4,0,3,3,3,,,,,,,,,,,,,,,,,,,,,,,,,,,,,,,,,,,,,,,,,,,,,,,,,,,,,CS1_USneg,None,1,,,,,,,,,,,,,,,,,,19,w,15,n,2019_Nov_22_1347,ec_RRR,3.0.4,60.02346917642285,
Hutter,Das Zielwesen für diese Aufgabe ist Gourgeist:,"Also sobald Gourgeist (sein Name oder sein Bild) auf dem Bildschirm erscheint, drücken Sie so schnell wie möglich die Leertaste. Drücken Sie die Leertaste, immer wenn Sie ein Bild von Gourgeist oder das Wort GOURGEIST sehen. 

Drücken Sie die Leertaste, um die Aufgabe zu starten.",target5,stimuli/t5.jpg,15,5,stimuli/filler41.jpg,filler,False,None,,,,,,,,,,,,,,0,0,0,0,,,,,0,0,0,4,0,4,4,4,,,,,,,,,,,,,,,,,,,,,,,,,,,,,,,,,,,,,,,,,,,,,,,,,,,,,CS1_USneg,None,1,,,,,,,,,,,,,,,,,,19,w,15,n,2019_Nov_22_1347,ec_RRR,3.0.4,60.02346917642285,
Hutter,Das Zielwesen für diese Aufgabe ist Gourgeist:,"Also sobald Gourgeist (sein Name oder sein Bild) auf dem Bildschirm erscheint, drücken Sie so schnell wie möglich die Leertaste. Drücken Sie die Leertaste, immer wenn Sie ein Bild von Gourgeist oder das Wort GOURGEIST sehen. 

Drücken Sie die Leertaste, um die Aufgabe zu starten.",target5,stimuli/t5.jpg,15,6,stimuli/filler8.jpg,filler,False,None,,,,,,,,,,,,,,0,0,0,0,,,,,0,0,0,4,0,5,5,5,,,,,,,,,,,,,,,,,,,,,,,,,,,,,,,,,,,,,,,,,,,,,,,,,,,,,CS1_USneg,None,1,,,,,,,,,,,,,,,,,,19,w,15,n,2019_Nov_22_1347,ec_RRR,3.0.4,60.02346917642285,
Hutter,Das Zielwesen für diese Aufgabe ist Gourgeist:,"Also sobald Gourgeist (sein Name oder sein Bild) auf dem Bildschirm erscheint, drücken Sie so schnell wie möglich die Leertaste. Drücken Sie die Leertaste, immer wenn Sie ein Bild von Gourgeist oder das Wort GOURGEIST sehen. 

Drücken Sie die Leertaste, um die Aufgabe zu starten.",target5,stimuli/t5.jpg,15,7,stimuli/filler15.jpg,filler,False,None,,,,,,,,,,,,,,0,0,0,0,,,,,0,0,0,4,0,6,6,6,,,,,,,,,,,,,,,,,,,,,,,,,,,,,,,,,,,,,,,,,,,,,,,,,,,,,CS1_USneg,None,1,,,,,,,,,,,,,,,,,,19,w,15,n,2019_Nov_22_1347,ec_RRR,3.0.4,60.02346917642285,
Hutter,Das Zielwesen für diese Aufgabe ist Gourgeist:,"Also sobald Gourgeist (sein Name oder sein Bild) auf dem Bildschirm erscheint, drücken Sie so schnell wie möglich die Leertaste. Drücken Sie die Leertaste, immer wenn Sie ein Bild von Gourgeist oder das Wort GOURGEIST sehen. 

Drücken Sie die Leertaste, um die Aufgabe zu starten.",target5,stimuli/t5.jpg,15,8,stimuli/filler30.jpg,filler,False,None,,,,,,,,,,,,,,0,0,0,0,,,,,0,0,0,4,0,7,7,7,,,,,,,,,,,,,,,,,,,,,,,,,,,,,,,,,,,,,,,,,,,,,,,,,,,,,CS1_USneg,None,1,,,,,,,,,,,,,,,,,,19,w,15,n,2019_Nov_22_1347,ec_RRR,3.0.4,60.02346917642285,
Hutter,Das Zielwesen für diese Aufgabe ist Gourgeist:,"Also sobald Gourgeist (sein Name oder sein Bild) auf dem Bildschirm erscheint, drücken Sie so schnell wie möglich die Leertaste. Drücken Sie die Leertaste, immer wenn Sie ein Bild von Gourgeist oder das Wort GOURGEIST sehen. 

Drücken Sie die Leertaste, um die Aufgabe zu starten.",target5,stimuli/t5.jpg,15,9,stimuli/filler37.jpg,filler,False,None,,,,,,,,,,,,,,0,0,0,0,,,,,0,0,0,4,0,8,8,8,,,,,,,,,,,,,,,,,,,,,,,,,,,,,,,,,,,,,,,,,,,,,,,,,,,,,CS1_USneg,None,1,,,,,,,,,,,,,,,,,,19,w,15,n,2019_Nov_22_1347,ec_RRR,3.0.4,60.02346917642285,
Hutter,Das Zielwesen für diese Aufgabe ist Gourgeist:,"Also sobald Gourgeist (sein Name oder sein Bild) auf dem Bildschirm erscheint, drücken Sie so schnell wie möglich die Leertaste. Drücken Sie die Leertaste, immer wenn Sie ein Bild von Gourgeist oder das Wort GOURGEIST sehen. 

Drücken Sie die Leertaste, um die Aufgabe zu starten.",target5,stimuli/t5.jpg,15,10,stimuli/blank.jpg,blank,False,None,,,,,,,,,,,,,,0,0,0,0,,,,,0,0,0,4,0,9,9,9,,,,,,,,,,,,,,,,,,,,,,,,,,,,,,,,,,,,,,,,,,,,,,,,,,,,,CS1_USneg,None,1,,,,,,,,,,,,,,,,,,19,w,15,n,2019_Nov_22_1347,ec_RRR,3.0.4,60.02346917642285,
Hutter,Das Zielwesen für diese Aufgabe ist Gourgeist:,"Also sobald Gourgeist (sein Name oder sein Bild) auf dem Bildschirm erscheint, drücken Sie so schnell wie möglich die Leertaste. Drücken Sie die Leertaste, immer wenn Sie ein Bild von Gourgeist oder das Wort GOURGEIST sehen. 

Drücken Sie die Leertaste, um die Aufgabe zu starten.",target5,stimuli/t5.jpg,15,11,stimuli/cs1_neg17.jpg,CSUS,False,None,,,,,,,,,,,,,,0,0,0,0,,,,,0,0,0,4,0,10,10,10,,,,,,,,,,,,,,,,,,,,,,,,,,,,,,,,,,,,,,,,,,,,,,,,,,,,,CS1_USneg,None,1,,,,,,,,,,,,,,,,,,19,w,15,n,2019_Nov_22_1347,ec_RRR,3.0.4,60.02346917642285,
Hutter,Das Zielwesen für diese Aufgabe ist Gourgeist:,"Also sobald Gourgeist (sein Name oder sein Bild) auf dem Bildschirm erscheint, drücken Sie so schnell wie möglich die Leertaste. Drücken Sie die Leertaste, immer wenn Sie ein Bild von Gourgeist oder das Wort GOURGEIST sehen. 

Drücken Sie die Leertaste, um die Aufgabe zu starten.",target5,stimuli/t5.jpg,15,12,stimuli/blank.jpg,blank,False,None,,,,,,,,,,,,,,0,0,0,0,,,,,0,0,0,4,0,11,11,11,,,,,,,,,,,,,,,,,,,,,,,,,,,,,,,,,,,,,,,,,,,,,,,,,,,,,CS1_USneg,None,1,,,,,,,,,,,,,,,,,,19,w,15,n,2019_Nov_22_1347,ec_RRR,3.0.4,60.02346917642285,
Hutter,Das Zielwesen für diese Aufgabe ist Gourgeist:,"Also sobald Gourgeist (sein Name oder sein Bild) auf dem Bildschirm erscheint, drücken Sie so schnell wie möglich die Leertaste. Drücken Sie die Leertaste, immer wenn Sie ein Bild von Gourgeist oder das Wort GOURGEIST sehen. 

Drücken Sie die Leertaste, um die Aufgabe zu starten.",target5,stimuli/t5.jpg,15,13,stimuli/filler4.jpg,filler,False,None,,,,,,,,,,,,,,0,0,0,0,,,,,0,0,0,4,0,12,12,12,,,,,,,,,,,,,,,,,,,,,,,,,,,,,,,,,,,,,,,,,,,,,,,,,,,,,CS1_USneg,None,1,,,,,,,,,,,,,,,,,,19,w,15,n,2019_Nov_22_1347,ec_RRR,3.0.4,60.02346917642285,
Hutter,Das Zielwesen für diese Aufgabe ist Gourgeist:,"Also sobald Gourgeist (sein Name oder sein Bild) auf dem Bildschirm erscheint, drücken Sie so schnell wie möglich die Leertaste. Drücken Sie die Leertaste, immer wenn Sie ein Bild von Gourgeist oder das Wort GOURGEIST sehen. 

Drücken Sie die Leertaste, um die Aufgabe zu starten.",target5,stimuli/t5.jpg,15,14,stimuli/filler25.jpg,filler,False,None,,,,,,,,,,,,,,0,0,0,0,,,,,0,0,0,4,0,13,13,13,,,,,,,,,,,,,,,,,,,,,,,,,,,,,,,,,,,,,,,,,,,,,,,,,,,,,CS1_USneg,None,1,,,,,,,,,,,,,,,,,,19,w,15,n,2019_Nov_22_1347,ec_RRR,3.0.4,60.02346917642285,
Hutter,Das Zielwesen für diese Aufgabe ist Gourgeist:,"Also sobald Gourgeist (sein Name oder sein Bild) auf dem Bildschirm erscheint, drücken Sie so schnell wie möglich die Leertaste. Drücken Sie die Leertaste, immer wenn Sie ein Bild von Gourgeist oder das Wort GOURGEIST sehen. 

Drücken Sie die Leertaste, um die Aufgabe zu starten.",target5,stimuli/t5.jpg,15,15,stimuli/filler33.jpg,filler,False,None,,,,,,,,,,,,,,0,0,0,0,,,,,0,0,0,4,0,14,14,14,,,,,,,,,,,,,,,,,,,,,,,,,,,,,,,,,,,,,,,,,,,,,,,,,,,,,CS1_USneg,None,1,,,,,,,,,,,,,,,,,,19,w,15,n,2019_Nov_22_1347,ec_RRR,3.0.4,60.02346917642285,
Hutter,Das Zielwesen für diese Aufgabe ist Gourgeist:,"Also sobald Gourgeist (sein Name oder sein Bild) auf dem Bildschirm erscheint, drücken Sie so schnell wie möglich die Leertaste. Drücken Sie die Leertaste, immer wenn Sie ein Bild von Gourgeist oder das Wort GOURGEIST sehen. 

Drücken Sie die Leertaste, um die Aufgabe zu starten.",target5,stimuli/t5.jpg,15,16,stimuli/target5_5.jpg,target,True,space,,,,,,,,,,,,,,0,0,0,0,,,,,0,0,0,4,0,15,15,15,,,,,,,,,,,,,,,,,,,,,,,,,,,,,,,,,,,,,,,,,,,,,,,,,,,,,CS1_USneg,space,1,0.7237517999997181,,,,,,,,,,,,,,,,,19,w,15,n,2019_Nov_22_1347,ec_RRR,3.0.4,60.02346917642285,
Hutter,Das Zielwesen für diese Aufgabe ist Gourgeist:,"Also sobald Gourgeist (sein Name oder sein Bild) auf dem Bildschirm erscheint, drücken Sie so schnell wie möglich die Leertaste. Drücken Sie die Leertaste, immer wenn Sie ein Bild von Gourgeist oder das Wort GOURGEIST sehen. 

Drücken Sie die Leertaste, um die Aufgabe zu starten.",target5,stimuli/t5.jpg,15,17,stimuli/filler43.jpg,filler,False,None,,,,,,,,,,,,,,0,0,0,0,,,,,0,0,0,4,0,16,16,16,,,,,,,,,,,,,,,,,,,,,,,,,,,,,,,,,,,,,,,,,,,,,,,,,,,,,CS1_USneg,None,1,,,,,,,,,,,,,,,,,,19,w,15,n,2019_Nov_22_1347,ec_RRR,3.0.4,60.02346917642285,
Hutter,Das Zielwesen für diese Aufgabe ist Gourgeist:,"Also sobald Gourgeist (sein Name oder sein Bild) auf dem Bildschirm erscheint, drücken Sie so schnell wie möglich die Leertaste. Drücken Sie die Leertaste, immer wenn Sie ein Bild von Gourgeist oder das Wort GOURGEIST sehen. 

Drücken Sie die Leertaste, um die Aufgabe zu starten.",target5,stimuli/t5.jpg,15,18,stimuli/target5_10.jpg,target,True,space,,,,,,,,,,,,,,0,0,0,0,,,,,0,0,0,4,0,17,17,17,,,,,,,,,,,,,,,,,,,,,,,,,,,,,,,,,,,,,,,,,,,,,,,,,,,,,CS1_USneg,space,1,0.6073608999995486,,,,,,,,,,,,,,,,,19,w,15,n,2019_Nov_22_1347,ec_RRR,3.0.4,60.02346917642285,
Hutter,Das Zielwesen für diese Aufgabe ist Gourgeist:,"Also sobald Gourgeist (sein Name oder sein Bild) auf dem Bildschirm erscheint, drücken Sie so schnell wie möglich die Leertaste. Drücken Sie die Leertaste, immer wenn Sie ein Bild von Gourgeist oder das Wort GOURGEIST sehen. 

Drücken Sie die Leertaste, um die Aufgabe zu starten.",target5,stimuli/t5.jpg,15,19,stimuli/filler10.jpg,filler,False,None,,,,,,,,,,,,,,0,0,0,0,,,,,0,0,0,4,0,18,18,18,,,,,,,,,,,,,,,,,,,,,,,,,,,,,,,,,,,,,,,,,,,,,,,,,,,,,CS1_USneg,None,1,,,,,,,,,,,,,,,,,,19,w,15,n,2019_Nov_22_1347,ec_RRR,3.0.4,60.02346917642285,
Hutter,Das Zielwesen für diese Aufgabe ist Gourgeist:,"Also sobald Gourgeist (sein Name oder sein Bild) auf dem Bildschirm erscheint, drücken Sie so schnell wie möglich die Leertaste. Drücken Sie die Leertaste, immer wenn Sie ein Bild von Gourgeist oder das Wort GOURGEIST sehen. 

Drücken Sie die Leertaste, um die Aufgabe zu starten.",target5,stimuli/t5.jpg,15,20,stimuli/blank.jpg,blank,False,None,,,,,,,,,,,,,,0,0,0,0,,,,,0,0,0,4,0,19,19,19,,,,,,,,,,,,,,,,,,,,,,,,,,,,,,,,,,,,,,,,,,,,,,,,,,,,,CS1_USneg,None,1,,,,,,,,,,,,,,,,,,19,w,15,n,2019_Nov_22_1347,ec_RRR,3.0.4,60.02346917642285,
Hutter,Das Zielwesen für diese Aufgabe ist Gourgeist:,"Also sobald Gourgeist (sein Name oder sein Bild) auf dem Bildschirm erscheint, drücken Sie so schnell wie möglich die Leertaste. Drücken Sie die Leertaste, immer wenn Sie ein Bild von Gourgeist oder das Wort GOURGEIST sehen. 

Drücken Sie die Leertaste, um die Aufgabe zu starten.",target5,stimuli/t5.jpg,15,21,stimuli/cs2_pos17.jpg,CSUS,False,None,,,,,,,,,,,,,,0,0,0,0,,,,,0,0,0,4,0,20,20,20,,,,,,,,,,,,,,,,,,,,,,,,,,,,,,,,,,,,,,,,,,,,,,,,,,,,,CS1_USneg,None,1,,,,,,,,,,,,,,,,,,19,w,15,n,2019_Nov_22_1347,ec_RRR,3.0.4,60.02346917642285,
Hutter,Das Zielwesen für diese Aufgabe ist Gourgeist:,"Also sobald Gourgeist (sein Name oder sein Bild) auf dem Bildschirm erscheint, drücken Sie so schnell wie möglich die Leertaste. Drücken Sie die Leertaste, immer wenn Sie ein Bild von Gourgeist oder das Wort GOURGEIST sehen. 

Drücken Sie die Leertaste, um die Aufgabe zu starten.",target5,stimuli/t5.jpg,15,22,stimuli/blank.jpg,blank,False,None,,,,,,,,,,,,,,0,0,0,0,,,,,0,0,0,4,0,21,21,21,,,,,,,,,,,,,,,,,,,,,,,,,,,,,,,,,,,,,,,,,,,,,,,,,,,,,CS1_USneg,None,1,,,,,,,,,,,,,,,,,,19,w,15,n,2019_Nov_22_1347,ec_RRR,3.0.4,60.02346917642285,
Hutter,Das Zielwesen für diese Aufgabe ist Gourgeist:,"Also sobald Gourgeist (sein Name oder sein Bild) auf dem Bildschirm erscheint, drücken Sie so schnell wie möglich die Leertaste. Drücken Sie die Leertaste, immer wenn Sie ein Bild von Gourgeist oder das Wort GOURGEIST sehen. 

Drücken Sie die Leertaste, um die Aufgabe zu starten.",target5,stimuli/t5.jpg,15,23,stimuli/filler18.jpg,filler,False,None,,,,,,,,,,,,,,0,0,0,0,,,,,0,0,0,4,0,22,22,22,,,,,,,,,,,,,,,,,,,,,,,,,,,,,,,,,,,,,,,,,,,,,,,,,,,,,CS1_USneg,None,1,,,,,,,,,,,,,,,,,,19,w,15,n,2019_Nov_22_1347,ec_RRR,3.0.4,60.02346917642285,
Hutter,Das Zielwesen für diese Aufgabe ist Gourgeist:,"Also sobald Gourgeist (sein Name oder sein Bild) auf dem Bildschirm erscheint, drücken Sie so schnell wie möglich die Leertaste. Drücken Sie die Leertaste, immer wenn Sie ein Bild von Gourgeist oder das Wort GOURGEIST sehen. 

Drücken Sie die Leertaste, um die Aufgabe zu starten.",target5,stimuli/t5.jpg,15,24,stimuli/filler9.jpg,filler,False,None,,,,,,,,,,,,,,0,0,0,0,,,,,0,0,0,4,0,23,23,23,,,,,,,,,,,,,,,,,,,,,,,,,,,,,,,,,,,,,,,,,,,,,,,,,,,,,CS1_USneg,None,1,,,,,,,,,,,,,,,,,,19,w,15,n,2019_Nov_22_1347,ec_RRR,3.0.4,60.02346917642285,
Hutter,Das Zielwesen für diese Aufgabe ist Gourgeist:,"Also sobald Gourgeist (sein Name oder sein Bild) auf dem Bildschirm erscheint, drücken Sie so schnell wie möglich die Leertaste. Drücken Sie die Leertaste, immer wenn Sie ein Bild von Gourgeist oder das Wort GOURGEIST sehen. 

Drücken Sie die Leertaste, um die Aufgabe zu starten.",target5,stimuli/t5.jpg,15,25,stimuli/filler28.jpg,filler,False,None,,,,,,,,,,,,,,0,0,0,0,,,,,0,0,0,4,0,24,24,24,,,,,,,,,,,,,,,,,,,,,,,,,,,,,,,,,,,,,,,,,,,,,,,,,,,,,CS1_USneg,None,1,,,,,,,,,,,,,,,,,,19,w,15,n,2019_Nov_22_1347,ec_RRR,3.0.4,60.02346917642285,
Hutter,Das Zielwesen für diese Aufgabe ist Gourgeist:,"Also sobald Gourgeist (sein Name oder sein Bild) auf dem Bildschirm erscheint, drücken Sie so schnell wie möglich die Leertaste. Drücken Sie die Leertaste, immer wenn Sie ein Bild von Gourgeist oder das Wort GOURGEIST sehen. 

Drücken Sie die Leertaste, um die Aufgabe zu starten.",target5,stimuli/t5.jpg,15,26,stimuli/filler6.jpg,filler,False,None,,,,,,,,,,,,,,0,0,0,0,,,,,0,0,0,4,0,25,25,25,,,,,,,,,,,,,,,,,,,,,,,,,,,,,,,,,,,,,,,,,,,,,,,,,,,,,CS1_USneg,None,1,,,,,,,,,,,,,,,,,,19,w,15,n,2019_Nov_22_1347,ec_RRR,3.0.4,60.02346917642285,
Hutter,Das Zielwesen für diese Aufgabe ist Gourgeist:,"Also sobald Gourgeist (sein Name oder sein Bild) auf dem Bildschirm erscheint, drücken Sie so schnell wie möglich die Leertaste. Drücken Sie die Leertaste, immer wenn Sie ein Bild von Gourgeist oder das Wort GOURGEIST sehen. 

Drücken Sie die Leertaste, um die Aufgabe zu starten.",target5,stimuli/t5.jpg,15,27,stimuli/filler35.jpg,filler,False,None,,,,,,,,,,,,,,0,0,0,0,,,,,0,0,0,4,0,26,26,26,,,,,,,,,,,,,,,,,,,,,,,,,,,,,,,,,,,,,,,,,,,,,,,,,,,,,CS1_USneg,None,1,,,,,,,,,,,,,,,,,,19,w,15,n,2019_Nov_22_1347,ec_RRR,3.0.4,60.02346917642285,
Hutter,Das Zielwesen für diese Aufgabe ist Gourgeist:,"Also sobald Gourgeist (sein Name oder sein Bild) auf dem Bildschirm erscheint, drücken Sie so schnell wie möglich die Leertaste. Drücken Sie die Leertaste, immer wenn Sie ein Bild von Gourgeist oder das Wort GOURGEIST sehen. 

Drücken Sie die Leertaste, um die Aufgabe zu starten.",target5,stimuli/t5.jpg,15,28,stimuli/filler22.jpg,filler,False,None,,,,,,,,,,,,,,0,0,0,0,,,,,0,0,0,4,0,27,27,27,,,,,,,,,,,,,,,,,,,,,,,,,,,,,,,,,,,,,,,,,,,,,,,,,,,,,CS1_USneg,None,1,,,,,,,,,,,,,,,,,,19,w,15,n,2019_Nov_22_1347,ec_RRR,3.0.4,60.02346917642285,
Hutter,Das Zielwesen für diese Aufgabe ist Gourgeist:,"Also sobald Gourgeist (sein Name oder sein Bild) auf dem Bildschirm erscheint, drücken Sie so schnell wie möglich die Leertaste. Drücken Sie die Leertaste, immer wenn Sie ein Bild von Gourgeist oder das Wort GOURGEIST sehen. 

Drücken Sie die Leertaste, um die Aufgabe zu starten.",target5,stimuli/t5.jpg,15,29,stimuli/filler21.jpg,filler,False,None,,,,,,,,,,,,,,0,0,0,0,,,,,0,0,0,4,0,28,28,28,,,,,,,,,,,,,,,,,,,,,,,,,,,,,,,,,,,,,,,,,,,,,,,,,,,,,CS1_USneg,None,1,,,,,,,,,,,,,,,,,,19,w,15,n,2019_Nov_22_1347,ec_RRR,3.0.4,60.02346917642285,
Hutter,Das Zielwesen für diese Aufgabe ist Gourgeist:,"Also sobald Gourgeist (sein Name oder sein Bild) auf dem Bildschirm erscheint, drücken Sie so schnell wie möglich die Leertaste. Drücken Sie die Leertaste, immer wenn Sie ein Bild von Gourgeist oder das Wort GOURGEIST sehen. 

Drücken Sie die Leertaste, um die Aufgabe zu starten.",target5,stimuli/t5.jpg,15,30,stimuli/blank.jpg,blank,False,None,,,,,,,,,,,,,,0,0,0,0,,,,,0,0,0,4,0,29,29,29,,,,,,,,,,,,,,,,,,,,,,,,,,,,,,,,,,,,,,,,,,,,,,,,,,,,,CS1_USneg,None,1,,,,,,,,,,,,,,,,,,19,w,15,n,2019_Nov_22_1347,ec_RRR,3.0.4,60.02346917642285,
Hutter,Das Zielwesen für diese Aufgabe ist Gourgeist:,"Also sobald Gourgeist (sein Name oder sein Bild) auf dem Bildschirm erscheint, drücken Sie so schnell wie möglich die Leertaste. Drücken Sie die Leertaste, immer wenn Sie ein Bild von Gourgeist oder das Wort GOURGEIST sehen. 

Drücken Sie die Leertaste, um die Aufgabe zu starten.",target5,stimuli/t5.jpg,15,31,stimuli/cs1_neg7.jpg,CSUS,False,None,,,,,,,,,,,,,,0,0,0,0,,,,,0,0,0,4,0,30,30,30,,,,,,,,,,,,,,,,,,,,,,,,,,,,,,,,,,,,,,,,,,,,,,,,,,,,,CS1_USneg,None,1,,,,,,,,,,,,,,,,,,19,w,15,n,2019_Nov_22_1347,ec_RRR,3.0.4,60.02346917642285,
Hutter,Das Zielwesen für diese Aufgabe ist Gourgeist:,"Also sobald Gourgeist (sein Name oder sein Bild) auf dem Bildschirm erscheint, drücken Sie so schnell wie möglich die Leertaste. Drücken Sie die Leertaste, immer wenn Sie ein Bild von Gourgeist oder das Wort GOURGEIST sehen. 

Drücken Sie die Leertaste, um die Aufgabe zu starten.",target5,stimuli/t5.jpg,15,32,stimuli/blank.jpg,blank,False,None,,,,,,,,,,,,,,0,0,0,0,,,,,0,0,0,4,0,31,31,31,,,,,,,,,,,,,,,,,,,,,,,,,,,,,,,,,,,,,,,,,,,,,,,,,,,,,CS1_USneg,None,1,,,,,,,,,,,,,,,,,,19,w,15,n,2019_Nov_22_1347,ec_RRR,3.0.4,60.02346917642285,
Hutter,Das Zielwesen für diese Aufgabe ist Gourgeist:,"Also sobald Gourgeist (sein Name oder sein Bild) auf dem Bildschirm erscheint, drücken Sie so schnell wie möglich die Leertaste. Drücken Sie die Leertaste, immer wenn Sie ein Bild von Gourgeist oder das Wort GOURGEIST sehen. 

Drücken Sie die Leertaste, um die Aufgabe zu starten.",target5,stimuli/t5.jpg,15,33,stimuli/target5_3.jpg,target,True,space,,,,,,,,,,,,,,0,0,0,0,,,,,0,0,0,4,0,32,32,32,,,,,,,,,,,,,,,,,,,,,,,,,,,,,,,,,,,,,,,,,,,,,,,,,,,,,CS1_USneg,space,1,0.6742841000000226,,,,,,,,,,,,,,,,,19,w,15,n,2019_Nov_22_1347,ec_RRR,3.0.4,60.02346917642285,
Hutter,Das Zielwesen für diese Aufgabe ist Gourgeist:,"Also sobald Gourgeist (sein Name oder sein Bild) auf dem Bildschirm erscheint, drücken Sie so schnell wie möglich die Leertaste. Drücken Sie die Leertaste, immer wenn Sie ein Bild von Gourgeist oder das Wort GOURGEIST sehen. 

Drücken Sie die Leertaste, um die Aufgabe zu starten.",target5,stimuli/t5.jpg,15,34,stimuli/filler17.jpg,filler,False,None,,,,,,,,,,,,,,0,0,0,0,,,,,0,0,0,4,0,33,33,33,,,,,,,,,,,,,,,,,,,,,,,,,,,,,,,,,,,,,,,,,,,,,,,,,,,,,CS1_USneg,None,1,,,,,,,,,,,,,,,,,,19,w,15,n,2019_Nov_22_1347,ec_RRR,3.0.4,60.02346917642285,
Hutter,Das Zielwesen für diese Aufgabe ist Gourgeist:,"Also sobald Gourgeist (sein Name oder sein Bild) auf dem Bildschirm erscheint, drücken Sie so schnell wie möglich die Leertaste. Drücken Sie die Leertaste, immer wenn Sie ein Bild von Gourgeist oder das Wort GOURGEIST sehen. 

Drücken Sie die Leertaste, um die Aufgabe zu starten.",target5,stimuli/t5.jpg,15,35,stimuli/filler34.jpg,filler,False,None,,,,,,,,,,,,,,0,0,0,0,,,,,0,0,0,4,0,34,34,34,,,,,,,,,,,,,,,,,,,,,,,,,,,,,,,,,,,,,,,,,,,,,,,,,,,,,CS1_USneg,None,1,,,,,,,,,,,,,,,,,,19,w,15,n,2019_Nov_22_1347,ec_RRR,3.0.4,60.02346917642285,
Hutter,Das Zielwesen für diese Aufgabe ist Gourgeist:,"Also sobald Gourgeist (sein Name oder sein Bild) auf dem Bildschirm erscheint, drücken Sie so schnell wie möglich die Leertaste. Drücken Sie die Leertaste, immer wenn Sie ein Bild von Gourgeist oder das Wort GOURGEIST sehen. 

Drücken Sie die Leertaste, um die Aufgabe zu starten.",target5,stimuli/t5.jpg,15,36,stimuli/filler40.jpg,filler,False,None,,,,,,,,,,,,,,0,0,0,0,,,,,0,0,0,4,0,35,35,35,,,,,,,,,,,,,,,,,,,,,,,,,,,,,,,,,,,,,,,,,,,,,,,,,,,,,CS1_USneg,None,1,,,,,,,,,,,,,,,,,,19,w,15,n,2019_Nov_22_1347,ec_RRR,3.0.4,60.02346917642285,
Hutter,Das Zielwesen für diese Aufgabe ist Gourgeist:,"Also sobald Gourgeist (sein Name oder sein Bild) auf dem Bildschirm erscheint, drücken Sie so schnell wie möglich die Leertaste. Drücken Sie die Leertaste, immer wenn Sie ein Bild von Gourgeist oder das Wort GOURGEIST sehen. 

Drücken Sie die Leertaste, um die Aufgabe zu starten.",target5,stimuli/t5.jpg,15,37,stimuli/filler49.jpg,filler,False,None,,,,,,,,,,,,,,0,0,0,0,,,,,0,0,0,4,0,36,36,36,,,,,,,,,,,,,,,,,,,,,,,,,,,,,,,,,,,,,,,,,,,,,,,,,,,,,CS1_USneg,None,1,,,,,,,,,,,,,,,,,,19,w,15,n,2019_Nov_22_1347,ec_RRR,3.0.4,60.02346917642285,
Hutter,Das Zielwesen für diese Aufgabe ist Gourgeist:,"Also sobald Gourgeist (sein Name oder sein Bild) auf dem Bildschirm erscheint, drücken Sie so schnell wie möglich die Leertaste. Drücken Sie die Leertaste, immer wenn Sie ein Bild von Gourgeist oder das Wort GOURGEIST sehen. 

Drücken Sie die Leertaste, um die Aufgabe zu starten.",target5,stimuli/t5.jpg,15,38,stimuli/filler20.jpg,filler,False,None,,,,,,,,,,,,,,0,0,0,0,,,,,0,0,0,4,0,37,37,37,,,,,,,,,,,,,,,,,,,,,,,,,,,,,,,,,,,,,,,,,,,,,,,,,,,,,CS1_USneg,None,1,,,,,,,,,,,,,,,,,,19,w,15,n,2019_Nov_22_1347,ec_RRR,3.0.4,60.02346917642285,
Hutter,Das Zielwesen für diese Aufgabe ist Gourgeist:,"Also sobald Gourgeist (sein Name oder sein Bild) auf dem Bildschirm erscheint, drücken Sie so schnell wie möglich die Leertaste. Drücken Sie die Leertaste, immer wenn Sie ein Bild von Gourgeist oder das Wort GOURGEIST sehen. 

Drücken Sie die Leertaste, um die Aufgabe zu starten.",target5,stimuli/t5.jpg,15,39,stimuli/filler2.jpg,filler,False,None,,,,,,,,,,,,,,0,0,0,0,,,,,0,0,0,4,0,38,38,38,,,,,,,,,,,,,,,,,,,,,,,,,,,,,,,,,,,,,,,,,,,,,,,,,,,,,CS1_USneg,None,1,,,,,,,,,,,,,,,,,,19,w,15,n,2019_Nov_22_1347,ec_RRR,3.0.4,60.02346917642285,
Hutter,Das Zielwesen für diese Aufgabe ist Gourgeist:,"Also sobald Gourgeist (sein Name oder sein Bild) auf dem Bildschirm erscheint, drücken Sie so schnell wie möglich die Leertaste. Drücken Sie die Leertaste, immer wenn Sie ein Bild von Gourgeist oder das Wort GOURGEIST sehen. 

Drücken Sie die Leertaste, um die Aufgabe zu starten.",target5,stimuli/t5.jpg,15,40,stimuli/blank.jpg,blank,False,None,,,,,,,,,,,,,,0,0,0,0,,,,,0,0,0,4,0,39,39,39,,,,,,,,,,,,,,,,,,,,,,,,,,,,,,,,,,,,,,,,,,,,,,,,,,,,,CS1_USneg,None,1,,,,,,,,,,,,,,,,,,19,w,15,n,2019_Nov_22_1347,ec_RRR,3.0.4,60.02346917642285,
Hutter,Das Zielwesen für diese Aufgabe ist Gourgeist:,"Also sobald Gourgeist (sein Name oder sein Bild) auf dem Bildschirm erscheint, drücken Sie so schnell wie möglich die Leertaste. Drücken Sie die Leertaste, immer wenn Sie ein Bild von Gourgeist oder das Wort GOURGEIST sehen. 

Drücken Sie die Leertaste, um die Aufgabe zu starten.",target5,stimuli/t5.jpg,15,41,stimuli/cs2_pos3.jpg,CSUS,False,None,,,,,,,,,,,,,,0,0,0,0,,,,,0,0,0,4,0,40,40,40,,,,,,,,,,,,,,,,,,,,,,,,,,,,,,,,,,,,,,,,,,,,,,,,,,,,,CS1_USneg,None,1,,,,,,,,,,,,,,,,,,19,w,15,n,2019_Nov_22_1347,ec_RRR,3.0.4,60.02346917642285,
Hutter,Das Zielwesen für diese Aufgabe ist Gourgeist:,"Also sobald Gourgeist (sein Name oder sein Bild) auf dem Bildschirm erscheint, drücken Sie so schnell wie möglich die Leertaste. Drücken Sie die Leertaste, immer wenn Sie ein Bild von Gourgeist oder das Wort GOURGEIST sehen. 

Drücken Sie die Leertaste, um die Aufgabe zu starten.",target5,stimuli/t5.jpg,15,42,stimuli/blank.jpg,blank,False,None,,,,,,,,,,,,,,0,0,0,0,,,,,0,0,0,4,0,41,41,41,,,,,,,,,,,,,,,,,,,,,,,,,,,,,,,,,,,,,,,,,,,,,,,,,,,,,CS1_USneg,None,1,,,,,,,,,,,,,,,,,,19,w,15,n,2019_Nov_22_1347,ec_RRR,3.0.4,60.02346917642285,
Hutter,Das Zielwesen für diese Aufgabe ist Gourgeist:,"Also sobald Gourgeist (sein Name oder sein Bild) auf dem Bildschirm erscheint, drücken Sie so schnell wie möglich die Leertaste. Drücken Sie die Leertaste, immer wenn Sie ein Bild von Gourgeist oder das Wort GOURGEIST sehen. 

Drücken Sie die Leertaste, um die Aufgabe zu starten.",target5,stimuli/t5.jpg,15,43,stimuli/filler3.jpg,filler,False,None,,,,,,,,,,,,,,0,0,0,0,,,,,0,0,0,4,0,42,42,42,,,,,,,,,,,,,,,,,,,,,,,,,,,,,,,,,,,,,,,,,,,,,,,,,,,,,CS1_USneg,None,1,,,,,,,,,,,,,,,,,,19,w,15,n,2019_Nov_22_1347,ec_RRR,3.0.4,60.02346917642285,
Hutter,Das Zielwesen für diese Aufgabe ist Gourgeist:,"Also sobald Gourgeist (sein Name oder sein Bild) auf dem Bildschirm erscheint, drücken Sie so schnell wie möglich die Leertaste. Drücken Sie die Leertaste, immer wenn Sie ein Bild von Gourgeist oder das Wort GOURGEIST sehen. 

Drücken Sie die Leertaste, um die Aufgabe zu starten.",target5,stimuli/t5.jpg,15,44,stimuli/filler46.jpg,filler,False,None,,,,,,,,,,,,,,0,0,0,0,,,,,0,0,0,4,0,43,43,43,,,,,,,,,,,,,,,,,,,,,,,,,,,,,,,,,,,,,,,,,,,,,,,,,,,,,CS1_USneg,None,1,,,,,,,,,,,,,,,,,,19,w,15,n,2019_Nov_22_1347,ec_RRR,3.0.4,60.02346917642285,
Hutter,Das Zielwesen für diese Aufgabe ist Gourgeist:,"Also sobald Gourgeist (sein Name oder sein Bild) auf dem Bildschirm erscheint, drücken Sie so schnell wie möglich die Leertaste. Drücken Sie die Leertaste, immer wenn Sie ein Bild von Gourgeist oder das Wort GOURGEIST sehen. 

Drücken Sie die Leertaste, um die Aufgabe zu starten.",target5,stimuli/t5.jpg,15,45,stimuli/target5_7.jpg,target,True,space,,,,,,,,,,,,,,0,0,0,0,,,,,0,0,0,4,0,44,44,44,,,,,,,,,,,,,,,,,,,,,,,,,,,,,,,,,,,,,,,,,,,,,,,,,,,,,CS1_USneg,space,1,0.5080326999996032,,,,,,,,,,,,,,,,,19,w,15,n,2019_Nov_22_1347,ec_RRR,3.0.4,60.02346917642285,
Hutter,Das Zielwesen für diese Aufgabe ist Gourgeist:,"Also sobald Gourgeist (sein Name oder sein Bild) auf dem Bildschirm erscheint, drücken Sie so schnell wie möglich die Leertaste. Drücken Sie die Leertaste, immer wenn Sie ein Bild von Gourgeist oder das Wort GOURGEIST sehen. 

Drücken Sie die Leertaste, um die Aufgabe zu starten.",target5,stimuli/t5.jpg,15,46,stimuli/filler23.jpg,filler,False,None,,,,,,,,,,,,,,0,0,0,0,,,,,0,0,0,4,0,45,45,45,,,,,,,,,,,,,,,,,,,,,,,,,,,,,,,,,,,,,,,,,,,,,,,,,,,,,CS1_USneg,None,1,,,,,,,,,,,,,,,,,,19,w,15,n,2019_Nov_22_1347,ec_RRR,3.0.4,60.02346917642285,
Hutter,Das Zielwesen für diese Aufgabe ist Gourgeist:,"Also sobald Gourgeist (sein Name oder sein Bild) auf dem Bildschirm erscheint, drücken Sie so schnell wie möglich die Leertaste. Drücken Sie die Leertaste, immer wenn Sie ein Bild von Gourgeist oder das Wort GOURGEIST sehen. 

Drücken Sie die Leertaste, um die Aufgabe zu starten.",target5,stimuli/t5.jpg,15,47,stimuli/target5_2.jpg,target,True,space,,,,,,,,,,,,,,0,0,0,0,,,,,0,0,0,4,0,46,46,46,,,,,,,,,,,,,,,,,,,,,,,,,,,,,,,,,,,,,,,,,,,,,,,,,,,,,CS1_USneg,space,1,0.5230473000001439,,,,,,,,,,,,,,,,,19,w,15,n,2019_Nov_22_1347,ec_RRR,3.0.4,60.02346917642285,
Hutter,Das Zielwesen für diese Aufgabe ist Gourgeist:,"Also sobald Gourgeist (sein Name oder sein Bild) auf dem Bildschirm erscheint, drücken Sie so schnell wie möglich die Leertaste. Drücken Sie die Leertaste, immer wenn Sie ein Bild von Gourgeist oder das Wort GOURGEIST sehen. 

Drücken Sie die Leertaste, um die Aufgabe zu starten.",target5,stimuli/t5.jpg,15,48,stimuli/filler45.jpg,filler,False,None,,,,,,,,,,,,,,0,0,0,0,,,,,0,0,0,4,0,47,47,47,,,,,,,,,,,,,,,,,,,,,,,,,,,,,,,,,,,,,,,,,,,,,,,,,,,,,CS1_USneg,None,1,,,,,,,,,,,,,,,,,,19,w,15,n,2019_Nov_22_1347,ec_RRR,3.0.4,60.02346917642285,
Hutter,Das Zielwesen für diese Aufgabe ist Gourgeist:,"Also sobald Gourgeist (sein Name oder sein Bild) auf dem Bildschirm erscheint, drücken Sie so schnell wie möglich die Leertaste. Drücken Sie die Leertaste, immer wenn Sie ein Bild von Gourgeist oder das Wort GOURGEIST sehen. 

Drücken Sie die Leertaste, um die Aufgabe zu starten.",target5,stimuli/t5.jpg,15,49,stimuli/target5_6.jpg,target,True,space,,,,,,,,,,,,,,0,0,0,0,,,,,0,0,0,4,0,48,48,48,,,,,,,,,,,,,,,,,,,,,,,,,,,,,,,,,,,,,,,,,,,,,,,,,,,,,CS1_USneg,space,1,0.5253480999999738,,,,,,,,,,,,,,,,,19,w,15,n,2019_Nov_22_1347,ec_RRR,3.0.4,60.02346917642285,
Hutter,Das Zielwesen für diese Aufgabe ist Gourgeist:,"Also sobald Gourgeist (sein Name oder sein Bild) auf dem Bildschirm erscheint, drücken Sie so schnell wie möglich die Leertaste. Drücken Sie die Leertaste, immer wenn Sie ein Bild von Gourgeist oder das Wort GOURGEIST sehen. 

Drücken Sie die Leertaste, um die Aufgabe zu starten.",target5,stimuli/t5.jpg,15,50,stimuli/blank.jpg,blank,False,None,,,,,,,,,,,,,,0,0,0,0,,,,,0,0,0,4,0,49,49,49,,,,,,,,,,,,,,,,,,,,,,,,,,,,,,,,,,,,,,,,,,,,,,,,,,,,,CS1_USneg,None,1,,,,,,,,,,,,,,,,,,19,w,15,n,2019_Nov_22_1347,ec_RRR,3.0.4,60.02346917642285,
Hutter,Das Zielwesen für diese Aufgabe ist Gourgeist:,"Also sobald Gourgeist (sein Name oder sein Bild) auf dem Bildschirm erscheint, drücken Sie so schnell wie möglich die Leertaste. Drücken Sie die Leertaste, immer wenn Sie ein Bild von Gourgeist oder das Wort GOURGEIST sehen. 

Drücken Sie die Leertaste, um die Aufgabe zu starten.",target5,stimuli/t5.jpg,15,51,stimuli/cs1_neg15.jpg,CSUS,False,None,,,,,,,,,,,,,,0,0,0,0,,,,,0,0,0,4,0,50,50,50,,,,,,,,,,,,,,,,,,,,,,,,,,,,,,,,,,,,,,,,,,,,,,,,,,,,,CS1_USneg,None,1,,,,,,,,,,,,,,,,,,19,w,15,n,2019_Nov_22_1347,ec_RRR,3.0.4,60.02346917642285,
Hutter,Das Zielwesen für diese Aufgabe ist Gourgeist:,"Also sobald Gourgeist (sein Name oder sein Bild) auf dem Bildschirm erscheint, drücken Sie so schnell wie möglich die Leertaste. Drücken Sie die Leertaste, immer wenn Sie ein Bild von Gourgeist oder das Wort GOURGEIST sehen. 

Drücken Sie die Leertaste, um die Aufgabe zu starten.",target5,stimuli/t5.jpg,15,52,stimuli/blank.jpg,blank,False,None,,,,,,,,,,,,,,0,0,0,0,,,,,0,0,0,4,0,51,51,51,,,,,,,,,,,,,,,,,,,,,,,,,,,,,,,,,,,,,,,,,,,,,,,,,,,,,CS1_USneg,None,1,,,,,,,,,,,,,,,,,,19,w,15,n,2019_Nov_22_1347,ec_RRR,3.0.4,60.02346917642285,
Hutter,Das Zielwesen für diese Aufgabe ist Gourgeist:,"Also sobald Gourgeist (sein Name oder sein Bild) auf dem Bildschirm erscheint, drücken Sie so schnell wie möglich die Leertaste. Drücken Sie die Leertaste, immer wenn Sie ein Bild von Gourgeist oder das Wort GOURGEIST sehen. 

Drücken Sie die Leertaste, um die Aufgabe zu starten.",target5,stimuli/t5.jpg,15,53,stimuli/filler39.jpg,filler,False,None,,,,,,,,,,,,,,0,0,0,0,,,,,0,0,0,4,0,52,52,52,,,,,,,,,,,,,,,,,,,,,,,,,,,,,,,,,,,,,,,,,,,,,,,,,,,,,CS1_USneg,None,1,,,,,,,,,,,,,,,,,,19,w,15,n,2019_Nov_22_1347,ec_RRR,3.0.4,60.02346917642285,
Hutter,Das Zielwesen für diese Aufgabe ist Gourgeist:,"Also sobald Gourgeist (sein Name oder sein Bild) auf dem Bildschirm erscheint, drücken Sie so schnell wie möglich die Leertaste. Drücken Sie die Leertaste, immer wenn Sie ein Bild von Gourgeist oder das Wort GOURGEIST sehen. 

Drücken Sie die Leertaste, um die Aufgabe zu starten.",target5,stimuli/t5.jpg,15,54,stimuli/filler1.jpg,filler,False,None,,,,,,,,,,,,,,0,0,0,0,,,,,0,0,0,4,0,53,53,53,,,,,,,,,,,,,,,,,,,,,,,,,,,,,,,,,,,,,,,,,,,,,,,,,,,,,CS1_USneg,None,1,,,,,,,,,,,,,,,,,,19,w,15,n,2019_Nov_22_1347,ec_RRR,3.0.4,60.02346917642285,
Hutter,Das Zielwesen für diese Aufgabe ist Gourgeist:,"Also sobald Gourgeist (sein Name oder sein Bild) auf dem Bildschirm erscheint, drücken Sie so schnell wie möglich die Leertaste. Drücken Sie die Leertaste, immer wenn Sie ein Bild von Gourgeist oder das Wort GOURGEIST sehen. 

Drücken Sie die Leertaste, um die Aufgabe zu starten.",target5,stimuli/t5.jpg,15,55,stimuli/filler51.jpg,filler,False,None,,,,,,,,,,,,,,0,0,0,0,,,,,0,0,0,4,0,54,54,54,,,,,,,,,,,,,,,,,,,,,,,,,,,,,,,,,,,,,,,,,,,,,,,,,,,,,CS1_USneg,None,1,,,,,,,,,,,,,,,,,,19,w,15,n,2019_Nov_22_1347,ec_RRR,3.0.4,60.02346917642285,
Hutter,Das Zielwesen für diese Aufgabe ist Gourgeist:,"Also sobald Gourgeist (sein Name oder sein Bild) auf dem Bildschirm erscheint, drücken Sie so schnell wie möglich die Leertaste. Drücken Sie die Leertaste, immer wenn Sie ein Bild von Gourgeist oder das Wort GOURGEIST sehen. 

Drücken Sie die Leertaste, um die Aufgabe zu starten.",target5,stimuli/t5.jpg,15,56,stimuli/target5_9.jpg,target,True,space,,,,,,,,,,,,,,0,0,0,0,,,,,0,0,0,4,0,55,55,55,,,,,,,,,,,,,,,,,,,,,,,,,,,,,,,,,,,,,,,,,,,,,,,,,,,,,CS1_USneg,space,1,0.474756200000229,,,,,,,,,,,,,,,,,19,w,15,n,2019_Nov_22_1347,ec_RRR,3.0.4,60.02346917642285,
Hutter,Das Zielwesen für diese Aufgabe ist Gourgeist:,"Also sobald Gourgeist (sein Name oder sein Bild) auf dem Bildschirm erscheint, drücken Sie so schnell wie möglich die Leertaste. Drücken Sie die Leertaste, immer wenn Sie ein Bild von Gourgeist oder das Wort GOURGEIST sehen. 

Drücken Sie die Leertaste, um die Aufgabe zu starten.",target5,stimuli/t5.jpg,15,57,stimuli/filler32.jpg,filler,False,None,,,,,,,,,,,,,,0,0,0,0,,,,,0,0,0,4,0,56,56,56,,,,,,,,,,,,,,,,,,,,,,,,,,,,,,,,,,,,,,,,,,,,,,,,,,,,,CS1_USneg,None,1,,,,,,,,,,,,,,,,,,19,w,15,n,2019_Nov_22_1347,ec_RRR,3.0.4,60.02346917642285,
Hutter,Das Zielwesen für diese Aufgabe ist Gourgeist:,"Also sobald Gourgeist (sein Name oder sein Bild) auf dem Bildschirm erscheint, drücken Sie so schnell wie möglich die Leertaste. Drücken Sie die Leertaste, immer wenn Sie ein Bild von Gourgeist oder das Wort GOURGEIST sehen. 

Drücken Sie die Leertaste, um die Aufgabe zu starten.",target5,stimuli/t5.jpg,15,58,stimuli/target5_1.jpg,target,True,space,,,,,,,,,,,,,,0,0,0,0,,,,,0,0,0,4,0,57,57,57,,,,,,,,,,,,,,,,,,,,,,,,,,,,,,,,,,,,,,,,,,,,,,,,,,,,,CS1_USneg,space,1,0.4746560000003228,,,,,,,,,,,,,,,,,19,w,15,n,2019_Nov_22_1347,ec_RRR,3.0.4,60.02346917642285,
Hutter,Das Zielwesen für diese Aufgabe ist Gourgeist:,"Also sobald Gourgeist (sein Name oder sein Bild) auf dem Bildschirm erscheint, drücken Sie so schnell wie möglich die Leertaste. Drücken Sie die Leertaste, immer wenn Sie ein Bild von Gourgeist oder das Wort GOURGEIST sehen. 

Drücken Sie die Leertaste, um die Aufgabe zu starten.",target5,stimuli/t5.jpg,15,59,stimuli/filler14.jpg,filler,False,None,,,,,,,,,,,,,,0,0,0,0,,,,,0,0,0,4,0,58,58,58,,,,,,,,,,,,,,,,,,,,,,,,,,,,,,,,,,,,,,,,,,,,,,,,,,,,,CS1_USneg,None,1,,,,,,,,,,,,,,,,,,19,w,15,n,2019_Nov_22_1347,ec_RRR,3.0.4,60.02346917642285,
Hutter,Das Zielwesen für diese Aufgabe ist Gourgeist:,"Also sobald Gourgeist (sein Name oder sein Bild) auf dem Bildschirm erscheint, drücken Sie so schnell wie möglich die Leertaste. Drücken Sie die Leertaste, immer wenn Sie ein Bild von Gourgeist oder das Wort GOURGEIST sehen. 

Drücken Sie die Leertaste, um die Aufgabe zu starten.",target5,stimuli/t5.jpg,15,60,stimuli/blank.jpg,blank,False,None,,,,,,,,,,,,,,0,0,0,0,,,,,0,0,0,4,0,59,59,59,,,,,,,,,,,,,,,,,,,,,,,,,,,,,,,,,,,,,,,,,,,,,,,,,,,,,CS1_USneg,None,1,,,,,,,,,,,,,,,,,,19,w,15,n,2019_Nov_22_1347,ec_RRR,3.0.4,60.02346917642285,
Hutter,Das Zielwesen für diese Aufgabe ist Gourgeist:,"Also sobald Gourgeist (sein Name oder sein Bild) auf dem Bildschirm erscheint, drücken Sie so schnell wie möglich die Leertaste. Drücken Sie die Leertaste, immer wenn Sie ein Bild von Gourgeist oder das Wort GOURGEIST sehen. 

Drücken Sie die Leertaste, um die Aufgabe zu starten.",target5,stimuli/t5.jpg,15,61,stimuli/cs2_pos20.jpg,CSUS,False,None,,,,,,,,,,,,,,0,0,0,0,,,,,0,0,0,4,0,60,60,60,,,,,,,,,,,,,,,,,,,,,,,,,,,,,,,,,,,,,,,,,,,,,,,,,,,,,CS1_USneg,None,1,,,,,,,,,,,,,,,,,,19,w,15,n,2019_Nov_22_1347,ec_RRR,3.0.4,60.02346917642285,
Hutter,Das Zielwesen für diese Aufgabe ist Gourgeist:,"Also sobald Gourgeist (sein Name oder sein Bild) auf dem Bildschirm erscheint, drücken Sie so schnell wie möglich die Leertaste. Drücken Sie die Leertaste, immer wenn Sie ein Bild von Gourgeist oder das Wort GOURGEIST sehen. 

Drücken Sie die Leertaste, um die Aufgabe zu starten.",target5,stimuli/t5.jpg,15,62,stimuli/blank.jpg,blank,False,None,,,,,,,,,,,,,,0,0,0,0,,,,,0,0,0,4,0,61,61,61,,,,,,,,,,,,,,,,,,,,,,,,,,,,,,,,,,,,,,,,,,,,,,,,,,,,,CS1_USneg,None,1,,,,,,,,,,,,,,,,,,19,w,15,n,2019_Nov_22_1347,ec_RRR,3.0.4,60.02346917642285,
Hutter,Das Zielwesen für diese Aufgabe ist Gourgeist:,"Also sobald Gourgeist (sein Name oder sein Bild) auf dem Bildschirm erscheint, drücken Sie so schnell wie möglich die Leertaste. Drücken Sie die Leertaste, immer wenn Sie ein Bild von Gourgeist oder das Wort GOURGEIST sehen. 

Drücken Sie die Leertaste, um die Aufgabe zu starten.",target5,stimuli/t5.jpg,15,63,stimuli/filler7.jpg,filler,False,None,,,,,,,,,,,,,,0,0,0,0,,,,,0,0,0,4,0,62,62,62,,,,,,,,,,,,,,,,,,,,,,,,,,,,,,,,,,,,,,,,,,,,,,,,,,,,,CS1_USneg,None,1,,,,,,,,,,,,,,,,,,19,w,15,n,2019_Nov_22_1347,ec_RRR,3.0.4,60.02346917642285,
Hutter,Das Zielwesen für diese Aufgabe ist Gourgeist:,"Also sobald Gourgeist (sein Name oder sein Bild) auf dem Bildschirm erscheint, drücken Sie so schnell wie möglich die Leertaste. Drücken Sie die Leertaste, immer wenn Sie ein Bild von Gourgeist oder das Wort GOURGEIST sehen. 

Drücken Sie die Leertaste, um die Aufgabe zu starten.",target5,stimuli/t5.jpg,15,64,stimuli/filler16.jpg,filler,False,None,,,,,,,,,,,,,,0,0,0,0,,,,,0,0,0,4,0,63,63,63,,,,,,,,,,,,,,,,,,,,,,,,,,,,,,,,,,,,,,,,,,,,,,,,,,,,,CS1_USneg,None,1,,,,,,,,,,,,,,,,,,19,w,15,n,2019_Nov_22_1347,ec_RRR,3.0.4,60.02346917642285,
Hutter,Das Zielwesen für diese Aufgabe ist Gourgeist:,"Also sobald Gourgeist (sein Name oder sein Bild) auf dem Bildschirm erscheint, drücken Sie so schnell wie möglich die Leertaste. Drücken Sie die Leertaste, immer wenn Sie ein Bild von Gourgeist oder das Wort GOURGEIST sehen. 

Drücken Sie die Leertaste, um die Aufgabe zu starten.",target5,stimuli/t5.jpg,15,65,stimuli/filler12.jpg,filler,False,None,,,,,,,,,,,,,,0,0,0,0,,,,,0,0,0,4,0,64,64,64,,,,,,,,,,,,,,,,,,,,,,,,,,,,,,,,,,,,,,,,,,,,,,,,,,,,,CS1_USneg,None,1,,,,,,,,,,,,,,,,,,19,w,15,n,2019_Nov_22_1347,ec_RRR,3.0.4,60.02346917642285,
Hutter,Das Zielwesen für diese Aufgabe ist Gourgeist:,"Also sobald Gourgeist (sein Name oder sein Bild) auf dem Bildschirm erscheint, drücken Sie so schnell wie möglich die Leertaste. Drücken Sie die Leertaste, immer wenn Sie ein Bild von Gourgeist oder das Wort GOURGEIST sehen. 

Drücken Sie die Leertaste, um die Aufgabe zu starten.",target5,stimuli/t5.jpg,15,66,stimuli/target5_8.jpg,target,True,space,,,,,,,,,,,,,,0,0,0,0,,,,,0,0,0,4,0,65,65,65,,,,,,,,,,,,,,,,,,,,,,,,,,,,,,,,,,,,,,,,,,,,,,,,,,,,,CS1_USneg,space,1,0.4765108000001419,,,,,,,,,,,,,,,,,19,w,15,n,2019_Nov_22_1347,ec_RRR,3.0.4,60.02346917642285,
Hutter,Das Zielwesen für diese Aufgabe ist Gourgeist:,"Also sobald Gourgeist (sein Name oder sein Bild) auf dem Bildschirm erscheint, drücken Sie so schnell wie möglich die Leertaste. Drücken Sie die Leertaste, immer wenn Sie ein Bild von Gourgeist oder das Wort GOURGEIST sehen. 

Drücken Sie die Leertaste, um die Aufgabe zu starten.",target5,stimuli/t5.jpg,15,67,stimuli/filler27.jpg,filler,False,None,,,,,,,,,,,,,,0,0,0,0,,,,,0,0,0,4,0,66,66,66,,,,,,,,,,,,,,,,,,,,,,,,,,,,,,,,,,,,,,,,,,,,,,,,,,,,,CS1_USneg,None,1,,,,,,,,,,,,,,,,,,19,w,15,n,2019_Nov_22_1347,ec_RRR,3.0.4,60.02346917642285,
Hutter,Das Zielwesen für diese Aufgabe ist Gourgeist:,"Also sobald Gourgeist (sein Name oder sein Bild) auf dem Bildschirm erscheint, drücken Sie so schnell wie möglich die Leertaste. Drücken Sie die Leertaste, immer wenn Sie ein Bild von Gourgeist oder das Wort GOURGEIST sehen. 

Drücken Sie die Leertaste, um die Aufgabe zu starten.",target5,stimuli/t5.jpg,15,68,stimuli/filler52.jpg,filler,False,None,,,,,,,,,,,,,,0,0,0,0,,,,,0,0,0,4,0,67,67,67,,,,,,,,,,,,,,,,,,,,,,,,,,,,,,,,,,,,,,,,,,,,,,,,,,,,,CS1_USneg,None,1,,,,,,,,,,,,,,,,,,19,w,15,n,2019_Nov_22_1347,ec_RRR,3.0.4,60.02346917642285,
Hutter,Das Zielwesen für diese Aufgabe ist Gourgeist:,"Also sobald Gourgeist (sein Name oder sein Bild) auf dem Bildschirm erscheint, drücken Sie so schnell wie möglich die Leertaste. Drücken Sie die Leertaste, immer wenn Sie ein Bild von Gourgeist oder das Wort GOURGEIST sehen. 

Drücken Sie die Leertaste, um die Aufgabe zu starten.",target5,stimuli/t5.jpg,15,69,stimuli/filler48.jpg,filler,False,None,,,,,,,,,,,,,,0,0,0,0,,,,,0,0,0,4,0,68,68,68,,,,,,,,,,,,,,,,,,,,,,,,,,,,,,,,,,,,,,,,,,,,,,,,,,,,,CS1_USneg,None,1,,,,,,,,,,,,,,,,,,19,w,15,n,2019_Nov_22_1347,ec_RRR,3.0.4,60.02346917642285,
Hutter,Das Zielwesen für diese Aufgabe ist Gourgeist:,"Also sobald Gourgeist (sein Name oder sein Bild) auf dem Bildschirm erscheint, drücken Sie so schnell wie möglich die Leertaste. Drücken Sie die Leertaste, immer wenn Sie ein Bild von Gourgeist oder das Wort GOURGEIST sehen. 

Drücken Sie die Leertaste, um die Aufgabe zu starten.",target5,stimuli/t5.jpg,15,70,stimuli/blank.jpg,blank,False,None,,,,,,,,,,,,,,0,0,0,0,,,,,0,0,0,4,0,69,69,69,,,,,,,,,,,,,,,,,,,,,,,,,,,,,,,,,,,,,,,,,,,,,,,,,,,,,CS1_USneg,None,1,,,,,,,,,,,,,,,,,,19,w,15,n,2019_Nov_22_1347,ec_RRR,3.0.4,60.02346917642285,
Hutter,Das Zielwesen für diese Aufgabe ist Gourgeist:,"Also sobald Gourgeist (sein Name oder sein Bild) auf dem Bildschirm erscheint, drücken Sie so schnell wie möglich die Leertaste. Drücken Sie die Leertaste, immer wenn Sie ein Bild von Gourgeist oder das Wort GOURGEIST sehen. 

Drücken Sie die Leertaste, um die Aufgabe zu starten.",target5,stimuli/t5.jpg,15,71,stimuli/cs1_neg19.jpg,CSUS,False,None,,,,,,,,,,,,,,0,0,0,0,,,,,0,0,0,4,0,70,70,70,,,,,,,,,,,,,,,,,,,,,,,,,,,,,,,,,,,,,,,,,,,,,,,,,,,,,CS1_USneg,None,1,,,,,,,,,,,,,,,,,,19,w,15,n,2019_Nov_22_1347,ec_RRR,3.0.4,60.02346917642285,
Hutter,Das Zielwesen für diese Aufgabe ist Gourgeist:,"Also sobald Gourgeist (sein Name oder sein Bild) auf dem Bildschirm erscheint, drücken Sie so schnell wie möglich die Leertaste. Drücken Sie die Leertaste, immer wenn Sie ein Bild von Gourgeist oder das Wort GOURGEIST sehen. 

Drücken Sie die Leertaste, um die Aufgabe zu starten.",target5,stimuli/t5.jpg,15,72,stimuli/blank.jpg,blank,False,None,,,,,,,,,,,,,,0,0,0,0,,,,,0,0,0,4,0,71,71,71,,,,,,,,,,,,,,,,,,,,,,,,,,,,,,,,,,,,,,,,,,,,,,,,,,,,,CS1_USneg,None,1,,,,,,,,,,,,,,,,,,19,w,15,n,2019_Nov_22_1347,ec_RRR,3.0.4,60.02346917642285,
Hutter,Das Zielwesen für diese Aufgabe ist Gourgeist:,"Also sobald Gourgeist (sein Name oder sein Bild) auf dem Bildschirm erscheint, drücken Sie so schnell wie möglich die Leertaste. Drücken Sie die Leertaste, immer wenn Sie ein Bild von Gourgeist oder das Wort GOURGEIST sehen. 

Drücken Sie die Leertaste, um die Aufgabe zu starten.",target5,stimuli/t5.jpg,15,73,stimuli/filler19.jpg,filler,False,None,,,,,,,,,,,,,,0,0,0,0,,,,,0,0,0,4,0,72,72,72,,,,,,,,,,,,,,,,,,,,,,,,,,,,,,,,,,,,,,,,,,,,,,,,,,,,,CS1_USneg,None,1,,,,,,,,,,,,,,,,,,19,w,15,n,2019_Nov_22_1347,ec_RRR,3.0.4,60.02346917642285,
Hutter,Das Zielwesen für diese Aufgabe ist Gourgeist:,"Also sobald Gourgeist (sein Name oder sein Bild) auf dem Bildschirm erscheint, drücken Sie so schnell wie möglich die Leertaste. Drücken Sie die Leertaste, immer wenn Sie ein Bild von Gourgeist oder das Wort GOURGEIST sehen. 

Drücken Sie die Leertaste, um die Aufgabe zu starten.",target5,stimuli/t5.jpg,15,74,stimuli/filler29.jpg,filler,False,None,,,,,,,,,,,,,,0,0,0,0,,,,,0,0,0,4,0,73,73,73,,,,,,,,,,,,,,,,,,,,,,,,,,,,,,,,,,,,,,,,,,,,,,,,,,,,,CS1_USneg,None,1,,,,,,,,,,,,,,,,,,19,w,15,n,2019_Nov_22_1347,ec_RRR,3.0.4,60.02346917642285,
Hutter,Das Zielwesen für diese Aufgabe ist Gourgeist:,"Also sobald Gourgeist (sein Name oder sein Bild) auf dem Bildschirm erscheint, drücken Sie so schnell wie möglich die Leertaste. Drücken Sie die Leertaste, immer wenn Sie ein Bild von Gourgeist oder das Wort GOURGEIST sehen. 

Drücken Sie die Leertaste, um die Aufgabe zu starten.",target5,stimuli/t5.jpg,15,75,stimuli/filler47.jpg,filler,False,None,,,,,,,,,,,,,,0,0,0,0,,,,,0,0,0,4,0,74,74,74,,,,,,,,,,,,,,,,,,,,,,,,,,,,,,,,,,,,,,,,,,,,,,,,,,,,,CS1_USneg,None,1,,,,,,,,,,,,,,,,,,19,w,15,n,2019_Nov_22_1347,ec_RRR,3.0.4,60.02346917642285,
Hutter,Das Zielwesen für diese Aufgabe ist Gourgeist:,"Also sobald Gourgeist (sein Name oder sein Bild) auf dem Bildschirm erscheint, drücken Sie so schnell wie möglich die Leertaste. Drücken Sie die Leertaste, immer wenn Sie ein Bild von Gourgeist oder das Wort GOURGEIST sehen. 

Drücken Sie die Leertaste, um die Aufgabe zu starten.",target5,stimuli/t5.jpg,15,76,stimuli/filler44.jpg,filler,False,None,,,,,,,,,,,,,,0,0,0,0,,,,,0,0,0,4,0,75,75,75,,,,,,,,,,,,,,,,,,,,,,,,,,,,,,,,,,,,,,,,,,,,,,,,,,,,,CS1_USneg,None,1,,,,,,,,,,,,,,,,,,19,w,15,n,2019_Nov_22_1347,ec_RRR,3.0.4,60.02346917642285,
Hutter,Das Zielwesen für diese Aufgabe ist Gourgeist:,"Also sobald Gourgeist (sein Name oder sein Bild) auf dem Bildschirm erscheint, drücken Sie so schnell wie möglich die Leertaste. Drücken Sie die Leertaste, immer wenn Sie ein Bild von Gourgeist oder das Wort GOURGEIST sehen. 

Drücken Sie die Leertaste, um die Aufgabe zu starten.",target5,stimuli/t5.jpg,15,77,stimuli/target5_4.jpg,target,True,space,,,,,,,,,,,,,,0,0,0,0,,,,,0,0,0,4,0,76,76,76,,,,,,,,,,,,,,,,,,,,,,,,,,,,,,,,,,,,,,,,,,,,,,,,,,,,,CS1_USneg,space,1,0.5753249000003962,,,,,,,,,,,,,,,,,19,w,15,n,2019_Nov_22_1347,ec_RRR,3.0.4,60.02346917642285,
Hutter,Das Zielwesen für diese Aufgabe ist Gourgeist:,"Also sobald Gourgeist (sein Name oder sein Bild) auf dem Bildschirm erscheint, drücken Sie so schnell wie möglich die Leertaste. Drücken Sie die Leertaste, immer wenn Sie ein Bild von Gourgeist oder das Wort GOURGEIST sehen. 

Drücken Sie die Leertaste, um die Aufgabe zu starten.",target5,stimuli/t5.jpg,15,78,stimuli/filler42.jpg,filler,False,None,,,,,,,,,,,,,,0,0,0,0,,,,,0,0,0,4,0,77,77,77,,,,,,,,,,,,,,,,,,,,,,,,,,,,,,,,,,,,,,,,,,,,,,,,,,,,,CS1_USneg,None,1,,,,,,,,,,,,,,,,,,19,w,15,n,2019_Nov_22_1347,ec_RRR,3.0.4,60.02346917642285,
Hutter,Das Zielwesen für diese Aufgabe ist Gourgeist:,"Also sobald Gourgeist (sein Name oder sein Bild) auf dem Bildschirm erscheint, drücken Sie so schnell wie möglich die Leertaste. Drücken Sie die Leertaste, immer wenn Sie ein Bild von Gourgeist oder das Wort GOURGEIST sehen. 

Drücken Sie die Leertaste, um die Aufgabe zu starten.",target5,stimuli/t5.jpg,15,79,stimuli/filler26.jpg,filler,False,None,,,,,,,,,,,,,,0,0,0,0,,,,,0,0,0,4,0,78,78,78,,,,,,,,,,,,,,,,,,,,,,,,,,,,,,,,,,,,,,,,,,,,,,,,,,,,,CS1_USneg,None,1,,,,,,,,,,,,,,,,,,19,w,15,n,2019_Nov_22_1347,ec_RRR,3.0.4,60.02346917642285,
Hutter,Das Zielwesen für diese Aufgabe ist Gourgeist:,"Also sobald Gourgeist (sein Name oder sein Bild) auf dem Bildschirm erscheint, drücken Sie so schnell wie möglich die Leertaste. Drücken Sie die Leertaste, immer wenn Sie ein Bild von Gourgeist oder das Wort GOURGEIST sehen. 

Drücken Sie die Leertaste, um die Aufgabe zu starten.",target5,stimuli/t5.jpg,15,80,stimuli/blank.jpg,blank,False,None,,,,,,,,,,,,,,0,0,0,0,,,,,0,0,0,4,0,79,79,79,,,,,,,,,,,,,,,,,,,,,,,,,,,,,,,,,,,,,,,,,,,,,,,,,,,,,CS1_USneg,None,1,,,,,,,,,,,,,,,,,,19,w,15,n,2019_Nov_22_1347,ec_RRR,3.0.4,60.02346917642285,
Hutter,Das Zielwesen für diese Aufgabe ist Gourgeist:,"Also sobald Gourgeist (sein Name oder sein Bild) auf dem Bildschirm erscheint, drücken Sie so schnell wie möglich die Leertaste. Drücken Sie die Leertaste, immer wenn Sie ein Bild von Gourgeist oder das Wort GOURGEIST sehen. 

Drücken Sie die Leertaste, um die Aufgabe zu starten.",target5,stimuli/t5.jpg,15,81,stimuli/cs2_pos16.jpg,CSUS,False,None,,,,,,,,,,,,,,0,0,0,0,,,,,0,0,0,4,0,80,80,80,,,,,,,,,,,,,,,,,,,,,,,,,,,,,,,,,,,,,,,,,,,,,,,,,,,,,CS1_USneg,None,1,,,,,,,,,,,,,,,,,,19,w,15,n,2019_Nov_22_1347,ec_RRR,3.0.4,60.02346917642285,
Hutter,Das Zielwesen für diese Aufgabe ist Gourgeist:,"Also sobald Gourgeist (sein Name oder sein Bild) auf dem Bildschirm erscheint, drücken Sie so schnell wie möglich die Leertaste. Drücken Sie die Leertaste, immer wenn Sie ein Bild von Gourgeist oder das Wort GOURGEIST sehen. 

Drücken Sie die Leertaste, um die Aufgabe zu starten.",target5,stimuli/t5.jpg,15,82,stimuli/blank.jpg,blank,False,None,,,,,,,,,,,,,,0,0,0,0,,,,,0,0,0,4,0,81,81,81,,,,,,,,,,,,,,,,,,,,,,,,,,,,,,,,,,,,,,,,,,,,,,,,,,,,,CS1_USneg,None,1,,,,,,,,,,,,,,,,,,19,w,15,n,2019_Nov_22_1347,ec_RRR,3.0.4,60.02346917642285,
Hutter,Das Zielwesen für diese Aufgabe ist Gourgeist:,"Also sobald Gourgeist (sein Name oder sein Bild) auf dem Bildschirm erscheint, drücken Sie so schnell wie möglich die Leertaste. Drücken Sie die Leertaste, immer wenn Sie ein Bild von Gourgeist oder das Wort GOURGEIST sehen. 

Drücken Sie die Leertaste, um die Aufgabe zu starten.",target5,stimuli/t5.jpg,15,83,stimuli/filler50.jpg,filler,False,None,,,,,,,,,,,,,,0,0,0,0,,,,,0,0,0,4,0,82,82,82,,,,,,,,,,,,,,,,,,,,,,,,,,,,,,,,,,,,,,,,,,,,,,,,,,,,,CS1_USneg,None,1,,,,,,,,,,,,,,,,,,19,w,15,n,2019_Nov_22_1347,ec_RRR,3.0.4,60.02346917642285,
Hutter,Das Zielwesen für diese Aufgabe ist Gourgeist:,"Also sobald Gourgeist (sein Name oder sein Bild) auf dem Bildschirm erscheint, drücken Sie so schnell wie möglich die Leertaste. Drücken Sie die Leertaste, immer wenn Sie ein Bild von Gourgeist oder das Wort GOURGEIST sehen. 

Drücken Sie die Leertaste, um die Aufgabe zu starten.",target5,stimuli/t5.jpg,15,84,stimuli/filler31.jpg,filler,False,None,,,,,,,,,,,,,,0,0,0,0,,,,,0,0,0,4,0,83,83,83,,,,,,,,,,,,,,,,,,,,,,,,,,,,,,,,,,,,,,,,,,,,,,,,,,,,,CS1_USneg,None,1,,,,,,,,,,,,,,,,,,19,w,15,n,2019_Nov_22_1347,ec_RRR,3.0.4,60.02346917642285,
Hutter,Das Zielwesen für diese Aufgabe ist Gourgeist:,"Also sobald Gourgeist (sein Name oder sein Bild) auf dem Bildschirm erscheint, drücken Sie so schnell wie möglich die Leertaste. Drücken Sie die Leertaste, immer wenn Sie ein Bild von Gourgeist oder das Wort GOURGEIST sehen. 

Drücken Sie die Leertaste, um die Aufgabe zu starten.",target5,stimuli/t5.jpg,15,85,stimuli/filler38.jpg,filler,False,None,,,,,,,,,,,,,,0,0,0,0,,,,,0,0,0,4,0,84,84,84,,,,,,,,,,,,,,,,,,,,,,,,,,,,,,,,,,,,,,,,,,,,,,,,,,,,,CS1_USneg,None,1,,,,,,,,,,,,,,,,,,19,w,15,n,2019_Nov_22_1347,ec_RRR,3.0.4,60.02346917642285,
Hutter,Das Zielwesen für diese Aufgabe ist Gourgeist:,"Also sobald Gourgeist (sein Name oder sein Bild) auf dem Bildschirm erscheint, drücken Sie so schnell wie möglich die Leertaste. Drücken Sie die Leertaste, immer wenn Sie ein Bild von Gourgeist oder das Wort GOURGEIST sehen. 

Drücken Sie die Leertaste, um die Aufgabe zu starten.",target5,stimuli/t5.jpg,15,86,stimuli/filler24.jpg,filler,False,None,,,,,,,,,,,,,,0,0,0,0,,,,,0,0,0,4,0,85,85,85,,,,,,,,,,,,,,,,,,,,,,,,,,,,,,,,,,,,,,,,,,,,,,,,,,,,,CS1_USneg,None,1,,,,,,,,,,,,,,,,,,19,w,15,n,2019_Nov_22_1347,ec_RRR,3.0.4,60.02346917642285,
Hutter,Das Zielwesen für diese Aufgabe ist Golett:,"Also sobald Golett (sein Name oder sein Bild) auf dem Bildschirm erscheint, drücken Sie so schnell wie möglich die Leertaste. Drücken Sie die Leertaste, immer wenn Sie ein Bild von Golett oder das Wort GOLETT sehen. 

Drücken Sie die Leertaste, um die Aufgabe zu starten.",target1,stimuli/t1.jpg,15,1,stimuli/filler52.jpg,filler,False,None,,,,,,,,,,,,,,0,0,0,0,,,,,0,1,1,0,0,0,0,0,,,,,,,,,,,,,,,,,,,,,,,,,,,,,,,,,,,,,,,,,,,,,,,,,,,,,CS1_USneg,None,1,,,,,,,,,,,,,,,,,,19,w,15,n,2019_Nov_22_1347,ec_RRR,3.0.4,60.02346917642285,
Hutter,Das Zielwesen für diese Aufgabe ist Golett:,"Also sobald Golett (sein Name oder sein Bild) auf dem Bildschirm erscheint, drücken Sie so schnell wie möglich die Leertaste. Drücken Sie die Leertaste, immer wenn Sie ein Bild von Golett oder das Wort GOLETT sehen. 

Drücken Sie die Leertaste, um die Aufgabe zu starten.",target1,stimuli/t1.jpg,15,2,stimuli/filler28.jpg,filler,False,None,,,,,,,,,,,,,,0,0,0,0,,,,,0,1,1,0,0,1,1,1,,,,,,,,,,,,,,,,,,,,,,,,,,,,,,,,,,,,,,,,,,,,,,,,,,,,,CS1_USneg,None,1,,,,,,,,,,,,,,,,,,19,w,15,n,2019_Nov_22_1347,ec_RRR,3.0.4,60.02346917642285,
Hutter,Das Zielwesen für diese Aufgabe ist Golett:,"Also sobald Golett (sein Name oder sein Bild) auf dem Bildschirm erscheint, drücken Sie so schnell wie möglich die Leertaste. Drücken Sie die Leertaste, immer wenn Sie ein Bild von Golett oder das Wort GOLETT sehen. 

Drücken Sie die Leertaste, um die Aufgabe zu starten.",target1,stimuli/t1.jpg,15,3,stimuli/filler42.jpg,filler,False,None,,,,,,,,,,,,,,0,0,0,0,,,,,0,1,1,0,0,2,2,2,,,,,,,,,,,,,,,,,,,,,,,,,,,,,,,,,,,,,,,,,,,,,,,,,,,,,CS1_USneg,None,1,,,,,,,,,,,,,,,,,,19,w,15,n,2019_Nov_22_1347,ec_RRR,3.0.4,60.02346917642285,
Hutter,Das Zielwesen für diese Aufgabe ist Golett:,"Also sobald Golett (sein Name oder sein Bild) auf dem Bildschirm erscheint, drücken Sie so schnell wie möglich die Leertaste. Drücken Sie die Leertaste, immer wenn Sie ein Bild von Golett oder das Wort GOLETT sehen. 

Drücken Sie die Leertaste, um die Aufgabe zu starten.",target1,stimuli/t1.jpg,15,4,stimuli/filler4.jpg,filler,False,None,,,,,,,,,,,,,,0,0,0,0,,,,,0,1,1,0,0,3,3,3,,,,,,,,,,,,,,,,,,,,,,,,,,,,,,,,,,,,,,,,,,,,,,,,,,,,,CS1_USneg,None,1,,,,,,,,,,,,,,,,,,19,w,15,n,2019_Nov_22_1347,ec_RRR,3.0.4,60.02346917642285,
Hutter,Das Zielwesen für diese Aufgabe ist Golett:,"Also sobald Golett (sein Name oder sein Bild) auf dem Bildschirm erscheint, drücken Sie so schnell wie möglich die Leertaste. Drücken Sie die Leertaste, immer wenn Sie ein Bild von Golett oder das Wort GOLETT sehen. 

Drücken Sie die Leertaste, um die Aufgabe zu starten.",target1,stimuli/t1.jpg,15,5,stimuli/filler36.jpg,filler,False,None,,,,,,,,,,,,,,0,0,0,0,,,,,0,1,1,0,0,4,4,4,,,,,,,,,,,,,,,,,,,,,,,,,,,,,,,,,,,,,,,,,,,,,,,,,,,,,CS1_USneg,None,1,,,,,,,,,,,,,,,,,,19,w,15,n,2019_Nov_22_1347,ec_RRR,3.0.4,60.02346917642285,
Hutter,Das Zielwesen für diese Aufgabe ist Golett:,"Also sobald Golett (sein Name oder sein Bild) auf dem Bildschirm erscheint, drücken Sie so schnell wie möglich die Leertaste. Drücken Sie die Leertaste, immer wenn Sie ein Bild von Golett oder das Wort GOLETT sehen. 

Drücken Sie die Leertaste, um die Aufgabe zu starten.",target1,stimuli/t1.jpg,15,6,stimuli/filler24.jpg,filler,False,None,,,,,,,,,,,,,,0,0,0,0,,,,,0,1,1,0,0,5,5,5,,,,,,,,,,,,,,,,,,,,,,,,,,,,,,,,,,,,,,,,,,,,,,,,,,,,,CS1_USneg,None,1,,,,,,,,,,,,,,,,,,19,w,15,n,2019_Nov_22_1347,ec_RRR,3.0.4,60.02346917642285,
Hutter,Das Zielwesen für diese Aufgabe ist Golett:,"Also sobald Golett (sein Name oder sein Bild) auf dem Bildschirm erscheint, drücken Sie so schnell wie möglich die Leertaste. Drücken Sie die Leertaste, immer wenn Sie ein Bild von Golett oder das Wort GOLETT sehen. 

Drücken Sie die Leertaste, um die Aufgabe zu starten.",target1,stimuli/t1.jpg,15,7,stimuli/filler39.jpg,filler,False,None,,,,,,,,,,,,,,0,0,0,0,,,,,0,1,1,0,0,6,6,6,,,,,,,,,,,,,,,,,,,,,,,,,,,,,,,,,,,,,,,,,,,,,,,,,,,,,CS1_USneg,None,1,,,,,,,,,,,,,,,,,,19,w,15,n,2019_Nov_22_1347,ec_RRR,3.0.4,60.02346917642285,
Hutter,Das Zielwesen für diese Aufgabe ist Golett:,"Also sobald Golett (sein Name oder sein Bild) auf dem Bildschirm erscheint, drücken Sie so schnell wie möglich die Leertaste. Drücken Sie die Leertaste, immer wenn Sie ein Bild von Golett oder das Wort GOLETT sehen. 

Drücken Sie die Leertaste, um die Aufgabe zu starten.",target1,stimuli/t1.jpg,15,8,stimuli/target1_2.jpg,target,True,space,,,,,,,,,,,,,,0,0,0,0,,,,,0,1,1,0,0,7,7,7,,,,,,,,,,,,,,,,,,,,,,,,,,,,,,,,,,,,,,,,,,,,,,,,,,,,,CS1_USneg,space,1,0.48004979999996067,,,,,,,,,,,,,,,,,19,w,15,n,2019_Nov_22_1347,ec_RRR,3.0.4,60.02346917642285,
Hutter,Das Zielwesen für diese Aufgabe ist Golett:,"Also sobald Golett (sein Name oder sein Bild) auf dem Bildschirm erscheint, drücken Sie so schnell wie möglich die Leertaste. Drücken Sie die Leertaste, immer wenn Sie ein Bild von Golett oder das Wort GOLETT sehen. 

Drücken Sie die Leertaste, um die Aufgabe zu starten.",target1,stimuli/t1.jpg,15,9,stimuli/filler29.jpg,filler,False,None,,,,,,,,,,,,,,0,0,0,0,,,,,0,1,1,0,0,8,8,8,,,,,,,,,,,,,,,,,,,,,,,,,,,,,,,,,,,,,,,,,,,,,,,,,,,,,CS1_USneg,None,1,,,,,,,,,,,,,,,,,,19,w,15,n,2019_Nov_22_1347,ec_RRR,3.0.4,60.02346917642285,
Hutter,Das Zielwesen für diese Aufgabe ist Golett:,"Also sobald Golett (sein Name oder sein Bild) auf dem Bildschirm erscheint, drücken Sie so schnell wie möglich die Leertaste. Drücken Sie die Leertaste, immer wenn Sie ein Bild von Golett oder das Wort GOLETT sehen. 

Drücken Sie die Leertaste, um die Aufgabe zu starten.",target1,stimuli/t1.jpg,15,10,stimuli/blank.jpg,blank,False,None,,,,,,,,,,,,,,0,0,0,0,,,,,0,1,1,0,0,9,9,9,,,,,,,,,,,,,,,,,,,,,,,,,,,,,,,,,,,,,,,,,,,,,,,,,,,,,CS1_USneg,None,1,,,,,,,,,,,,,,,,,,19,w,15,n,2019_Nov_22_1347,ec_RRR,3.0.4,60.02346917642285,
Hutter,Das Zielwesen für diese Aufgabe ist Golett:,"Also sobald Golett (sein Name oder sein Bild) auf dem Bildschirm erscheint, drücken Sie so schnell wie möglich die Leertaste. Drücken Sie die Leertaste, immer wenn Sie ein Bild von Golett oder das Wort GOLETT sehen. 

Drücken Sie die Leertaste, um die Aufgabe zu starten.",target1,stimuli/t1.jpg,15,11,stimuli/cs1_neg12.jpg,CSUS,False,None,,,,,,,,,,,,,,0,0,0,0,,,,,0,1,1,0,0,10,10,10,,,,,,,,,,,,,,,,,,,,,,,,,,,,,,,,,,,,,,,,,,,,,,,,,,,,,CS1_USneg,None,1,,,,,,,,,,,,,,,,,,19,w,15,n,2019_Nov_22_1347,ec_RRR,3.0.4,60.02346917642285,
Hutter,Das Zielwesen für diese Aufgabe ist Golett:,"Also sobald Golett (sein Name oder sein Bild) auf dem Bildschirm erscheint, drücken Sie so schnell wie möglich die Leertaste. Drücken Sie die Leertaste, immer wenn Sie ein Bild von Golett oder das Wort GOLETT sehen. 

Drücken Sie die Leertaste, um die Aufgabe zu starten.",target1,stimuli/t1.jpg,15,12,stimuli/blank.jpg,blank,False,None,,,,,,,,,,,,,,0,0,0,0,,,,,0,1,1,0,0,11,11,11,,,,,,,,,,,,,,,,,,,,,,,,,,,,,,,,,,,,,,,,,,,,,,,,,,,,,CS1_USneg,None,1,,,,,,,,,,,,,,,,,,19,w,15,n,2019_Nov_22_1347,ec_RRR,3.0.4,60.02346917642285,
Hutter,Das Zielwesen für diese Aufgabe ist Golett:,"Also sobald Golett (sein Name oder sein Bild) auf dem Bildschirm erscheint, drücken Sie so schnell wie möglich die Leertaste. Drücken Sie die Leertaste, immer wenn Sie ein Bild von Golett oder das Wort GOLETT sehen. 

Drücken Sie die Leertaste, um die Aufgabe zu starten.",target1,stimuli/t1.jpg,15,13,stimuli/filler9.jpg,filler,False,None,,,,,,,,,,,,,,0,0,0,0,,,,,0,1,1,0,0,12,12,12,,,,,,,,,,,,,,,,,,,,,,,,,,,,,,,,,,,,,,,,,,,,,,,,,,,,,CS1_USneg,None,1,,,,,,,,,,,,,,,,,,19,w,15,n,2019_Nov_22_1347,ec_RRR,3.0.4,60.02346917642285,
Hutter,Das Zielwesen für diese Aufgabe ist Golett:,"Also sobald Golett (sein Name oder sein Bild) auf dem Bildschirm erscheint, drücken Sie so schnell wie möglich die Leertaste. Drücken Sie die Leertaste, immer wenn Sie ein Bild von Golett oder das Wort GOLETT sehen. 

Drücken Sie die Leertaste, um die Aufgabe zu starten.",target1,stimuli/t1.jpg,15,14,stimuli/filler44.jpg,filler,False,None,,,,,,,,,,,,,,0,0,0,0,,,,,0,1,1,0,0,13,13,13,,,,,,,,,,,,,,,,,,,,,,,,,,,,,,,,,,,,,,,,,,,,,,,,,,,,,CS1_USneg,None,1,,,,,,,,,,,,,,,,,,19,w,15,n,2019_Nov_22_1347,ec_RRR,3.0.4,60.02346917642285,
Hutter,Das Zielwesen für diese Aufgabe ist Golett:,"Also sobald Golett (sein Name oder sein Bild) auf dem Bildschirm erscheint, drücken Sie so schnell wie möglich die Leertaste. Drücken Sie die Leertaste, immer wenn Sie ein Bild von Golett oder das Wort GOLETT sehen. 

Drücken Sie die Leertaste, um die Aufgabe zu starten.",target1,stimuli/t1.jpg,15,15,stimuli/filler2.jpg,filler,False,None,,,,,,,,,,,,,,0,0,0,0,,,,,0,1,1,0,0,14,14,14,,,,,,,,,,,,,,,,,,,,,,,,,,,,,,,,,,,,,,,,,,,,,,,,,,,,,CS1_USneg,None,1,,,,,,,,,,,,,,,,,,19,w,15,n,2019_Nov_22_1347,ec_RRR,3.0.4,60.02346917642285,
Hutter,Das Zielwesen für diese Aufgabe ist Golett:,"Also sobald Golett (sein Name oder sein Bild) auf dem Bildschirm erscheint, drücken Sie so schnell wie möglich die Leertaste. Drücken Sie die Leertaste, immer wenn Sie ein Bild von Golett oder das Wort GOLETT sehen. 

Drücken Sie die Leertaste, um die Aufgabe zu starten.",target1,stimuli/t1.jpg,15,16,stimuli/filler22.jpg,filler,False,None,,,,,,,,,,,,,,0,0,0,0,,,,,0,1,1,0,0,15,15,15,,,,,,,,,,,,,,,,,,,,,,,,,,,,,,,,,,,,,,,,,,,,,,,,,,,,,CS1_USneg,None,1,,,,,,,,,,,,,,,,,,19,w,15,n,2019_Nov_22_1347,ec_RRR,3.0.4,60.02346917642285,
Hutter,Das Zielwesen für diese Aufgabe ist Golett:,"Also sobald Golett (sein Name oder sein Bild) auf dem Bildschirm erscheint, drücken Sie so schnell wie möglich die Leertaste. Drücken Sie die Leertaste, immer wenn Sie ein Bild von Golett oder das Wort GOLETT sehen. 

Drücken Sie die Leertaste, um die Aufgabe zu starten.",target1,stimuli/t1.jpg,15,17,stimuli/target1_3.jpg,target,True,space,,,,,,,,,,,,,,0,0,0,0,,,,,0,1,1,0,0,16,16,16,,,,,,,,,,,,,,,,,,,,,,,,,,,,,,,,,,,,,,,,,,,,,,,,,,,,,CS1_USneg,space,1,0.5760745000002316,,,,,,,,,,,,,,,,,19,w,15,n,2019_Nov_22_1347,ec_RRR,3.0.4,60.02346917642285,
Hutter,Das Zielwesen für diese Aufgabe ist Golett:,"Also sobald Golett (sein Name oder sein Bild) auf dem Bildschirm erscheint, drücken Sie so schnell wie möglich die Leertaste. Drücken Sie die Leertaste, immer wenn Sie ein Bild von Golett oder das Wort GOLETT sehen. 

Drücken Sie die Leertaste, um die Aufgabe zu starten.",target1,stimuli/t1.jpg,15,18,stimuli/filler5.jpg,filler,False,None,,,,,,,,,,,,,,0,0,0,0,,,,,0,1,1,0,0,17,17,17,,,,,,,,,,,,,,,,,,,,,,,,,,,,,,,,,,,,,,,,,,,,,,,,,,,,,CS1_USneg,None,1,,,,,,,,,,,,,,,,,,19,w,15,n,2019_Nov_22_1347,ec_RRR,3.0.4,60.02346917642285,
Hutter,Das Zielwesen für diese Aufgabe ist Golett:,"Also sobald Golett (sein Name oder sein Bild) auf dem Bildschirm erscheint, drücken Sie so schnell wie möglich die Leertaste. Drücken Sie die Leertaste, immer wenn Sie ein Bild von Golett oder das Wort GOLETT sehen. 

Drücken Sie die Leertaste, um die Aufgabe zu starten.",target1,stimuli/t1.jpg,15,19,stimuli/filler51.jpg,filler,False,None,,,,,,,,,,,,,,0,0,0,0,,,,,0,1,1,0,0,18,18,18,,,,,,,,,,,,,,,,,,,,,,,,,,,,,,,,,,,,,,,,,,,,,,,,,,,,,CS1_USneg,None,1,,,,,,,,,,,,,,,,,,19,w,15,n,2019_Nov_22_1347,ec_RRR,3.0.4,60.02346917642285,
Hutter,Das Zielwesen für diese Aufgabe ist Golett:,"Also sobald Golett (sein Name oder sein Bild) auf dem Bildschirm erscheint, drücken Sie so schnell wie möglich die Leertaste. Drücken Sie die Leertaste, immer wenn Sie ein Bild von Golett oder das Wort GOLETT sehen. 

Drücken Sie die Leertaste, um die Aufgabe zu starten.",target1,stimuli/t1.jpg,15,20,stimuli/blank.jpg,blank,False,None,,,,,,,,,,,,,,0,0,0,0,,,,,0,1,1,0,0,19,19,19,,,,,,,,,,,,,,,,,,,,,,,,,,,,,,,,,,,,,,,,,,,,,,,,,,,,,CS1_USneg,None,1,,,,,,,,,,,,,,,,,,19,w,15,n,2019_Nov_22_1347,ec_RRR,3.0.4,60.02346917642285,
Hutter,Das Zielwesen für diese Aufgabe ist Golett:,"Also sobald Golett (sein Name oder sein Bild) auf dem Bildschirm erscheint, drücken Sie so schnell wie möglich die Leertaste. Drücken Sie die Leertaste, immer wenn Sie ein Bild von Golett oder das Wort GOLETT sehen. 

Drücken Sie die Leertaste, um die Aufgabe zu starten.",target1,stimuli/t1.jpg,15,21,stimuli/cs2_pos11.jpg,CSUS,False,None,,,,,,,,,,,,,,0,0,0,0,,,,,0,1,1,0,0,20,20,20,,,,,,,,,,,,,,,,,,,,,,,,,,,,,,,,,,,,,,,,,,,,,,,,,,,,,CS1_USneg,None,1,,,,,,,,,,,,,,,,,,19,w,15,n,2019_Nov_22_1347,ec_RRR,3.0.4,60.02346917642285,
Hutter,Das Zielwesen für diese Aufgabe ist Golett:,"Also sobald Golett (sein Name oder sein Bild) auf dem Bildschirm erscheint, drücken Sie so schnell wie möglich die Leertaste. Drücken Sie die Leertaste, immer wenn Sie ein Bild von Golett oder das Wort GOLETT sehen. 

Drücken Sie die Leertaste, um die Aufgabe zu starten.",target1,stimuli/t1.jpg,15,22,stimuli/blank.jpg,blank,False,None,,,,,,,,,,,,,,0,0,0,0,,,,,0,1,1,0,0,21,21,21,,,,,,,,,,,,,,,,,,,,,,,,,,,,,,,,,,,,,,,,,,,,,,,,,,,,,CS1_USneg,None,1,,,,,,,,,,,,,,,,,,19,w,15,n,2019_Nov_22_1347,ec_RRR,3.0.4,60.02346917642285,
Hutter,Das Zielwesen für diese Aufgabe ist Golett:,"Also sobald Golett (sein Name oder sein Bild) auf dem Bildschirm erscheint, drücken Sie so schnell wie möglich die Leertaste. Drücken Sie die Leertaste, immer wenn Sie ein Bild von Golett oder das Wort GOLETT sehen. 

Drücken Sie die Leertaste, um die Aufgabe zu starten.",target1,stimuli/t1.jpg,15,23,stimuli/filler45.jpg,filler,False,None,,,,,,,,,,,,,,0,0,0,0,,,,,0,1,1,0,0,22,22,22,,,,,,,,,,,,,,,,,,,,,,,,,,,,,,,,,,,,,,,,,,,,,,,,,,,,,CS1_USneg,None,1,,,,,,,,,,,,,,,,,,19,w,15,n,2019_Nov_22_1347,ec_RRR,3.0.4,60.02346917642285,
Hutter,Das Zielwesen für diese Aufgabe ist Golett:,"Also sobald Golett (sein Name oder sein Bild) auf dem Bildschirm erscheint, drücken Sie so schnell wie möglich die Leertaste. Drücken Sie die Leertaste, immer wenn Sie ein Bild von Golett oder das Wort GOLETT sehen. 

Drücken Sie die Leertaste, um die Aufgabe zu starten.",target1,stimuli/t1.jpg,15,24,stimuli/filler27.jpg,filler,False,None,,,,,,,,,,,,,,0,0,0,0,,,,,0,1,1,0,0,23,23,23,,,,,,,,,,,,,,,,,,,,,,,,,,,,,,,,,,,,,,,,,,,,,,,,,,,,,CS1_USneg,None,1,,,,,,,,,,,,,,,,,,19,w,15,n,2019_Nov_22_1347,ec_RRR,3.0.4,60.02346917642285,
Hutter,Das Zielwesen für diese Aufgabe ist Golett:,"Also sobald Golett (sein Name oder sein Bild) auf dem Bildschirm erscheint, drücken Sie so schnell wie möglich die Leertaste. Drücken Sie die Leertaste, immer wenn Sie ein Bild von Golett oder das Wort GOLETT sehen. 

Drücken Sie die Leertaste, um die Aufgabe zu starten.",target1,stimuli/t1.jpg,15,25,stimuli/filler3.jpg,filler,False,None,,,,,,,,,,,,,,0,0,0,0,,,,,0,1,1,0,0,24,24,24,,,,,,,,,,,,,,,,,,,,,,,,,,,,,,,,,,,,,,,,,,,,,,,,,,,,,CS1_USneg,None,1,,,,,,,,,,,,,,,,,,19,w,15,n,2019_Nov_22_1347,ec_RRR,3.0.4,60.02346917642285,
Hutter,Das Zielwesen für diese Aufgabe ist Golett:,"Also sobald Golett (sein Name oder sein Bild) auf dem Bildschirm erscheint, drücken Sie so schnell wie möglich die Leertaste. Drücken Sie die Leertaste, immer wenn Sie ein Bild von Golett oder das Wort GOLETT sehen. 

Drücken Sie die Leertaste, um die Aufgabe zu starten.",target1,stimuli/t1.jpg,15,26,stimuli/filler33.jpg,filler,False,None,,,,,,,,,,,,,,0,0,0,0,,,,,0,1,1,0,0,25,25,25,,,,,,,,,,,,,,,,,,,,,,,,,,,,,,,,,,,,,,,,,,,,,,,,,,,,,CS1_USneg,None,1,,,,,,,,,,,,,,,,,,19,w,15,n,2019_Nov_22_1347,ec_RRR,3.0.4,60.02346917642285,
Hutter,Das Zielwesen für diese Aufgabe ist Golett:,"Also sobald Golett (sein Name oder sein Bild) auf dem Bildschirm erscheint, drücken Sie so schnell wie möglich die Leertaste. Drücken Sie die Leertaste, immer wenn Sie ein Bild von Golett oder das Wort GOLETT sehen. 

Drücken Sie die Leertaste, um die Aufgabe zu starten.",target1,stimuli/t1.jpg,15,27,stimuli/filler30.jpg,filler,False,None,,,,,,,,,,,,,,0,0,0,0,,,,,0,1,1,0,0,26,26,26,,,,,,,,,,,,,,,,,,,,,,,,,,,,,,,,,,,,,,,,,,,,,,,,,,,,,CS1_USneg,None,1,,,,,,,,,,,,,,,,,,19,w,15,n,2019_Nov_22_1347,ec_RRR,3.0.4,60.02346917642285,
Hutter,Das Zielwesen für diese Aufgabe ist Golett:,"Also sobald Golett (sein Name oder sein Bild) auf dem Bildschirm erscheint, drücken Sie so schnell wie möglich die Leertaste. Drücken Sie die Leertaste, immer wenn Sie ein Bild von Golett oder das Wort GOLETT sehen. 

Drücken Sie die Leertaste, um die Aufgabe zu starten.",target1,stimuli/t1.jpg,15,28,stimuli/filler48.jpg,filler,False,None,,,,,,,,,,,,,,0,0,0,0,,,,,0,1,1,0,0,27,27,27,,,,,,,,,,,,,,,,,,,,,,,,,,,,,,,,,,,,,,,,,,,,,,,,,,,,,CS1_USneg,None,1,,,,,,,,,,,,,,,,,,19,w,15,n,2019_Nov_22_1347,ec_RRR,3.0.4,60.02346917642285,
Hutter,Das Zielwesen für diese Aufgabe ist Golett:,"Also sobald Golett (sein Name oder sein Bild) auf dem Bildschirm erscheint, drücken Sie so schnell wie möglich die Leertaste. Drücken Sie die Leertaste, immer wenn Sie ein Bild von Golett oder das Wort GOLETT sehen. 

Drücken Sie die Leertaste, um die Aufgabe zu starten.",target1,stimuli/t1.jpg,15,29,stimuli/filler17.jpg,filler,False,None,,,,,,,,,,,,,,0,0,0,0,,,,,0,1,1,0,0,28,28,28,,,,,,,,,,,,,,,,,,,,,,,,,,,,,,,,,,,,,,,,,,,,,,,,,,,,,CS1_USneg,None,1,,,,,,,,,,,,,,,,,,19,w,15,n,2019_Nov_22_1347,ec_RRR,3.0.4,60.02346917642285,
Hutter,Das Zielwesen für diese Aufgabe ist Golett:,"Also sobald Golett (sein Name oder sein Bild) auf dem Bildschirm erscheint, drücken Sie so schnell wie möglich die Leertaste. Drücken Sie die Leertaste, immer wenn Sie ein Bild von Golett oder das Wort GOLETT sehen. 

Drücken Sie die Leertaste, um die Aufgabe zu starten.",target1,stimuli/t1.jpg,15,30,stimuli/blank.jpg,blank,False,None,,,,,,,,,,,,,,0,0,0,0,,,,,0,1,1,0,0,29,29,29,,,,,,,,,,,,,,,,,,,,,,,,,,,,,,,,,,,,,,,,,,,,,,,,,,,,,CS1_USneg,None,1,,,,,,,,,,,,,,,,,,19,w,15,n,2019_Nov_22_1347,ec_RRR,3.0.4,60.02346917642285,
Hutter,Das Zielwesen für diese Aufgabe ist Golett:,"Also sobald Golett (sein Name oder sein Bild) auf dem Bildschirm erscheint, drücken Sie so schnell wie möglich die Leertaste. Drücken Sie die Leertaste, immer wenn Sie ein Bild von Golett oder das Wort GOLETT sehen. 

Drücken Sie die Leertaste, um die Aufgabe zu starten.",target1,stimuli/t1.jpg,15,31,stimuli/cs1_neg20.jpg,CSUS,False,None,,,,,,,,,,,,,,0,0,0,0,,,,,0,1,1,0,0,30,30,30,,,,,,,,,,,,,,,,,,,,,,,,,,,,,,,,,,,,,,,,,,,,,,,,,,,,,CS1_USneg,None,1,,,,,,,,,,,,,,,,,,19,w,15,n,2019_Nov_22_1347,ec_RRR,3.0.4,60.02346917642285,
Hutter,Das Zielwesen für diese Aufgabe ist Golett:,"Also sobald Golett (sein Name oder sein Bild) auf dem Bildschirm erscheint, drücken Sie so schnell wie möglich die Leertaste. Drücken Sie die Leertaste, immer wenn Sie ein Bild von Golett oder das Wort GOLETT sehen. 

Drücken Sie die Leertaste, um die Aufgabe zu starten.",target1,stimuli/t1.jpg,15,32,stimuli/blank.jpg,blank,False,None,,,,,,,,,,,,,,0,0,0,0,,,,,0,1,1,0,0,31,31,31,,,,,,,,,,,,,,,,,,,,,,,,,,,,,,,,,,,,,,,,,,,,,,,,,,,,,CS1_USneg,None,1,,,,,,,,,,,,,,,,,,19,w,15,n,2019_Nov_22_1347,ec_RRR,3.0.4,60.02346917642285,
Hutter,Das Zielwesen für diese Aufgabe ist Golett:,"Also sobald Golett (sein Name oder sein Bild) auf dem Bildschirm erscheint, drücken Sie so schnell wie möglich die Leertaste. Drücken Sie die Leertaste, immer wenn Sie ein Bild von Golett oder das Wort GOLETT sehen. 

Drücken Sie die Leertaste, um die Aufgabe zu starten.",target1,stimuli/t1.jpg,15,33,stimuli/filler15.jpg,filler,False,None,,,,,,,,,,,,,,0,0,0,0,,,,,0,1,1,0,0,32,32,32,,,,,,,,,,,,,,,,,,,,,,,,,,,,,,,,,,,,,,,,,,,,,,,,,,,,,CS1_USneg,None,1,,,,,,,,,,,,,,,,,,19,w,15,n,2019_Nov_22_1347,ec_RRR,3.0.4,60.02346917642285,
Hutter,Das Zielwesen für diese Aufgabe ist Golett:,"Also sobald Golett (sein Name oder sein Bild) auf dem Bildschirm erscheint, drücken Sie so schnell wie möglich die Leertaste. Drücken Sie die Leertaste, immer wenn Sie ein Bild von Golett oder das Wort GOLETT sehen. 

Drücken Sie die Leertaste, um die Aufgabe zu starten.",target1,stimuli/t1.jpg,15,34,stimuli/target1_5.jpg,target,True,space,,,,,,,,,,,,,,0,0,0,0,,,,,0,1,1,0,0,33,33,33,,,,,,,,,,,,,,,,,,,,,,,,,,,,,,,,,,,,,,,,,,,,,,,,,,,,,CS1_USneg,space,1,0.5741038000001026,,,,,,,,,,,,,,,,,19,w,15,n,2019_Nov_22_1347,ec_RRR,3.0.4,60.02346917642285,
Hutter,Das Zielwesen für diese Aufgabe ist Golett:,"Also sobald Golett (sein Name oder sein Bild) auf dem Bildschirm erscheint, drücken Sie so schnell wie möglich die Leertaste. Drücken Sie die Leertaste, immer wenn Sie ein Bild von Golett oder das Wort GOLETT sehen. 

Drücken Sie die Leertaste, um die Aufgabe zu starten.",target1,stimuli/t1.jpg,15,35,stimuli/filler11.jpg,filler,False,None,,,,,,,,,,,,,,0,0,0,0,,,,,0,1,1,0,0,34,34,34,,,,,,,,,,,,,,,,,,,,,,,,,,,,,,,,,,,,,,,,,,,,,,,,,,,,,CS1_USneg,None,1,,,,,,,,,,,,,,,,,,19,w,15,n,2019_Nov_22_1347,ec_RRR,3.0.4,60.02346917642285,
Hutter,Das Zielwesen für diese Aufgabe ist Golett:,"Also sobald Golett (sein Name oder sein Bild) auf dem Bildschirm erscheint, drücken Sie so schnell wie möglich die Leertaste. Drücken Sie die Leertaste, immer wenn Sie ein Bild von Golett oder das Wort GOLETT sehen. 

Drücken Sie die Leertaste, um die Aufgabe zu starten.",target1,stimuli/t1.jpg,15,36,stimuli/filler21.jpg,filler,False,None,,,,,,,,,,,,,,0,0,0,0,,,,,0,1,1,0,0,35,35,35,,,,,,,,,,,,,,,,,,,,,,,,,,,,,,,,,,,,,,,,,,,,,,,,,,,,,CS1_USneg,None,1,,,,,,,,,,,,,,,,,,19,w,15,n,2019_Nov_22_1347,ec_RRR,3.0.4,60.02346917642285,
Hutter,Das Zielwesen für diese Aufgabe ist Golett:,"Also sobald Golett (sein Name oder sein Bild) auf dem Bildschirm erscheint, drücken Sie so schnell wie möglich die Leertaste. Drücken Sie die Leertaste, immer wenn Sie ein Bild von Golett oder das Wort GOLETT sehen. 

Drücken Sie die Leertaste, um die Aufgabe zu starten.",target1,stimuli/t1.jpg,15,37,stimuli/filler43.jpg,filler,False,None,,,,,,,,,,,,,,0,0,0,0,,,,,0,1,1,0,0,36,36,36,,,,,,,,,,,,,,,,,,,,,,,,,,,,,,,,,,,,,,,,,,,,,,,,,,,,,CS1_USneg,None,1,,,,,,,,,,,,,,,,,,19,w,15,n,2019_Nov_22_1347,ec_RRR,3.0.4,60.02346917642285,
Hutter,Das Zielwesen für diese Aufgabe ist Golett:,"Also sobald Golett (sein Name oder sein Bild) auf dem Bildschirm erscheint, drücken Sie so schnell wie möglich die Leertaste. Drücken Sie die Leertaste, immer wenn Sie ein Bild von Golett oder das Wort GOLETT sehen. 

Drücken Sie die Leertaste, um die Aufgabe zu starten.",target1,stimuli/t1.jpg,15,38,stimuli/target1_1.jpg,target,True,space,,,,,,,,,,,,,,0,0,0,0,,,,,0,1,1,0,0,37,37,37,,,,,,,,,,,,,,,,,,,,,,,,,,,,,,,,,,,,,,,,,,,,,,,,,,,,,CS1_USneg,space,1,0.40641109999978653,,,,,,,,,,,,,,,,,19,w,15,n,2019_Nov_22_1347,ec_RRR,3.0.4,60.02346917642285,
Hutter,Das Zielwesen für diese Aufgabe ist Golett:,"Also sobald Golett (sein Name oder sein Bild) auf dem Bildschirm erscheint, drücken Sie so schnell wie möglich die Leertaste. Drücken Sie die Leertaste, immer wenn Sie ein Bild von Golett oder das Wort GOLETT sehen. 

Drücken Sie die Leertaste, um die Aufgabe zu starten.",target1,stimuli/t1.jpg,15,39,stimuli/filler50.jpg,filler,False,None,,,,,,,,,,,,,,0,0,0,0,,,,,0,1,1,0,0,38,38,38,,,,,,,,,,,,,,,,,,,,,,,,,,,,,,,,,,,,,,,,,,,,,,,,,,,,,CS1_USneg,None,1,,,,,,,,,,,,,,,,,,19,w,15,n,2019_Nov_22_1347,ec_RRR,3.0.4,60.02346917642285,
Hutter,Das Zielwesen für diese Aufgabe ist Golett:,"Also sobald Golett (sein Name oder sein Bild) auf dem Bildschirm erscheint, drücken Sie so schnell wie möglich die Leertaste. Drücken Sie die Leertaste, immer wenn Sie ein Bild von Golett oder das Wort GOLETT sehen. 

Drücken Sie die Leertaste, um die Aufgabe zu starten.",target1,stimuli/t1.jpg,15,40,stimuli/blank.jpg,blank,False,None,,,,,,,,,,,,,,0,0,0,0,,,,,0,1,1,0,0,39,39,39,,,,,,,,,,,,,,,,,,,,,,,,,,,,,,,,,,,,,,,,,,,,,,,,,,,,,CS1_USneg,None,1,,,,,,,,,,,,,,,,,,19,w,15,n,2019_Nov_22_1347,ec_RRR,3.0.4,60.02346917642285,
Hutter,Das Zielwesen für diese Aufgabe ist Golett:,"Also sobald Golett (sein Name oder sein Bild) auf dem Bildschirm erscheint, drücken Sie so schnell wie möglich die Leertaste. Drücken Sie die Leertaste, immer wenn Sie ein Bild von Golett oder das Wort GOLETT sehen. 

Drücken Sie die Leertaste, um die Aufgabe zu starten.",target1,stimuli/t1.jpg,15,41,stimuli/cs2_pos12.jpg,CSUS,False,None,,,,,,,,,,,,,,0,0,0,0,,,,,0,1,1,0,0,40,40,40,,,,,,,,,,,,,,,,,,,,,,,,,,,,,,,,,,,,,,,,,,,,,,,,,,,,,CS1_USneg,None,1,,,,,,,,,,,,,,,,,,19,w,15,n,2019_Nov_22_1347,ec_RRR,3.0.4,60.02346917642285,
Hutter,Das Zielwesen für diese Aufgabe ist Golett:,"Also sobald Golett (sein Name oder sein Bild) auf dem Bildschirm erscheint, drücken Sie so schnell wie möglich die Leertaste. Drücken Sie die Leertaste, immer wenn Sie ein Bild von Golett oder das Wort GOLETT sehen. 

Drücken Sie die Leertaste, um die Aufgabe zu starten.",target1,stimuli/t1.jpg,15,42,stimuli/blank.jpg,blank,False,None,,,,,,,,,,,,,,0,0,0,0,,,,,0,1,1,0,0,41,41,41,,,,,,,,,,,,,,,,,,,,,,,,,,,,,,,,,,,,,,,,,,,,,,,,,,,,,CS1_USneg,None,1,,,,,,,,,,,,,,,,,,19,w,15,n,2019_Nov_22_1347,ec_RRR,3.0.4,60.02346917642285,
Hutter,Das Zielwesen für diese Aufgabe ist Golett:,"Also sobald Golett (sein Name oder sein Bild) auf dem Bildschirm erscheint, drücken Sie so schnell wie möglich die Leertaste. Drücken Sie die Leertaste, immer wenn Sie ein Bild von Golett oder das Wort GOLETT sehen. 

Drücken Sie die Leertaste, um die Aufgabe zu starten.",target1,stimuli/t1.jpg,15,43,stimuli/filler19.jpg,filler,False,None,,,,,,,,,,,,,,0,0,0,0,,,,,0,1,1,0,0,42,42,42,,,,,,,,,,,,,,,,,,,,,,,,,,,,,,,,,,,,,,,,,,,,,,,,,,,,,CS1_USneg,None,1,,,,,,,,,,,,,,,,,,19,w,15,n,2019_Nov_22_1347,ec_RRR,3.0.4,60.02346917642285,
Hutter,Das Zielwesen für diese Aufgabe ist Golett:,"Also sobald Golett (sein Name oder sein Bild) auf dem Bildschirm erscheint, drücken Sie so schnell wie möglich die Leertaste. Drücken Sie die Leertaste, immer wenn Sie ein Bild von Golett oder das Wort GOLETT sehen. 

Drücken Sie die Leertaste, um die Aufgabe zu starten.",target1,stimuli/t1.jpg,15,44,stimuli/filler7.jpg,filler,False,None,,,,,,,,,,,,,,0,0,0,0,,,,,0,1,1,0,0,43,43,43,,,,,,,,,,,,,,,,,,,,,,,,,,,,,,,,,,,,,,,,,,,,,,,,,,,,,CS1_USneg,None,1,,,,,,,,,,,,,,,,,,19,w,15,n,2019_Nov_22_1347,ec_RRR,3.0.4,60.02346917642285,
Hutter,Das Zielwesen für diese Aufgabe ist Golett:,"Also sobald Golett (sein Name oder sein Bild) auf dem Bildschirm erscheint, drücken Sie so schnell wie möglich die Leertaste. Drücken Sie die Leertaste, immer wenn Sie ein Bild von Golett oder das Wort GOLETT sehen. 

Drücken Sie die Leertaste, um die Aufgabe zu starten.",target1,stimuli/t1.jpg,15,45,stimuli/filler13.jpg,filler,False,None,,,,,,,,,,,,,,0,0,0,0,,,,,0,1,1,0,0,44,44,44,,,,,,,,,,,,,,,,,,,,,,,,,,,,,,,,,,,,,,,,,,,,,,,,,,,,,CS1_USneg,None,1,,,,,,,,,,,,,,,,,,19,w,15,n,2019_Nov_22_1347,ec_RRR,3.0.4,60.02346917642285,
Hutter,Das Zielwesen für diese Aufgabe ist Golett:,"Also sobald Golett (sein Name oder sein Bild) auf dem Bildschirm erscheint, drücken Sie so schnell wie möglich die Leertaste. Drücken Sie die Leertaste, immer wenn Sie ein Bild von Golett oder das Wort GOLETT sehen. 

Drücken Sie die Leertaste, um die Aufgabe zu starten.",target1,stimuli/t1.jpg,15,46,stimuli/filler10.jpg,filler,False,None,,,,,,,,,,,,,,0,0,0,0,,,,,0,1,1,0,0,45,45,45,,,,,,,,,,,,,,,,,,,,,,,,,,,,,,,,,,,,,,,,,,,,,,,,,,,,,CS1_USneg,None,1,,,,,,,,,,,,,,,,,,19,w,15,n,2019_Nov_22_1347,ec_RRR,3.0.4,60.02346917642285,
Hutter,Das Zielwesen für diese Aufgabe ist Golett:,"Also sobald Golett (sein Name oder sein Bild) auf dem Bildschirm erscheint, drücken Sie so schnell wie möglich die Leertaste. Drücken Sie die Leertaste, immer wenn Sie ein Bild von Golett oder das Wort GOLETT sehen. 

Drücken Sie die Leertaste, um die Aufgabe zu starten.",target1,stimuli/t1.jpg,15,47,stimuli/target1_8.jpg,target,True,space,,,,,,,,,,,,,,0,0,0,0,,,,,0,1,1,0,0,46,46,46,,,,,,,,,,,,,,,,,,,,,,,,,,,,,,,,,,,,,,,,,,,,,,,,,,,,,CS1_USneg,space,1,0.5537620000000061,,,,,,,,,,,,,,,,,19,w,15,n,2019_Nov_22_1347,ec_RRR,3.0.4,60.02346917642285,
Hutter,Das Zielwesen für diese Aufgabe ist Golett:,"Also sobald Golett (sein Name oder sein Bild) auf dem Bildschirm erscheint, drücken Sie so schnell wie möglich die Leertaste. Drücken Sie die Leertaste, immer wenn Sie ein Bild von Golett oder das Wort GOLETT sehen. 

Drücken Sie die Leertaste, um die Aufgabe zu starten.",target1,stimuli/t1.jpg,15,48,stimuli/filler8.jpg,filler,False,None,,,,,,,,,,,,,,0,0,0,0,,,,,0,1,1,0,0,47,47,47,,,,,,,,,,,,,,,,,,,,,,,,,,,,,,,,,,,,,,,,,,,,,,,,,,,,,CS1_USneg,None,1,,,,,,,,,,,,,,,,,,19,w,15,n,2019_Nov_22_1347,ec_RRR,3.0.4,60.02346917642285,
Hutter,Das Zielwesen für diese Aufgabe ist Golett:,"Also sobald Golett (sein Name oder sein Bild) auf dem Bildschirm erscheint, drücken Sie so schnell wie möglich die Leertaste. Drücken Sie die Leertaste, immer wenn Sie ein Bild von Golett oder das Wort GOLETT sehen. 

Drücken Sie die Leertaste, um die Aufgabe zu starten.",target1,stimuli/t1.jpg,15,49,stimuli/target1_6.jpg,target,True,space,,,,,,,,,,,,,,0,0,0,0,,,,,0,1,1,0,0,48,48,48,,,,,,,,,,,,,,,,,,,,,,,,,,,,,,,,,,,,,,,,,,,,,,,,,,,,,CS1_USneg,space,1,0.8808425000001989,,,,,,,,,,,,,,,,,19,w,15,n,2019_Nov_22_1347,ec_RRR,3.0.4,60.02346917642285,
Hutter,Das Zielwesen für diese Aufgabe ist Golett:,"Also sobald Golett (sein Name oder sein Bild) auf dem Bildschirm erscheint, drücken Sie so schnell wie möglich die Leertaste. Drücken Sie die Leertaste, immer wenn Sie ein Bild von Golett oder das Wort GOLETT sehen. 

Drücken Sie die Leertaste, um die Aufgabe zu starten.",target1,stimuli/t1.jpg,15,50,stimuli/blank.jpg,blank,False,None,,,,,,,,,,,,,,0,0,0,0,,,,,0,1,1,0,0,49,49,49,,,,,,,,,,,,,,,,,,,,,,,,,,,,,,,,,,,,,,,,,,,,,,,,,,,,,CS1_USneg,None,1,,,,,,,,,,,,,,,,,,19,w,15,n,2019_Nov_22_1347,ec_RRR,3.0.4,60.02346917642285,
Hutter,Das Zielwesen für diese Aufgabe ist Golett:,"Also sobald Golett (sein Name oder sein Bild) auf dem Bildschirm erscheint, drücken Sie so schnell wie möglich die Leertaste. Drücken Sie die Leertaste, immer wenn Sie ein Bild von Golett oder das Wort GOLETT sehen. 

Drücken Sie die Leertaste, um die Aufgabe zu starten.",target1,stimuli/t1.jpg,15,51,stimuli/cs1_neg16.jpg,CSUS,False,None,,,,,,,,,,,,,,0,0,0,0,,,,,0,1,1,0,0,50,50,50,,,,,,,,,,,,,,,,,,,,,,,,,,,,,,,,,,,,,,,,,,,,,,,,,,,,,CS1_USneg,None,1,,,,,,,,,,,,,,,,,,19,w,15,n,2019_Nov_22_1347,ec_RRR,3.0.4,60.02346917642285,
Hutter,Das Zielwesen für diese Aufgabe ist Golett:,"Also sobald Golett (sein Name oder sein Bild) auf dem Bildschirm erscheint, drücken Sie so schnell wie möglich die Leertaste. Drücken Sie die Leertaste, immer wenn Sie ein Bild von Golett oder das Wort GOLETT sehen. 

Drücken Sie die Leertaste, um die Aufgabe zu starten.",target1,stimuli/t1.jpg,15,52,stimuli/blank.jpg,blank,False,None,,,,,,,,,,,,,,0,0,0,0,,,,,0,1,1,0,0,51,51,51,,,,,,,,,,,,,,,,,,,,,,,,,,,,,,,,,,,,,,,,,,,,,,,,,,,,,CS1_USneg,None,1,,,,,,,,,,,,,,,,,,19,w,15,n,2019_Nov_22_1347,ec_RRR,3.0.4,60.02346917642285,
Hutter,Das Zielwesen für diese Aufgabe ist Golett:,"Also sobald Golett (sein Name oder sein Bild) auf dem Bildschirm erscheint, drücken Sie so schnell wie möglich die Leertaste. Drücken Sie die Leertaste, immer wenn Sie ein Bild von Golett oder das Wort GOLETT sehen. 

Drücken Sie die Leertaste, um die Aufgabe zu starten.",target1,stimuli/t1.jpg,15,53,stimuli/filler26.jpg,filler,False,None,,,,,,,,,,,,,,0,0,0,0,,,,,0,1,1,0,0,52,52,52,,,,,,,,,,,,,,,,,,,,,,,,,,,,,,,,,,,,,,,,,,,,,,,,,,,,,CS1_USneg,None,1,,,,,,,,,,,,,,,,,,19,w,15,n,2019_Nov_22_1347,ec_RRR,3.0.4,60.02346917642285,
Hutter,Das Zielwesen für diese Aufgabe ist Golett:,"Also sobald Golett (sein Name oder sein Bild) auf dem Bildschirm erscheint, drücken Sie so schnell wie möglich die Leertaste. Drücken Sie die Leertaste, immer wenn Sie ein Bild von Golett oder das Wort GOLETT sehen. 

Drücken Sie die Leertaste, um die Aufgabe zu starten.",target1,stimuli/t1.jpg,15,54,stimuli/filler20.jpg,filler,False,None,,,,,,,,,,,,,,0,0,0,0,,,,,0,1,1,0,0,53,53,53,,,,,,,,,,,,,,,,,,,,,,,,,,,,,,,,,,,,,,,,,,,,,,,,,,,,,CS1_USneg,None,1,,,,,,,,,,,,,,,,,,19,w,15,n,2019_Nov_22_1347,ec_RRR,3.0.4,60.02346917642285,
Hutter,Das Zielwesen für diese Aufgabe ist Golett:,"Also sobald Golett (sein Name oder sein Bild) auf dem Bildschirm erscheint, drücken Sie so schnell wie möglich die Leertaste. Drücken Sie die Leertaste, immer wenn Sie ein Bild von Golett oder das Wort GOLETT sehen. 

Drücken Sie die Leertaste, um die Aufgabe zu starten.",target1,stimuli/t1.jpg,15,55,stimuli/filler34.jpg,filler,False,None,,,,,,,,,,,,,,0,0,0,0,,,,,0,1,1,0,0,54,54,54,,,,,,,,,,,,,,,,,,,,,,,,,,,,,,,,,,,,,,,,,,,,,,,,,,,,,CS1_USneg,None,1,,,,,,,,,,,,,,,,,,19,w,15,n,2019_Nov_22_1347,ec_RRR,3.0.4,60.02346917642285,
Hutter,Das Zielwesen für diese Aufgabe ist Golett:,"Also sobald Golett (sein Name oder sein Bild) auf dem Bildschirm erscheint, drücken Sie so schnell wie möglich die Leertaste. Drücken Sie die Leertaste, immer wenn Sie ein Bild von Golett oder das Wort GOLETT sehen. 

Drücken Sie die Leertaste, um die Aufgabe zu starten.",target1,stimuli/t1.jpg,15,56,stimuli/filler37.jpg,filler,False,None,,,,,,,,,,,,,,0,0,0,0,,,,,0,1,1,0,0,55,55,55,,,,,,,,,,,,,,,,,,,,,,,,,,,,,,,,,,,,,,,,,,,,,,,,,,,,,CS1_USneg,None,1,,,,,,,,,,,,,,,,,,19,w,15,n,2019_Nov_22_1347,ec_RRR,3.0.4,60.02346917642285,
Hutter,Das Zielwesen für diese Aufgabe ist Golett:,"Also sobald Golett (sein Name oder sein Bild) auf dem Bildschirm erscheint, drücken Sie so schnell wie möglich die Leertaste. Drücken Sie die Leertaste, immer wenn Sie ein Bild von Golett oder das Wort GOLETT sehen. 

Drücken Sie die Leertaste, um die Aufgabe zu starten.",target1,stimuli/t1.jpg,15,57,stimuli/filler47.jpg,filler,False,None,,,,,,,,,,,,,,0,0,0,0,,,,,0,1,1,0,0,56,56,56,,,,,,,,,,,,,,,,,,,,,,,,,,,,,,,,,,,,,,,,,,,,,,,,,,,,,CS1_USneg,None,1,,,,,,,,,,,,,,,,,,19,w,15,n,2019_Nov_22_1347,ec_RRR,3.0.4,60.02346917642285,
Hutter,Das Zielwesen für diese Aufgabe ist Golett:,"Also sobald Golett (sein Name oder sein Bild) auf dem Bildschirm erscheint, drücken Sie so schnell wie möglich die Leertaste. Drücken Sie die Leertaste, immer wenn Sie ein Bild von Golett oder das Wort GOLETT sehen. 

Drücken Sie die Leertaste, um die Aufgabe zu starten.",target1,stimuli/t1.jpg,15,58,stimuli/filler23.jpg,filler,False,None,,,,,,,,,,,,,,0,0,0,0,,,,,0,1,1,0,0,57,57,57,,,,,,,,,,,,,,,,,,,,,,,,,,,,,,,,,,,,,,,,,,,,,,,,,,,,,CS1_USneg,None,1,,,,,,,,,,,,,,,,,,19,w,15,n,2019_Nov_22_1347,ec_RRR,3.0.4,60.02346917642285,
Hutter,Das Zielwesen für diese Aufgabe ist Golett:,"Also sobald Golett (sein Name oder sein Bild) auf dem Bildschirm erscheint, drücken Sie so schnell wie möglich die Leertaste. Drücken Sie die Leertaste, immer wenn Sie ein Bild von Golett oder das Wort GOLETT sehen. 

Drücken Sie die Leertaste, um die Aufgabe zu starten.",target1,stimuli/t1.jpg,15,59,stimuli/filler40.jpg,filler,False,None,,,,,,,,,,,,,,0,0,0,0,,,,,0,1,1,0,0,58,58,58,,,,,,,,,,,,,,,,,,,,,,,,,,,,,,,,,,,,,,,,,,,,,,,,,,,,,CS1_USneg,None,1,,,,,,,,,,,,,,,,,,19,w,15,n,2019_Nov_22_1347,ec_RRR,3.0.4,60.02346917642285,
Hutter,Das Zielwesen für diese Aufgabe ist Golett:,"Also sobald Golett (sein Name oder sein Bild) auf dem Bildschirm erscheint, drücken Sie so schnell wie möglich die Leertaste. Drücken Sie die Leertaste, immer wenn Sie ein Bild von Golett oder das Wort GOLETT sehen. 

Drücken Sie die Leertaste, um die Aufgabe zu starten.",target1,stimuli/t1.jpg,15,60,stimuli/blank.jpg,blank,False,None,,,,,,,,,,,,,,0,0,0,0,,,,,0,1,1,0,0,59,59,59,,,,,,,,,,,,,,,,,,,,,,,,,,,,,,,,,,,,,,,,,,,,,,,,,,,,,CS1_USneg,None,1,,,,,,,,,,,,,,,,,,19,w,15,n,2019_Nov_22_1347,ec_RRR,3.0.4,60.02346917642285,
Hutter,Das Zielwesen für diese Aufgabe ist Golett:,"Also sobald Golett (sein Name oder sein Bild) auf dem Bildschirm erscheint, drücken Sie so schnell wie möglich die Leertaste. Drücken Sie die Leertaste, immer wenn Sie ein Bild von Golett oder das Wort GOLETT sehen. 

Drücken Sie die Leertaste, um die Aufgabe zu starten.",target1,stimuli/t1.jpg,15,61,stimuli/cs2_pos10.jpg,CSUS,False,None,,,,,,,,,,,,,,0,0,0,0,,,,,0,1,1,0,0,60,60,60,,,,,,,,,,,,,,,,,,,,,,,,,,,,,,,,,,,,,,,,,,,,,,,,,,,,,CS1_USneg,None,1,,,,,,,,,,,,,,,,,,19,w,15,n,2019_Nov_22_1347,ec_RRR,3.0.4,60.02346917642285,
Hutter,Das Zielwesen für diese Aufgabe ist Golett:,"Also sobald Golett (sein Name oder sein Bild) auf dem Bildschirm erscheint, drücken Sie so schnell wie möglich die Leertaste. Drücken Sie die Leertaste, immer wenn Sie ein Bild von Golett oder das Wort GOLETT sehen. 

Drücken Sie die Leertaste, um die Aufgabe zu starten.",target1,stimuli/t1.jpg,15,62,stimuli/blank.jpg,blank,False,None,,,,,,,,,,,,,,0,0,0,0,,,,,0,1,1,0,0,61,61,61,,,,,,,,,,,,,,,,,,,,,,,,,,,,,,,,,,,,,,,,,,,,,,,,,,,,,CS1_USneg,None,1,,,,,,,,,,,,,,,,,,19,w,15,n,2019_Nov_22_1347,ec_RRR,3.0.4,60.02346917642285,
Hutter,Das Zielwesen für diese Aufgabe ist Golett:,"Also sobald Golett (sein Name oder sein Bild) auf dem Bildschirm erscheint, drücken Sie so schnell wie möglich die Leertaste. Drücken Sie die Leertaste, immer wenn Sie ein Bild von Golett oder das Wort GOLETT sehen. 

Drücken Sie die Leertaste, um die Aufgabe zu starten.",target1,stimuli/t1.jpg,15,63,stimuli/filler35.jpg,filler,False,None,,,,,,,,,,,,,,0,0,0,0,,,,,0,1,1,0,0,62,62,62,,,,,,,,,,,,,,,,,,,,,,,,,,,,,,,,,,,,,,,,,,,,,,,,,,,,,CS1_USneg,None,1,,,,,,,,,,,,,,,,,,19,w,15,n,2019_Nov_22_1347,ec_RRR,3.0.4,60.02346917642285,
Hutter,Das Zielwesen für diese Aufgabe ist Golett:,"Also sobald Golett (sein Name oder sein Bild) auf dem Bildschirm erscheint, drücken Sie so schnell wie möglich die Leertaste. Drücken Sie die Leertaste, immer wenn Sie ein Bild von Golett oder das Wort GOLETT sehen. 

Drücken Sie die Leertaste, um die Aufgabe zu starten.",target1,stimuli/t1.jpg,15,64,stimuli/filler41.jpg,filler,False,None,,,,,,,,,,,,,,0,0,0,0,,,,,0,1,1,0,0,63,63,63,,,,,,,,,,,,,,,,,,,,,,,,,,,,,,,,,,,,,,,,,,,,,,,,,,,,,CS1_USneg,None,1,,,,,,,,,,,,,,,,,,19,w,15,n,2019_Nov_22_1347,ec_RRR,3.0.4,60.02346917642285,
Hutter,Das Zielwesen für diese Aufgabe ist Golett:,"Also sobald Golett (sein Name oder sein Bild) auf dem Bildschirm erscheint, drücken Sie so schnell wie möglich die Leertaste. Drücken Sie die Leertaste, immer wenn Sie ein Bild von Golett oder das Wort GOLETT sehen. 

Drücken Sie die Leertaste, um die Aufgabe zu starten.",target1,stimuli/t1.jpg,15,65,stimuli/filler12.jpg,filler,False,None,,,,,,,,,,,,,,0,0,0,0,,,,,0,1,1,0,0,64,64,64,,,,,,,,,,,,,,,,,,,,,,,,,,,,,,,,,,,,,,,,,,,,,,,,,,,,,CS1_USneg,None,1,,,,,,,,,,,,,,,,,,19,w,15,n,2019_Nov_22_1347,ec_RRR,3.0.4,60.02346917642285,
Hutter,Das Zielwesen für diese Aufgabe ist Golett:,"Also sobald Golett (sein Name oder sein Bild) auf dem Bildschirm erscheint, drücken Sie so schnell wie möglich die Leertaste. Drücken Sie die Leertaste, immer wenn Sie ein Bild von Golett oder das Wort GOLETT sehen. 

Drücken Sie die Leertaste, um die Aufgabe zu starten.",target1,stimuli/t1.jpg,15,66,stimuli/filler38.jpg,filler,False,None,,,,,,,,,,,,,,0,0,0,0,,,,,0,1,1,0,0,65,65,65,,,,,,,,,,,,,,,,,,,,,,,,,,,,,,,,,,,,,,,,,,,,,,,,,,,,,CS1_USneg,None,1,,,,,,,,,,,,,,,,,,19,w,15,n,2019_Nov_22_1347,ec_RRR,3.0.4,60.02346917642285,
Hutter,Das Zielwesen für diese Aufgabe ist Golett:,"Also sobald Golett (sein Name oder sein Bild) auf dem Bildschirm erscheint, drücken Sie so schnell wie möglich die Leertaste. Drücken Sie die Leertaste, immer wenn Sie ein Bild von Golett oder das Wort GOLETT sehen. 

Drücken Sie die Leertaste, um die Aufgabe zu starten.",target1,stimuli/t1.jpg,15,67,stimuli/filler1.jpg,filler,False,None,,,,,,,,,,,,,,0,0,0,0,,,,,0,1,1,0,0,66,66,66,,,,,,,,,,,,,,,,,,,,,,,,,,,,,,,,,,,,,,,,,,,,,,,,,,,,,CS1_USneg,None,1,,,,,,,,,,,,,,,,,,19,w,15,n,2019_Nov_22_1347,ec_RRR,3.0.4,60.02346917642285,
Hutter,Das Zielwesen für diese Aufgabe ist Golett:,"Also sobald Golett (sein Name oder sein Bild) auf dem Bildschirm erscheint, drücken Sie so schnell wie möglich die Leertaste. Drücken Sie die Leertaste, immer wenn Sie ein Bild von Golett oder das Wort GOLETT sehen. 

Drücken Sie die Leertaste, um die Aufgabe zu starten.",target1,stimuli/t1.jpg,15,68,stimuli/target1_4.jpg,target,True,space,,,,,,,,,,,,,,0,0,0,0,,,,,0,1,1,0,0,67,67,67,,,,,,,,,,,,,,,,,,,,,,,,,,,,,,,,,,,,,,,,,,,,,,,,,,,,,CS1_USneg,space,1,0.5737693999999465,,,,,,,,,,,,,,,,,19,w,15,n,2019_Nov_22_1347,ec_RRR,3.0.4,60.02346917642285,
Hutter,Das Zielwesen für diese Aufgabe ist Golett:,"Also sobald Golett (sein Name oder sein Bild) auf dem Bildschirm erscheint, drücken Sie so schnell wie möglich die Leertaste. Drücken Sie die Leertaste, immer wenn Sie ein Bild von Golett oder das Wort GOLETT sehen. 

Drücken Sie die Leertaste, um die Aufgabe zu starten.",target1,stimuli/t1.jpg,15,69,stimuli/target1_10.jpg,target,True,space,,,,,,,,,,,,,,0,0,0,0,,,,,0,1,1,0,0,68,68,68,,,,,,,,,,,,,,,,,,,,,,,,,,,,,,,,,,,,,,,,,,,,,,,,,,,,,CS1_USneg,space,1,0.5321622000001298,,,,,,,,,,,,,,,,,19,w,15,n,2019_Nov_22_1347,ec_RRR,3.0.4,60.02346917642285,
Hutter,Das Zielwesen für diese Aufgabe ist Golett:,"Also sobald Golett (sein Name oder sein Bild) auf dem Bildschirm erscheint, drücken Sie so schnell wie möglich die Leertaste. Drücken Sie die Leertaste, immer wenn Sie ein Bild von Golett oder das Wort GOLETT sehen. 

Drücken Sie die Leertaste, um die Aufgabe zu starten.",target1,stimuli/t1.jpg,15,70,stimuli/blank.jpg,blank,False,None,,,,,,,,,,,,,,0,0,0,0,,,,,0,1,1,0,0,69,69,69,,,,,,,,,,,,,,,,,,,,,,,,,,,,,,,,,,,,,,,,,,,,,,,,,,,,,CS1_USneg,None,1,,,,,,,,,,,,,,,,,,19,w,15,n,2019_Nov_22_1347,ec_RRR,3.0.4,60.02346917642285,
Hutter,Das Zielwesen für diese Aufgabe ist Golett:,"Also sobald Golett (sein Name oder sein Bild) auf dem Bildschirm erscheint, drücken Sie so schnell wie möglich die Leertaste. Drücken Sie die Leertaste, immer wenn Sie ein Bild von Golett oder das Wort GOLETT sehen. 

Drücken Sie die Leertaste, um die Aufgabe zu starten.",target1,stimuli/t1.jpg,15,71,stimuli/cs1_neg11.jpg,CSUS,False,None,,,,,,,,,,,,,,0,0,0,0,,,,,0,1,1,0,0,70,70,70,,,,,,,,,,,,,,,,,,,,,,,,,,,,,,,,,,,,,,,,,,,,,,,,,,,,,CS1_USneg,None,1,,,,,,,,,,,,,,,,,,19,w,15,n,2019_Nov_22_1347,ec_RRR,3.0.4,60.02346917642285,
Hutter,Das Zielwesen für diese Aufgabe ist Golett:,"Also sobald Golett (sein Name oder sein Bild) auf dem Bildschirm erscheint, drücken Sie so schnell wie möglich die Leertaste. Drücken Sie die Leertaste, immer wenn Sie ein Bild von Golett oder das Wort GOLETT sehen. 

Drücken Sie die Leertaste, um die Aufgabe zu starten.",target1,stimuli/t1.jpg,15,72,stimuli/blank.jpg,blank,False,None,,,,,,,,,,,,,,0,0,0,0,,,,,0,1,1,0,0,71,71,71,,,,,,,,,,,,,,,,,,,,,,,,,,,,,,,,,,,,,,,,,,,,,,,,,,,,,CS1_USneg,None,1,,,,,,,,,,,,,,,,,,19,w,15,n,2019_Nov_22_1347,ec_RRR,3.0.4,60.02346917642285,
Hutter,Das Zielwesen für diese Aufgabe ist Golett:,"Also sobald Golett (sein Name oder sein Bild) auf dem Bildschirm erscheint, drücken Sie so schnell wie möglich die Leertaste. Drücken Sie die Leertaste, immer wenn Sie ein Bild von Golett oder das Wort GOLETT sehen. 

Drücken Sie die Leertaste, um die Aufgabe zu starten.",target1,stimuli/t1.jpg,15,73,stimuli/filler6.jpg,filler,False,None,,,,,,,,,,,,,,0,0,0,0,,,,,0,1,1,0,0,72,72,72,,,,,,,,,,,,,,,,,,,,,,,,,,,,,,,,,,,,,,,,,,,,,,,,,,,,,CS1_USneg,None,1,,,,,,,,,,,,,,,,,,19,w,15,n,2019_Nov_22_1347,ec_RRR,3.0.4,60.02346917642285,
Hutter,Das Zielwesen für diese Aufgabe ist Golett:,"Also sobald Golett (sein Name oder sein Bild) auf dem Bildschirm erscheint, drücken Sie so schnell wie möglich die Leertaste. Drücken Sie die Leertaste, immer wenn Sie ein Bild von Golett oder das Wort GOLETT sehen. 

Drücken Sie die Leertaste, um die Aufgabe zu starten.",target1,stimuli/t1.jpg,15,74,stimuli/filler32.jpg,filler,False,None,,,,,,,,,,,,,,0,0,0,0,,,,,0,1,1,0,0,73,73,73,,,,,,,,,,,,,,,,,,,,,,,,,,,,,,,,,,,,,,,,,,,,,,,,,,,,,CS1_USneg,None,1,,,,,,,,,,,,,,,,,,19,w,15,n,2019_Nov_22_1347,ec_RRR,3.0.4,60.02346917642285,
Hutter,Das Zielwesen für diese Aufgabe ist Golett:,"Also sobald Golett (sein Name oder sein Bild) auf dem Bildschirm erscheint, drücken Sie so schnell wie möglich die Leertaste. Drücken Sie die Leertaste, immer wenn Sie ein Bild von Golett oder das Wort GOLETT sehen. 

Drücken Sie die Leertaste, um die Aufgabe zu starten.",target1,stimuli/t1.jpg,15,75,stimuli/filler49.jpg,filler,False,None,,,,,,,,,,,,,,0,0,0,0,,,,,0,1,1,0,0,74,74,74,,,,,,,,,,,,,,,,,,,,,,,,,,,,,,,,,,,,,,,,,,,,,,,,,,,,,CS1_USneg,None,1,,,,,,,,,,,,,,,,,,19,w,15,n,2019_Nov_22_1347,ec_RRR,3.0.4,60.02346917642285,
Hutter,Das Zielwesen für diese Aufgabe ist Golett:,"Also sobald Golett (sein Name oder sein Bild) auf dem Bildschirm erscheint, drücken Sie so schnell wie möglich die Leertaste. Drücken Sie die Leertaste, immer wenn Sie ein Bild von Golett oder das Wort GOLETT sehen. 

Drücken Sie die Leertaste, um die Aufgabe zu starten.",target1,stimuli/t1.jpg,15,76,stimuli/target1_7.jpg,target,True,space,,,,,,,,,,,,,,0,0,0,0,,,,,0,1,1,0,0,75,75,75,,,,,,,,,,,,,,,,,,,,,,,,,,,,,,,,,,,,,,,,,,,,,,,,,,,,,CS1_USneg,space,1,0.47235019999970973,,,,,,,,,,,,,,,,,19,w,15,n,2019_Nov_22_1347,ec_RRR,3.0.4,60.02346917642285,
Hutter,Das Zielwesen für diese Aufgabe ist Golett:,"Also sobald Golett (sein Name oder sein Bild) auf dem Bildschirm erscheint, drücken Sie so schnell wie möglich die Leertaste. Drücken Sie die Leertaste, immer wenn Sie ein Bild von Golett oder das Wort GOLETT sehen. 

Drücken Sie die Leertaste, um die Aufgabe zu starten.",target1,stimuli/t1.jpg,15,77,stimuli/target1_9.jpg,target,True,space,,,,,,,,,,,,,,0,0,0,0,,,,,0,1,1,0,0,76,76,76,,,,,,,,,,,,,,,,,,,,,,,,,,,,,,,,,,,,,,,,,,,,,,,,,,,,,CS1_USneg,space,1,0.8255648999997902,,,,,,,,,,,,,,,,,19,w,15,n,2019_Nov_22_1347,ec_RRR,3.0.4,60.02346917642285,
Hutter,Das Zielwesen für diese Aufgabe ist Golett:,"Also sobald Golett (sein Name oder sein Bild) auf dem Bildschirm erscheint, drücken Sie so schnell wie möglich die Leertaste. Drücken Sie die Leertaste, immer wenn Sie ein Bild von Golett oder das Wort GOLETT sehen. 

Drücken Sie die Leertaste, um die Aufgabe zu starten.",target1,stimuli/t1.jpg,15,78,stimuli/filler16.jpg,filler,False,None,,,,,,,,,,,,,,0,0,0,0,,,,,0,1,1,0,0,77,77,77,,,,,,,,,,,,,,,,,,,,,,,,,,,,,,,,,,,,,,,,,,,,,,,,,,,,,CS1_USneg,None,1,,,,,,,,,,,,,,,,,,19,w,15,n,2019_Nov_22_1347,ec_RRR,3.0.4,60.02346917642285,
