data_collection_site,instructions_text_top,instructions_text_bottom,block_id,example_image,participant,trial_number,stimulus,trial_type,target_trial,surveillance_correct_response,filler_1_items,filler_2_items,middle_text,left_text,right_text,evaluation_stimulus,left_stimulus,right_stimulus,evaluation_response_indicating_CS1_preferred,awareness_1_question_text,awareness_2a_question_text,awareness_2b_question_text,awareness_2_question_text,record_data_collection_site_variable.thisRepN,record_data_collection_site_variable.thisTrialN,record_data_collection_site_variable.thisN,record_data_collection_site_variable.thisIndex,surveillance_instructions_loop.thisRepN,surveillance_instructions_loop.thisTrialN,surveillance_instructions_loop.thisN,surveillance_instructions_loop.thisIndex,surveillance_blocks_loop.thisRepN,surveillance_blocks_loop.thisTrialN,surveillance_blocks_loop.thisN,surveillance_blocks_loop.thisIndex,surveillance_trials_loop.thisRepN,surveillance_trials_loop.thisTrialN,surveillance_trials_loop.thisN,surveillance_trials_loop.thisIndex,filler_1_instructions_loop.thisRepN,filler_1_instructions_loop.thisTrialN,filler_1_instructions_loop.thisN,filler_1_instructions_loop.thisIndex,filler_1_loop.thisRepN,filler_1_loop.thisTrialN,filler_1_loop.thisN,filler_1_loop.thisIndex,filler_2_instructions_loop.thisRepN,filler_2_instructions_loop.thisTrialN,filler_2_instructions_loop.thisN,filler_2_instructions_loop.thisIndex,filler_2_loop.thisRepN,filler_2_loop.thisTrialN,filler_2_loop.thisN,filler_2_loop.thisIndex,evaluation_instructions_loop.thisRepN,evaluation_instructions_loop.thisTrialN,evaluation_instructions_loop.thisN,evaluation_instructions_loop.thisIndex,evaluation_loop.thisRepN,evaluation_loop.thisTrialN,evaluation_loop.thisN,evaluation_loop.thisIndex,evaluation_trials.thisRepN,evaluation_trials.thisTrialN,evaluation_trials.thisN,evaluation_trials.thisIndex,awareness_instructions_loop.thisRepN,awareness_instructions_loop.thisTrialN,awareness_instructions_loop.thisN,awareness_instructions_loop.thisIndex,awareness_1_trials_loop.thisRepN,awareness_1_trials_loop.thisTrialN,awareness_1_trials_loop.thisN,awareness_1_trials_loop.thisIndex,awareness_2a_trials_loop.thisRepN,awareness_2a_trials_loop.thisTrialN,awareness_2a_trials_loop.thisN,awareness_2a_trials_loop.thisIndex,awareness_2b_trials_loop.thisRepN,awareness_2b_trials_loop.thisTrialN,awareness_2b_trials_loop.thisN,awareness_2b_trials_loop.thisIndex,awareness_2c_trials_loop.thisRepN,awareness_2c_trials_loop.thisTrialN,awareness_2c_trials_loop.thisN,awareness_2c_trials_loop.thisIndex,end_message_loop.thisRepN,end_message_loop.thisTrialN,end_message_loop.thisN,end_message_loop.thisIndex,condition,surveillance_response.keys,surveillance_response.corr,surveillance_response.rt,filler_1_rating.response,filler_1_rating.rt,filler_2_rating.response,filler_2_rating.rt,evaluation_response.keys,evaluation_response.corr,evaluation_response.rt,inputText,awareness_1_response.keys,awareness_1_response.rt,awareness_type_2a_rating.response,awareness_type_2a_rating.rt,awareness_type_2b_rating.response,awareness_type_2b_rating.rt,awareness_type_2c_rating.response,awareness_type_2c_rating.rt,age,gender,participant,UseMonkey,date,expName,psychopyVersion,frameRate,
Hutter,Das Zielwesen für diese Aufgabe ist Zorua:,"Also sobald Zorua (sein Name oder sein Bild) auf dem Bildschirm erscheint, drücken Sie so schnell wie möglich die Leertaste. Drücken Sie die Leertaste, immer wenn Sie ein Bild von Zorua oder das Wort ZORUA sehen. 

Drücken Sie die Leertaste, um die Aufgabe zu starten.",target2,stimuli/t2.jpg,6,1,stimuli/filler31.jpg,filler,False,None,,,,,,,,,,,,,,0,0,0,0,,,,,0,0,0,1,0,0,0,0,,,,,,,,,,,,,,,,,,,,,,,,,,,,,,,,,,,,,,,,,,,,,,,,,,,,,CS1_USneg,None,1,,,,,,,,,,,,,,,,,,19,w,6,n,2019_Nov_20_1102,ec_RRR,3.0.4,59.99448050777994,
Hutter,Das Zielwesen für diese Aufgabe ist Zorua:,"Also sobald Zorua (sein Name oder sein Bild) auf dem Bildschirm erscheint, drücken Sie so schnell wie möglich die Leertaste. Drücken Sie die Leertaste, immer wenn Sie ein Bild von Zorua oder das Wort ZORUA sehen. 

Drücken Sie die Leertaste, um die Aufgabe zu starten.",target2,stimuli/t2.jpg,6,2,stimuli/filler36.jpg,filler,False,None,,,,,,,,,,,,,,0,0,0,0,,,,,0,0,0,1,0,1,1,1,,,,,,,,,,,,,,,,,,,,,,,,,,,,,,,,,,,,,,,,,,,,,,,,,,,,,CS1_USneg,None,1,,,,,,,,,,,,,,,,,,19,w,6,n,2019_Nov_20_1102,ec_RRR,3.0.4,59.99448050777994,
Hutter,Das Zielwesen für diese Aufgabe ist Zorua:,"Also sobald Zorua (sein Name oder sein Bild) auf dem Bildschirm erscheint, drücken Sie so schnell wie möglich die Leertaste. Drücken Sie die Leertaste, immer wenn Sie ein Bild von Zorua oder das Wort ZORUA sehen. 

Drücken Sie die Leertaste, um die Aufgabe zu starten.",target2,stimuli/t2.jpg,6,3,stimuli/filler32.jpg,filler,False,None,,,,,,,,,,,,,,0,0,0,0,,,,,0,0,0,1,0,2,2,2,,,,,,,,,,,,,,,,,,,,,,,,,,,,,,,,,,,,,,,,,,,,,,,,,,,,,CS1_USneg,None,1,,,,,,,,,,,,,,,,,,19,w,6,n,2019_Nov_20_1102,ec_RRR,3.0.4,59.99448050777994,
Hutter,Das Zielwesen für diese Aufgabe ist Zorua:,"Also sobald Zorua (sein Name oder sein Bild) auf dem Bildschirm erscheint, drücken Sie so schnell wie möglich die Leertaste. Drücken Sie die Leertaste, immer wenn Sie ein Bild von Zorua oder das Wort ZORUA sehen. 

Drücken Sie die Leertaste, um die Aufgabe zu starten.",target2,stimuli/t2.jpg,6,4,stimuli/target2_1.jpg,target,True,space,,,,,,,,,,,,,,0,0,0,0,,,,,0,0,0,1,0,3,3,3,,,,,,,,,,,,,,,,,,,,,,,,,,,,,,,,,,,,,,,,,,,,,,,,,,,,,CS1_USneg,space,1,0.46027959999992163,,,,,,,,,,,,,,,,,19,w,6,n,2019_Nov_20_1102,ec_RRR,3.0.4,59.99448050777994,
Hutter,Das Zielwesen für diese Aufgabe ist Zorua:,"Also sobald Zorua (sein Name oder sein Bild) auf dem Bildschirm erscheint, drücken Sie so schnell wie möglich die Leertaste. Drücken Sie die Leertaste, immer wenn Sie ein Bild von Zorua oder das Wort ZORUA sehen. 

Drücken Sie die Leertaste, um die Aufgabe zu starten.",target2,stimuli/t2.jpg,6,5,stimuli/target2_10.jpg,target,True,space,,,,,,,,,,,,,,0,0,0,0,,,,,0,0,0,1,0,4,4,4,,,,,,,,,,,,,,,,,,,,,,,,,,,,,,,,,,,,,,,,,,,,,,,,,,,,,CS1_USneg,space,1,0.7084588000002441,,,,,,,,,,,,,,,,,19,w,6,n,2019_Nov_20_1102,ec_RRR,3.0.4,59.99448050777994,
Hutter,Das Zielwesen für diese Aufgabe ist Zorua:,"Also sobald Zorua (sein Name oder sein Bild) auf dem Bildschirm erscheint, drücken Sie so schnell wie möglich die Leertaste. Drücken Sie die Leertaste, immer wenn Sie ein Bild von Zorua oder das Wort ZORUA sehen. 

Drücken Sie die Leertaste, um die Aufgabe zu starten.",target2,stimuli/t2.jpg,6,6,stimuli/filler12.jpg,filler,False,None,,,,,,,,,,,,,,0,0,0,0,,,,,0,0,0,1,0,5,5,5,,,,,,,,,,,,,,,,,,,,,,,,,,,,,,,,,,,,,,,,,,,,,,,,,,,,,CS1_USneg,None,1,,,,,,,,,,,,,,,,,,19,w,6,n,2019_Nov_20_1102,ec_RRR,3.0.4,59.99448050777994,
Hutter,Das Zielwesen für diese Aufgabe ist Zorua:,"Also sobald Zorua (sein Name oder sein Bild) auf dem Bildschirm erscheint, drücken Sie so schnell wie möglich die Leertaste. Drücken Sie die Leertaste, immer wenn Sie ein Bild von Zorua oder das Wort ZORUA sehen. 

Drücken Sie die Leertaste, um die Aufgabe zu starten.",target2,stimuli/t2.jpg,6,7,stimuli/filler44.jpg,filler,False,None,,,,,,,,,,,,,,0,0,0,0,,,,,0,0,0,1,0,6,6,6,,,,,,,,,,,,,,,,,,,,,,,,,,,,,,,,,,,,,,,,,,,,,,,,,,,,,CS1_USneg,None,1,,,,,,,,,,,,,,,,,,19,w,6,n,2019_Nov_20_1102,ec_RRR,3.0.4,59.99448050777994,
Hutter,Das Zielwesen für diese Aufgabe ist Zorua:,"Also sobald Zorua (sein Name oder sein Bild) auf dem Bildschirm erscheint, drücken Sie so schnell wie möglich die Leertaste. Drücken Sie die Leertaste, immer wenn Sie ein Bild von Zorua oder das Wort ZORUA sehen. 

Drücken Sie die Leertaste, um die Aufgabe zu starten.",target2,stimuli/t2.jpg,6,8,stimuli/filler52.jpg,filler,False,None,,,,,,,,,,,,,,0,0,0,0,,,,,0,0,0,1,0,7,7,7,,,,,,,,,,,,,,,,,,,,,,,,,,,,,,,,,,,,,,,,,,,,,,,,,,,,,CS1_USneg,None,1,,,,,,,,,,,,,,,,,,19,w,6,n,2019_Nov_20_1102,ec_RRR,3.0.4,59.99448050777994,
Hutter,Das Zielwesen für diese Aufgabe ist Zorua:,"Also sobald Zorua (sein Name oder sein Bild) auf dem Bildschirm erscheint, drücken Sie so schnell wie möglich die Leertaste. Drücken Sie die Leertaste, immer wenn Sie ein Bild von Zorua oder das Wort ZORUA sehen. 

Drücken Sie die Leertaste, um die Aufgabe zu starten.",target2,stimuli/t2.jpg,6,9,stimuli/filler41.jpg,filler,False,None,,,,,,,,,,,,,,0,0,0,0,,,,,0,0,0,1,0,8,8,8,,,,,,,,,,,,,,,,,,,,,,,,,,,,,,,,,,,,,,,,,,,,,,,,,,,,,CS1_USneg,None,1,,,,,,,,,,,,,,,,,,19,w,6,n,2019_Nov_20_1102,ec_RRR,3.0.4,59.99448050777994,
Hutter,Das Zielwesen für diese Aufgabe ist Zorua:,"Also sobald Zorua (sein Name oder sein Bild) auf dem Bildschirm erscheint, drücken Sie so schnell wie möglich die Leertaste. Drücken Sie die Leertaste, immer wenn Sie ein Bild von Zorua oder das Wort ZORUA sehen. 

Drücken Sie die Leertaste, um die Aufgabe zu starten.",target2,stimuli/t2.jpg,6,10,stimuli/blank.jpg,blank,False,None,,,,,,,,,,,,,,0,0,0,0,,,,,0,0,0,1,0,9,9,9,,,,,,,,,,,,,,,,,,,,,,,,,,,,,,,,,,,,,,,,,,,,,,,,,,,,,CS1_USneg,None,1,,,,,,,,,,,,,,,,,,19,w,6,n,2019_Nov_20_1102,ec_RRR,3.0.4,59.99448050777994,
Hutter,Das Zielwesen für diese Aufgabe ist Zorua:,"Also sobald Zorua (sein Name oder sein Bild) auf dem Bildschirm erscheint, drücken Sie so schnell wie möglich die Leertaste. Drücken Sie die Leertaste, immer wenn Sie ein Bild von Zorua oder das Wort ZORUA sehen. 

Drücken Sie die Leertaste, um die Aufgabe zu starten.",target2,stimuli/t2.jpg,6,11,stimuli/cs1_neg4.jpg,CSUS,False,None,,,,,,,,,,,,,,0,0,0,0,,,,,0,0,0,1,0,10,10,10,,,,,,,,,,,,,,,,,,,,,,,,,,,,,,,,,,,,,,,,,,,,,,,,,,,,,CS1_USneg,None,1,,,,,,,,,,,,,,,,,,19,w,6,n,2019_Nov_20_1102,ec_RRR,3.0.4,59.99448050777994,
Hutter,Das Zielwesen für diese Aufgabe ist Zorua:,"Also sobald Zorua (sein Name oder sein Bild) auf dem Bildschirm erscheint, drücken Sie so schnell wie möglich die Leertaste. Drücken Sie die Leertaste, immer wenn Sie ein Bild von Zorua oder das Wort ZORUA sehen. 

Drücken Sie die Leertaste, um die Aufgabe zu starten.",target2,stimuli/t2.jpg,6,12,stimuli/blank.jpg,blank,False,None,,,,,,,,,,,,,,0,0,0,0,,,,,0,0,0,1,0,11,11,11,,,,,,,,,,,,,,,,,,,,,,,,,,,,,,,,,,,,,,,,,,,,,,,,,,,,,CS1_USneg,None,1,,,,,,,,,,,,,,,,,,19,w,6,n,2019_Nov_20_1102,ec_RRR,3.0.4,59.99448050777994,
Hutter,Das Zielwesen für diese Aufgabe ist Zorua:,"Also sobald Zorua (sein Name oder sein Bild) auf dem Bildschirm erscheint, drücken Sie so schnell wie möglich die Leertaste. Drücken Sie die Leertaste, immer wenn Sie ein Bild von Zorua oder das Wort ZORUA sehen. 

Drücken Sie die Leertaste, um die Aufgabe zu starten.",target2,stimuli/t2.jpg,6,13,stimuli/filler40.jpg,filler,False,None,,,,,,,,,,,,,,0,0,0,0,,,,,0,0,0,1,0,12,12,12,,,,,,,,,,,,,,,,,,,,,,,,,,,,,,,,,,,,,,,,,,,,,,,,,,,,,CS1_USneg,None,1,,,,,,,,,,,,,,,,,,19,w,6,n,2019_Nov_20_1102,ec_RRR,3.0.4,59.99448050777994,
Hutter,Das Zielwesen für diese Aufgabe ist Zorua:,"Also sobald Zorua (sein Name oder sein Bild) auf dem Bildschirm erscheint, drücken Sie so schnell wie möglich die Leertaste. Drücken Sie die Leertaste, immer wenn Sie ein Bild von Zorua oder das Wort ZORUA sehen. 

Drücken Sie die Leertaste, um die Aufgabe zu starten.",target2,stimuli/t2.jpg,6,14,stimuli/filler6.jpg,filler,False,None,,,,,,,,,,,,,,0,0,0,0,,,,,0,0,0,1,0,13,13,13,,,,,,,,,,,,,,,,,,,,,,,,,,,,,,,,,,,,,,,,,,,,,,,,,,,,,CS1_USneg,None,1,,,,,,,,,,,,,,,,,,19,w,6,n,2019_Nov_20_1102,ec_RRR,3.0.4,59.99448050777994,
Hutter,Das Zielwesen für diese Aufgabe ist Zorua:,"Also sobald Zorua (sein Name oder sein Bild) auf dem Bildschirm erscheint, drücken Sie so schnell wie möglich die Leertaste. Drücken Sie die Leertaste, immer wenn Sie ein Bild von Zorua oder das Wort ZORUA sehen. 

Drücken Sie die Leertaste, um die Aufgabe zu starten.",target2,stimuli/t2.jpg,6,15,stimuli/target2_7.jpg,target,True,space,,,,,,,,,,,,,,0,0,0,0,,,,,0,0,0,1,0,14,14,14,,,,,,,,,,,,,,,,,,,,,,,,,,,,,,,,,,,,,,,,,,,,,,,,,,,,,CS1_USneg,space,1,0.6398933000000397,,,,,,,,,,,,,,,,,19,w,6,n,2019_Nov_20_1102,ec_RRR,3.0.4,59.99448050777994,
Hutter,Das Zielwesen für diese Aufgabe ist Zorua:,"Also sobald Zorua (sein Name oder sein Bild) auf dem Bildschirm erscheint, drücken Sie so schnell wie möglich die Leertaste. Drücken Sie die Leertaste, immer wenn Sie ein Bild von Zorua oder das Wort ZORUA sehen. 

Drücken Sie die Leertaste, um die Aufgabe zu starten.",target2,stimuli/t2.jpg,6,16,stimuli/target2_6.jpg,target,True,space,,,,,,,,,,,,,,0,0,0,0,,,,,0,0,0,1,0,15,15,15,,,,,,,,,,,,,,,,,,,,,,,,,,,,,,,,,,,,,,,,,,,,,,,,,,,,,CS1_USneg,space,1,0.673897599999691,,,,,,,,,,,,,,,,,19,w,6,n,2019_Nov_20_1102,ec_RRR,3.0.4,59.99448050777994,
Hutter,Das Zielwesen für diese Aufgabe ist Zorua:,"Also sobald Zorua (sein Name oder sein Bild) auf dem Bildschirm erscheint, drücken Sie so schnell wie möglich die Leertaste. Drücken Sie die Leertaste, immer wenn Sie ein Bild von Zorua oder das Wort ZORUA sehen. 

Drücken Sie die Leertaste, um die Aufgabe zu starten.",target2,stimuli/t2.jpg,6,17,stimuli/filler15.jpg,filler,False,None,,,,,,,,,,,,,,0,0,0,0,,,,,0,0,0,1,0,16,16,16,,,,,,,,,,,,,,,,,,,,,,,,,,,,,,,,,,,,,,,,,,,,,,,,,,,,,CS1_USneg,None,1,,,,,,,,,,,,,,,,,,19,w,6,n,2019_Nov_20_1102,ec_RRR,3.0.4,59.99448050777994,
Hutter,Das Zielwesen für diese Aufgabe ist Zorua:,"Also sobald Zorua (sein Name oder sein Bild) auf dem Bildschirm erscheint, drücken Sie so schnell wie möglich die Leertaste. Drücken Sie die Leertaste, immer wenn Sie ein Bild von Zorua oder das Wort ZORUA sehen. 

Drücken Sie die Leertaste, um die Aufgabe zu starten.",target2,stimuli/t2.jpg,6,18,stimuli/filler25.jpg,filler,False,None,,,,,,,,,,,,,,0,0,0,0,,,,,0,0,0,1,0,17,17,17,,,,,,,,,,,,,,,,,,,,,,,,,,,,,,,,,,,,,,,,,,,,,,,,,,,,,CS1_USneg,None,1,,,,,,,,,,,,,,,,,,19,w,6,n,2019_Nov_20_1102,ec_RRR,3.0.4,59.99448050777994,
Hutter,Das Zielwesen für diese Aufgabe ist Zorua:,"Also sobald Zorua (sein Name oder sein Bild) auf dem Bildschirm erscheint, drücken Sie so schnell wie möglich die Leertaste. Drücken Sie die Leertaste, immer wenn Sie ein Bild von Zorua oder das Wort ZORUA sehen. 

Drücken Sie die Leertaste, um die Aufgabe zu starten.",target2,stimuli/t2.jpg,6,19,stimuli/filler48.jpg,filler,False,None,,,,,,,,,,,,,,0,0,0,0,,,,,0,0,0,1,0,18,18,18,,,,,,,,,,,,,,,,,,,,,,,,,,,,,,,,,,,,,,,,,,,,,,,,,,,,,CS1_USneg,None,1,,,,,,,,,,,,,,,,,,19,w,6,n,2019_Nov_20_1102,ec_RRR,3.0.4,59.99448050777994,
Hutter,Das Zielwesen für diese Aufgabe ist Zorua:,"Also sobald Zorua (sein Name oder sein Bild) auf dem Bildschirm erscheint, drücken Sie so schnell wie möglich die Leertaste. Drücken Sie die Leertaste, immer wenn Sie ein Bild von Zorua oder das Wort ZORUA sehen. 

Drücken Sie die Leertaste, um die Aufgabe zu starten.",target2,stimuli/t2.jpg,6,20,stimuli/blank.jpg,blank,False,None,,,,,,,,,,,,,,0,0,0,0,,,,,0,0,0,1,0,19,19,19,,,,,,,,,,,,,,,,,,,,,,,,,,,,,,,,,,,,,,,,,,,,,,,,,,,,,CS1_USneg,None,1,,,,,,,,,,,,,,,,,,19,w,6,n,2019_Nov_20_1102,ec_RRR,3.0.4,59.99448050777994,
Hutter,Das Zielwesen für diese Aufgabe ist Zorua:,"Also sobald Zorua (sein Name oder sein Bild) auf dem Bildschirm erscheint, drücken Sie so schnell wie möglich die Leertaste. Drücken Sie die Leertaste, immer wenn Sie ein Bild von Zorua oder das Wort ZORUA sehen. 

Drücken Sie die Leertaste, um die Aufgabe zu starten.",target2,stimuli/t2.jpg,6,21,stimuli/cs2_pos7.jpg,CSUS,False,None,,,,,,,,,,,,,,0,0,0,0,,,,,0,0,0,1,0,20,20,20,,,,,,,,,,,,,,,,,,,,,,,,,,,,,,,,,,,,,,,,,,,,,,,,,,,,,CS1_USneg,None,1,,,,,,,,,,,,,,,,,,19,w,6,n,2019_Nov_20_1102,ec_RRR,3.0.4,59.99448050777994,
Hutter,Das Zielwesen für diese Aufgabe ist Zorua:,"Also sobald Zorua (sein Name oder sein Bild) auf dem Bildschirm erscheint, drücken Sie so schnell wie möglich die Leertaste. Drücken Sie die Leertaste, immer wenn Sie ein Bild von Zorua oder das Wort ZORUA sehen. 

Drücken Sie die Leertaste, um die Aufgabe zu starten.",target2,stimuli/t2.jpg,6,22,stimuli/blank.jpg,blank,False,None,,,,,,,,,,,,,,0,0,0,0,,,,,0,0,0,1,0,21,21,21,,,,,,,,,,,,,,,,,,,,,,,,,,,,,,,,,,,,,,,,,,,,,,,,,,,,,CS1_USneg,None,1,,,,,,,,,,,,,,,,,,19,w,6,n,2019_Nov_20_1102,ec_RRR,3.0.4,59.99448050777994,
Hutter,Das Zielwesen für diese Aufgabe ist Zorua:,"Also sobald Zorua (sein Name oder sein Bild) auf dem Bildschirm erscheint, drücken Sie so schnell wie möglich die Leertaste. Drücken Sie die Leertaste, immer wenn Sie ein Bild von Zorua oder das Wort ZORUA sehen. 

Drücken Sie die Leertaste, um die Aufgabe zu starten.",target2,stimuli/t2.jpg,6,23,stimuli/filler51.jpg,filler,False,None,,,,,,,,,,,,,,0,0,0,0,,,,,0,0,0,1,0,22,22,22,,,,,,,,,,,,,,,,,,,,,,,,,,,,,,,,,,,,,,,,,,,,,,,,,,,,,CS1_USneg,None,1,,,,,,,,,,,,,,,,,,19,w,6,n,2019_Nov_20_1102,ec_RRR,3.0.4,59.99448050777994,
Hutter,Das Zielwesen für diese Aufgabe ist Zorua:,"Also sobald Zorua (sein Name oder sein Bild) auf dem Bildschirm erscheint, drücken Sie so schnell wie möglich die Leertaste. Drücken Sie die Leertaste, immer wenn Sie ein Bild von Zorua oder das Wort ZORUA sehen. 

Drücken Sie die Leertaste, um die Aufgabe zu starten.",target2,stimuli/t2.jpg,6,24,stimuli/filler7.jpg,filler,False,None,,,,,,,,,,,,,,0,0,0,0,,,,,0,0,0,1,0,23,23,23,,,,,,,,,,,,,,,,,,,,,,,,,,,,,,,,,,,,,,,,,,,,,,,,,,,,,CS1_USneg,None,1,,,,,,,,,,,,,,,,,,19,w,6,n,2019_Nov_20_1102,ec_RRR,3.0.4,59.99448050777994,
Hutter,Das Zielwesen für diese Aufgabe ist Zorua:,"Also sobald Zorua (sein Name oder sein Bild) auf dem Bildschirm erscheint, drücken Sie so schnell wie möglich die Leertaste. Drücken Sie die Leertaste, immer wenn Sie ein Bild von Zorua oder das Wort ZORUA sehen. 

Drücken Sie die Leertaste, um die Aufgabe zu starten.",target2,stimuli/t2.jpg,6,25,stimuli/filler18.jpg,filler,False,None,,,,,,,,,,,,,,0,0,0,0,,,,,0,0,0,1,0,24,24,24,,,,,,,,,,,,,,,,,,,,,,,,,,,,,,,,,,,,,,,,,,,,,,,,,,,,,CS1_USneg,None,1,,,,,,,,,,,,,,,,,,19,w,6,n,2019_Nov_20_1102,ec_RRR,3.0.4,59.99448050777994,
Hutter,Das Zielwesen für diese Aufgabe ist Zorua:,"Also sobald Zorua (sein Name oder sein Bild) auf dem Bildschirm erscheint, drücken Sie so schnell wie möglich die Leertaste. Drücken Sie die Leertaste, immer wenn Sie ein Bild von Zorua oder das Wort ZORUA sehen. 

Drücken Sie die Leertaste, um die Aufgabe zu starten.",target2,stimuli/t2.jpg,6,26,stimuli/filler38.jpg,filler,False,None,,,,,,,,,,,,,,0,0,0,0,,,,,0,0,0,1,0,25,25,25,,,,,,,,,,,,,,,,,,,,,,,,,,,,,,,,,,,,,,,,,,,,,,,,,,,,,CS1_USneg,None,1,,,,,,,,,,,,,,,,,,19,w,6,n,2019_Nov_20_1102,ec_RRR,3.0.4,59.99448050777994,
Hutter,Das Zielwesen für diese Aufgabe ist Zorua:,"Also sobald Zorua (sein Name oder sein Bild) auf dem Bildschirm erscheint, drücken Sie so schnell wie möglich die Leertaste. Drücken Sie die Leertaste, immer wenn Sie ein Bild von Zorua oder das Wort ZORUA sehen. 

Drücken Sie die Leertaste, um die Aufgabe zu starten.",target2,stimuli/t2.jpg,6,27,stimuli/filler4.jpg,filler,False,None,,,,,,,,,,,,,,0,0,0,0,,,,,0,0,0,1,0,26,26,26,,,,,,,,,,,,,,,,,,,,,,,,,,,,,,,,,,,,,,,,,,,,,,,,,,,,,CS1_USneg,None,1,,,,,,,,,,,,,,,,,,19,w,6,n,2019_Nov_20_1102,ec_RRR,3.0.4,59.99448050777994,
Hutter,Das Zielwesen für diese Aufgabe ist Zorua:,"Also sobald Zorua (sein Name oder sein Bild) auf dem Bildschirm erscheint, drücken Sie so schnell wie möglich die Leertaste. Drücken Sie die Leertaste, immer wenn Sie ein Bild von Zorua oder das Wort ZORUA sehen. 

Drücken Sie die Leertaste, um die Aufgabe zu starten.",target2,stimuli/t2.jpg,6,28,stimuli/filler30.jpg,filler,False,None,,,,,,,,,,,,,,0,0,0,0,,,,,0,0,0,1,0,27,27,27,,,,,,,,,,,,,,,,,,,,,,,,,,,,,,,,,,,,,,,,,,,,,,,,,,,,,CS1_USneg,None,1,,,,,,,,,,,,,,,,,,19,w,6,n,2019_Nov_20_1102,ec_RRR,3.0.4,59.99448050777994,
Hutter,Das Zielwesen für diese Aufgabe ist Zorua:,"Also sobald Zorua (sein Name oder sein Bild) auf dem Bildschirm erscheint, drücken Sie so schnell wie möglich die Leertaste. Drücken Sie die Leertaste, immer wenn Sie ein Bild von Zorua oder das Wort ZORUA sehen. 

Drücken Sie die Leertaste, um die Aufgabe zu starten.",target2,stimuli/t2.jpg,6,29,stimuli/filler46.jpg,filler,False,None,,,,,,,,,,,,,,0,0,0,0,,,,,0,0,0,1,0,28,28,28,,,,,,,,,,,,,,,,,,,,,,,,,,,,,,,,,,,,,,,,,,,,,,,,,,,,,CS1_USneg,None,1,,,,,,,,,,,,,,,,,,19,w,6,n,2019_Nov_20_1102,ec_RRR,3.0.4,59.99448050777994,
Hutter,Das Zielwesen für diese Aufgabe ist Zorua:,"Also sobald Zorua (sein Name oder sein Bild) auf dem Bildschirm erscheint, drücken Sie so schnell wie möglich die Leertaste. Drücken Sie die Leertaste, immer wenn Sie ein Bild von Zorua oder das Wort ZORUA sehen. 

Drücken Sie die Leertaste, um die Aufgabe zu starten.",target2,stimuli/t2.jpg,6,30,stimuli/blank.jpg,blank,False,None,,,,,,,,,,,,,,0,0,0,0,,,,,0,0,0,1,0,29,29,29,,,,,,,,,,,,,,,,,,,,,,,,,,,,,,,,,,,,,,,,,,,,,,,,,,,,,CS1_USneg,None,1,,,,,,,,,,,,,,,,,,19,w,6,n,2019_Nov_20_1102,ec_RRR,3.0.4,59.99448050777994,
Hutter,Das Zielwesen für diese Aufgabe ist Zorua:,"Also sobald Zorua (sein Name oder sein Bild) auf dem Bildschirm erscheint, drücken Sie so schnell wie möglich die Leertaste. Drücken Sie die Leertaste, immer wenn Sie ein Bild von Zorua oder das Wort ZORUA sehen. 

Drücken Sie die Leertaste, um die Aufgabe zu starten.",target2,stimuli/t2.jpg,6,31,stimuli/cs1_neg1.jpg,CSUS,False,None,,,,,,,,,,,,,,0,0,0,0,,,,,0,0,0,1,0,30,30,30,,,,,,,,,,,,,,,,,,,,,,,,,,,,,,,,,,,,,,,,,,,,,,,,,,,,,CS1_USneg,None,1,,,,,,,,,,,,,,,,,,19,w,6,n,2019_Nov_20_1102,ec_RRR,3.0.4,59.99448050777994,
Hutter,Das Zielwesen für diese Aufgabe ist Zorua:,"Also sobald Zorua (sein Name oder sein Bild) auf dem Bildschirm erscheint, drücken Sie so schnell wie möglich die Leertaste. Drücken Sie die Leertaste, immer wenn Sie ein Bild von Zorua oder das Wort ZORUA sehen. 

Drücken Sie die Leertaste, um die Aufgabe zu starten.",target2,stimuli/t2.jpg,6,32,stimuli/blank.jpg,blank,False,None,,,,,,,,,,,,,,0,0,0,0,,,,,0,0,0,1,0,31,31,31,,,,,,,,,,,,,,,,,,,,,,,,,,,,,,,,,,,,,,,,,,,,,,,,,,,,,CS1_USneg,None,1,,,,,,,,,,,,,,,,,,19,w,6,n,2019_Nov_20_1102,ec_RRR,3.0.4,59.99448050777994,
Hutter,Das Zielwesen für diese Aufgabe ist Zorua:,"Also sobald Zorua (sein Name oder sein Bild) auf dem Bildschirm erscheint, drücken Sie so schnell wie möglich die Leertaste. Drücken Sie die Leertaste, immer wenn Sie ein Bild von Zorua oder das Wort ZORUA sehen. 

Drücken Sie die Leertaste, um die Aufgabe zu starten.",target2,stimuli/t2.jpg,6,33,stimuli/filler16.jpg,filler,False,None,,,,,,,,,,,,,,0,0,0,0,,,,,0,0,0,1,0,32,32,32,,,,,,,,,,,,,,,,,,,,,,,,,,,,,,,,,,,,,,,,,,,,,,,,,,,,,CS1_USneg,None,1,,,,,,,,,,,,,,,,,,19,w,6,n,2019_Nov_20_1102,ec_RRR,3.0.4,59.99448050777994,
Hutter,Das Zielwesen für diese Aufgabe ist Zorua:,"Also sobald Zorua (sein Name oder sein Bild) auf dem Bildschirm erscheint, drücken Sie so schnell wie möglich die Leertaste. Drücken Sie die Leertaste, immer wenn Sie ein Bild von Zorua oder das Wort ZORUA sehen. 

Drücken Sie die Leertaste, um die Aufgabe zu starten.",target2,stimuli/t2.jpg,6,34,stimuli/filler47.jpg,filler,False,None,,,,,,,,,,,,,,0,0,0,0,,,,,0,0,0,1,0,33,33,33,,,,,,,,,,,,,,,,,,,,,,,,,,,,,,,,,,,,,,,,,,,,,,,,,,,,,CS1_USneg,None,1,,,,,,,,,,,,,,,,,,19,w,6,n,2019_Nov_20_1102,ec_RRR,3.0.4,59.99448050777994,
Hutter,Das Zielwesen für diese Aufgabe ist Zorua:,"Also sobald Zorua (sein Name oder sein Bild) auf dem Bildschirm erscheint, drücken Sie so schnell wie möglich die Leertaste. Drücken Sie die Leertaste, immer wenn Sie ein Bild von Zorua oder das Wort ZORUA sehen. 

Drücken Sie die Leertaste, um die Aufgabe zu starten.",target2,stimuli/t2.jpg,6,35,stimuli/filler1.jpg,filler,False,None,,,,,,,,,,,,,,0,0,0,0,,,,,0,0,0,1,0,34,34,34,,,,,,,,,,,,,,,,,,,,,,,,,,,,,,,,,,,,,,,,,,,,,,,,,,,,,CS1_USneg,None,1,,,,,,,,,,,,,,,,,,19,w,6,n,2019_Nov_20_1102,ec_RRR,3.0.4,59.99448050777994,
Hutter,Das Zielwesen für diese Aufgabe ist Zorua:,"Also sobald Zorua (sein Name oder sein Bild) auf dem Bildschirm erscheint, drücken Sie so schnell wie möglich die Leertaste. Drücken Sie die Leertaste, immer wenn Sie ein Bild von Zorua oder das Wort ZORUA sehen. 

Drücken Sie die Leertaste, um die Aufgabe zu starten.",target2,stimuli/t2.jpg,6,36,stimuli/filler37.jpg,filler,False,None,,,,,,,,,,,,,,0,0,0,0,,,,,0,0,0,1,0,35,35,35,,,,,,,,,,,,,,,,,,,,,,,,,,,,,,,,,,,,,,,,,,,,,,,,,,,,,CS1_USneg,None,1,,,,,,,,,,,,,,,,,,19,w,6,n,2019_Nov_20_1102,ec_RRR,3.0.4,59.99448050777994,
Hutter,Das Zielwesen für diese Aufgabe ist Zorua:,"Also sobald Zorua (sein Name oder sein Bild) auf dem Bildschirm erscheint, drücken Sie so schnell wie möglich die Leertaste. Drücken Sie die Leertaste, immer wenn Sie ein Bild von Zorua oder das Wort ZORUA sehen. 

Drücken Sie die Leertaste, um die Aufgabe zu starten.",target2,stimuli/t2.jpg,6,37,stimuli/filler10.jpg,filler,False,None,,,,,,,,,,,,,,0,0,0,0,,,,,0,0,0,1,0,36,36,36,,,,,,,,,,,,,,,,,,,,,,,,,,,,,,,,,,,,,,,,,,,,,,,,,,,,,CS1_USneg,None,1,,,,,,,,,,,,,,,,,,19,w,6,n,2019_Nov_20_1102,ec_RRR,3.0.4,59.99448050777994,
Hutter,Das Zielwesen für diese Aufgabe ist Zorua:,"Also sobald Zorua (sein Name oder sein Bild) auf dem Bildschirm erscheint, drücken Sie so schnell wie möglich die Leertaste. Drücken Sie die Leertaste, immer wenn Sie ein Bild von Zorua oder das Wort ZORUA sehen. 

Drücken Sie die Leertaste, um die Aufgabe zu starten.",target2,stimuli/t2.jpg,6,38,stimuli/filler13.jpg,filler,False,None,,,,,,,,,,,,,,0,0,0,0,,,,,0,0,0,1,0,37,37,37,,,,,,,,,,,,,,,,,,,,,,,,,,,,,,,,,,,,,,,,,,,,,,,,,,,,,CS1_USneg,None,1,,,,,,,,,,,,,,,,,,19,w,6,n,2019_Nov_20_1102,ec_RRR,3.0.4,59.99448050777994,
Hutter,Das Zielwesen für diese Aufgabe ist Zorua:,"Also sobald Zorua (sein Name oder sein Bild) auf dem Bildschirm erscheint, drücken Sie so schnell wie möglich die Leertaste. Drücken Sie die Leertaste, immer wenn Sie ein Bild von Zorua oder das Wort ZORUA sehen. 

Drücken Sie die Leertaste, um die Aufgabe zu starten.",target2,stimuli/t2.jpg,6,39,stimuli/filler21.jpg,filler,False,None,,,,,,,,,,,,,,0,0,0,0,,,,,0,0,0,1,0,38,38,38,,,,,,,,,,,,,,,,,,,,,,,,,,,,,,,,,,,,,,,,,,,,,,,,,,,,,CS1_USneg,None,1,,,,,,,,,,,,,,,,,,19,w,6,n,2019_Nov_20_1102,ec_RRR,3.0.4,59.99448050777994,
Hutter,Das Zielwesen für diese Aufgabe ist Zorua:,"Also sobald Zorua (sein Name oder sein Bild) auf dem Bildschirm erscheint, drücken Sie so schnell wie möglich die Leertaste. Drücken Sie die Leertaste, immer wenn Sie ein Bild von Zorua oder das Wort ZORUA sehen. 

Drücken Sie die Leertaste, um die Aufgabe zu starten.",target2,stimuli/t2.jpg,6,40,stimuli/blank.jpg,blank,False,None,,,,,,,,,,,,,,0,0,0,0,,,,,0,0,0,1,0,39,39,39,,,,,,,,,,,,,,,,,,,,,,,,,,,,,,,,,,,,,,,,,,,,,,,,,,,,,CS1_USneg,None,1,,,,,,,,,,,,,,,,,,19,w,6,n,2019_Nov_20_1102,ec_RRR,3.0.4,59.99448050777994,
Hutter,Das Zielwesen für diese Aufgabe ist Zorua:,"Also sobald Zorua (sein Name oder sein Bild) auf dem Bildschirm erscheint, drücken Sie so schnell wie möglich die Leertaste. Drücken Sie die Leertaste, immer wenn Sie ein Bild von Zorua oder das Wort ZORUA sehen. 

Drücken Sie die Leertaste, um die Aufgabe zu starten.",target2,stimuli/t2.jpg,6,41,stimuli/cs2_pos16.jpg,CSUS,False,None,,,,,,,,,,,,,,0,0,0,0,,,,,0,0,0,1,0,40,40,40,,,,,,,,,,,,,,,,,,,,,,,,,,,,,,,,,,,,,,,,,,,,,,,,,,,,,CS1_USneg,None,1,,,,,,,,,,,,,,,,,,19,w,6,n,2019_Nov_20_1102,ec_RRR,3.0.4,59.99448050777994,
Hutter,Das Zielwesen für diese Aufgabe ist Zorua:,"Also sobald Zorua (sein Name oder sein Bild) auf dem Bildschirm erscheint, drücken Sie so schnell wie möglich die Leertaste. Drücken Sie die Leertaste, immer wenn Sie ein Bild von Zorua oder das Wort ZORUA sehen. 

Drücken Sie die Leertaste, um die Aufgabe zu starten.",target2,stimuli/t2.jpg,6,42,stimuli/blank.jpg,blank,False,None,,,,,,,,,,,,,,0,0,0,0,,,,,0,0,0,1,0,41,41,41,,,,,,,,,,,,,,,,,,,,,,,,,,,,,,,,,,,,,,,,,,,,,,,,,,,,,CS1_USneg,None,1,,,,,,,,,,,,,,,,,,19,w,6,n,2019_Nov_20_1102,ec_RRR,3.0.4,59.99448050777994,
Hutter,Das Zielwesen für diese Aufgabe ist Zorua:,"Also sobald Zorua (sein Name oder sein Bild) auf dem Bildschirm erscheint, drücken Sie so schnell wie möglich die Leertaste. Drücken Sie die Leertaste, immer wenn Sie ein Bild von Zorua oder das Wort ZORUA sehen. 

Drücken Sie die Leertaste, um die Aufgabe zu starten.",target2,stimuli/t2.jpg,6,43,stimuli/filler45.jpg,filler,False,None,,,,,,,,,,,,,,0,0,0,0,,,,,0,0,0,1,0,42,42,42,,,,,,,,,,,,,,,,,,,,,,,,,,,,,,,,,,,,,,,,,,,,,,,,,,,,,CS1_USneg,None,1,,,,,,,,,,,,,,,,,,19,w,6,n,2019_Nov_20_1102,ec_RRR,3.0.4,59.99448050777994,
Hutter,Das Zielwesen für diese Aufgabe ist Zorua:,"Also sobald Zorua (sein Name oder sein Bild) auf dem Bildschirm erscheint, drücken Sie so schnell wie möglich die Leertaste. Drücken Sie die Leertaste, immer wenn Sie ein Bild von Zorua oder das Wort ZORUA sehen. 

Drücken Sie die Leertaste, um die Aufgabe zu starten.",target2,stimuli/t2.jpg,6,44,stimuli/filler50.jpg,filler,False,None,,,,,,,,,,,,,,0,0,0,0,,,,,0,0,0,1,0,43,43,43,,,,,,,,,,,,,,,,,,,,,,,,,,,,,,,,,,,,,,,,,,,,,,,,,,,,,CS1_USneg,None,1,,,,,,,,,,,,,,,,,,19,w,6,n,2019_Nov_20_1102,ec_RRR,3.0.4,59.99448050777994,
Hutter,Das Zielwesen für diese Aufgabe ist Zorua:,"Also sobald Zorua (sein Name oder sein Bild) auf dem Bildschirm erscheint, drücken Sie so schnell wie möglich die Leertaste. Drücken Sie die Leertaste, immer wenn Sie ein Bild von Zorua oder das Wort ZORUA sehen. 

Drücken Sie die Leertaste, um die Aufgabe zu starten.",target2,stimuli/t2.jpg,6,45,stimuli/filler35.jpg,filler,False,None,,,,,,,,,,,,,,0,0,0,0,,,,,0,0,0,1,0,44,44,44,,,,,,,,,,,,,,,,,,,,,,,,,,,,,,,,,,,,,,,,,,,,,,,,,,,,,CS1_USneg,None,1,,,,,,,,,,,,,,,,,,19,w,6,n,2019_Nov_20_1102,ec_RRR,3.0.4,59.99448050777994,
Hutter,Das Zielwesen für diese Aufgabe ist Zorua:,"Also sobald Zorua (sein Name oder sein Bild) auf dem Bildschirm erscheint, drücken Sie so schnell wie möglich die Leertaste. Drücken Sie die Leertaste, immer wenn Sie ein Bild von Zorua oder das Wort ZORUA sehen. 

Drücken Sie die Leertaste, um die Aufgabe zu starten.",target2,stimuli/t2.jpg,6,46,stimuli/filler29.jpg,filler,False,None,,,,,,,,,,,,,,0,0,0,0,,,,,0,0,0,1,0,45,45,45,,,,,,,,,,,,,,,,,,,,,,,,,,,,,,,,,,,,,,,,,,,,,,,,,,,,,CS1_USneg,None,1,,,,,,,,,,,,,,,,,,19,w,6,n,2019_Nov_20_1102,ec_RRR,3.0.4,59.99448050777994,
Hutter,Das Zielwesen für diese Aufgabe ist Zorua:,"Also sobald Zorua (sein Name oder sein Bild) auf dem Bildschirm erscheint, drücken Sie so schnell wie möglich die Leertaste. Drücken Sie die Leertaste, immer wenn Sie ein Bild von Zorua oder das Wort ZORUA sehen. 

Drücken Sie die Leertaste, um die Aufgabe zu starten.",target2,stimuli/t2.jpg,6,47,stimuli/filler22.jpg,filler,False,None,,,,,,,,,,,,,,0,0,0,0,,,,,0,0,0,1,0,46,46,46,,,,,,,,,,,,,,,,,,,,,,,,,,,,,,,,,,,,,,,,,,,,,,,,,,,,,CS1_USneg,None,1,,,,,,,,,,,,,,,,,,19,w,6,n,2019_Nov_20_1102,ec_RRR,3.0.4,59.99448050777994,
Hutter,Das Zielwesen für diese Aufgabe ist Zorua:,"Also sobald Zorua (sein Name oder sein Bild) auf dem Bildschirm erscheint, drücken Sie so schnell wie möglich die Leertaste. Drücken Sie die Leertaste, immer wenn Sie ein Bild von Zorua oder das Wort ZORUA sehen. 

Drücken Sie die Leertaste, um die Aufgabe zu starten.",target2,stimuli/t2.jpg,6,48,stimuli/filler23.jpg,filler,False,None,,,,,,,,,,,,,,0,0,0,0,,,,,0,0,0,1,0,47,47,47,,,,,,,,,,,,,,,,,,,,,,,,,,,,,,,,,,,,,,,,,,,,,,,,,,,,,CS1_USneg,None,1,,,,,,,,,,,,,,,,,,19,w,6,n,2019_Nov_20_1102,ec_RRR,3.0.4,59.99448050777994,
Hutter,Das Zielwesen für diese Aufgabe ist Zorua:,"Also sobald Zorua (sein Name oder sein Bild) auf dem Bildschirm erscheint, drücken Sie so schnell wie möglich die Leertaste. Drücken Sie die Leertaste, immer wenn Sie ein Bild von Zorua oder das Wort ZORUA sehen. 

Drücken Sie die Leertaste, um die Aufgabe zu starten.",target2,stimuli/t2.jpg,6,49,stimuli/filler11.jpg,filler,False,None,,,,,,,,,,,,,,0,0,0,0,,,,,0,0,0,1,0,48,48,48,,,,,,,,,,,,,,,,,,,,,,,,,,,,,,,,,,,,,,,,,,,,,,,,,,,,,CS1_USneg,None,1,,,,,,,,,,,,,,,,,,19,w,6,n,2019_Nov_20_1102,ec_RRR,3.0.4,59.99448050777994,
Hutter,Das Zielwesen für diese Aufgabe ist Zorua:,"Also sobald Zorua (sein Name oder sein Bild) auf dem Bildschirm erscheint, drücken Sie so schnell wie möglich die Leertaste. Drücken Sie die Leertaste, immer wenn Sie ein Bild von Zorua oder das Wort ZORUA sehen. 

Drücken Sie die Leertaste, um die Aufgabe zu starten.",target2,stimuli/t2.jpg,6,50,stimuli/blank.jpg,blank,False,None,,,,,,,,,,,,,,0,0,0,0,,,,,0,0,0,1,0,49,49,49,,,,,,,,,,,,,,,,,,,,,,,,,,,,,,,,,,,,,,,,,,,,,,,,,,,,,CS1_USneg,None,1,,,,,,,,,,,,,,,,,,19,w,6,n,2019_Nov_20_1102,ec_RRR,3.0.4,59.99448050777994,
Hutter,Das Zielwesen für diese Aufgabe ist Zorua:,"Also sobald Zorua (sein Name oder sein Bild) auf dem Bildschirm erscheint, drücken Sie so schnell wie möglich die Leertaste. Drücken Sie die Leertaste, immer wenn Sie ein Bild von Zorua oder das Wort ZORUA sehen. 

Drücken Sie die Leertaste, um die Aufgabe zu starten.",target2,stimuli/t2.jpg,6,51,stimuli/cs1_neg13.jpg,CSUS,False,None,,,,,,,,,,,,,,0,0,0,0,,,,,0,0,0,1,0,50,50,50,,,,,,,,,,,,,,,,,,,,,,,,,,,,,,,,,,,,,,,,,,,,,,,,,,,,,CS1_USneg,None,1,,,,,,,,,,,,,,,,,,19,w,6,n,2019_Nov_20_1102,ec_RRR,3.0.4,59.99448050777994,
Hutter,Das Zielwesen für diese Aufgabe ist Zorua:,"Also sobald Zorua (sein Name oder sein Bild) auf dem Bildschirm erscheint, drücken Sie so schnell wie möglich die Leertaste. Drücken Sie die Leertaste, immer wenn Sie ein Bild von Zorua oder das Wort ZORUA sehen. 

Drücken Sie die Leertaste, um die Aufgabe zu starten.",target2,stimuli/t2.jpg,6,52,stimuli/blank.jpg,blank,False,None,,,,,,,,,,,,,,0,0,0,0,,,,,0,0,0,1,0,51,51,51,,,,,,,,,,,,,,,,,,,,,,,,,,,,,,,,,,,,,,,,,,,,,,,,,,,,,CS1_USneg,None,1,,,,,,,,,,,,,,,,,,19,w,6,n,2019_Nov_20_1102,ec_RRR,3.0.4,59.99448050777994,
Hutter,Das Zielwesen für diese Aufgabe ist Zorua:,"Also sobald Zorua (sein Name oder sein Bild) auf dem Bildschirm erscheint, drücken Sie so schnell wie möglich die Leertaste. Drücken Sie die Leertaste, immer wenn Sie ein Bild von Zorua oder das Wort ZORUA sehen. 

Drücken Sie die Leertaste, um die Aufgabe zu starten.",target2,stimuli/t2.jpg,6,53,stimuli/target2_2.jpg,target,True,space,,,,,,,,,,,,,,0,0,0,0,,,,,0,0,0,1,0,52,52,52,,,,,,,,,,,,,,,,,,,,,,,,,,,,,,,,,,,,,,,,,,,,,,,,,,,,,CS1_USneg,space,1,0.605942000000141,,,,,,,,,,,,,,,,,19,w,6,n,2019_Nov_20_1102,ec_RRR,3.0.4,59.99448050777994,
Hutter,Das Zielwesen für diese Aufgabe ist Zorua:,"Also sobald Zorua (sein Name oder sein Bild) auf dem Bildschirm erscheint, drücken Sie so schnell wie möglich die Leertaste. Drücken Sie die Leertaste, immer wenn Sie ein Bild von Zorua oder das Wort ZORUA sehen. 

Drücken Sie die Leertaste, um die Aufgabe zu starten.",target2,stimuli/t2.jpg,6,54,stimuli/filler28.jpg,filler,False,None,,,,,,,,,,,,,,0,0,0,0,,,,,0,0,0,1,0,53,53,53,,,,,,,,,,,,,,,,,,,,,,,,,,,,,,,,,,,,,,,,,,,,,,,,,,,,,CS1_USneg,None,1,,,,,,,,,,,,,,,,,,19,w,6,n,2019_Nov_20_1102,ec_RRR,3.0.4,59.99448050777994,
Hutter,Das Zielwesen für diese Aufgabe ist Zorua:,"Also sobald Zorua (sein Name oder sein Bild) auf dem Bildschirm erscheint, drücken Sie so schnell wie möglich die Leertaste. Drücken Sie die Leertaste, immer wenn Sie ein Bild von Zorua oder das Wort ZORUA sehen. 

Drücken Sie die Leertaste, um die Aufgabe zu starten.",target2,stimuli/t2.jpg,6,55,stimuli/filler26.jpg,filler,False,None,,,,,,,,,,,,,,0,0,0,0,,,,,0,0,0,1,0,54,54,54,,,,,,,,,,,,,,,,,,,,,,,,,,,,,,,,,,,,,,,,,,,,,,,,,,,,,CS1_USneg,None,1,,,,,,,,,,,,,,,,,,19,w,6,n,2019_Nov_20_1102,ec_RRR,3.0.4,59.99448050777994,
Hutter,Das Zielwesen für diese Aufgabe ist Zorua:,"Also sobald Zorua (sein Name oder sein Bild) auf dem Bildschirm erscheint, drücken Sie so schnell wie möglich die Leertaste. Drücken Sie die Leertaste, immer wenn Sie ein Bild von Zorua oder das Wort ZORUA sehen. 

Drücken Sie die Leertaste, um die Aufgabe zu starten.",target2,stimuli/t2.jpg,6,56,stimuli/filler27.jpg,filler,False,None,,,,,,,,,,,,,,0,0,0,0,,,,,0,0,0,1,0,55,55,55,,,,,,,,,,,,,,,,,,,,,,,,,,,,,,,,,,,,,,,,,,,,,,,,,,,,,CS1_USneg,None,1,,,,,,,,,,,,,,,,,,19,w,6,n,2019_Nov_20_1102,ec_RRR,3.0.4,59.99448050777994,
Hutter,Das Zielwesen für diese Aufgabe ist Zorua:,"Also sobald Zorua (sein Name oder sein Bild) auf dem Bildschirm erscheint, drücken Sie so schnell wie möglich die Leertaste. Drücken Sie die Leertaste, immer wenn Sie ein Bild von Zorua oder das Wort ZORUA sehen. 

Drücken Sie die Leertaste, um die Aufgabe zu starten.",target2,stimuli/t2.jpg,6,57,stimuli/filler3.jpg,filler,False,None,,,,,,,,,,,,,,0,0,0,0,,,,,0,0,0,1,0,56,56,56,,,,,,,,,,,,,,,,,,,,,,,,,,,,,,,,,,,,,,,,,,,,,,,,,,,,,CS1_USneg,None,1,,,,,,,,,,,,,,,,,,19,w,6,n,2019_Nov_20_1102,ec_RRR,3.0.4,59.99448050777994,
Hutter,Das Zielwesen für diese Aufgabe ist Zorua:,"Also sobald Zorua (sein Name oder sein Bild) auf dem Bildschirm erscheint, drücken Sie so schnell wie möglich die Leertaste. Drücken Sie die Leertaste, immer wenn Sie ein Bild von Zorua oder das Wort ZORUA sehen. 

Drücken Sie die Leertaste, um die Aufgabe zu starten.",target2,stimuli/t2.jpg,6,58,stimuli/target2_5.jpg,target,True,space,,,,,,,,,,,,,,0,0,0,0,,,,,0,0,0,1,0,57,57,57,,,,,,,,,,,,,,,,,,,,,,,,,,,,,,,,,,,,,,,,,,,,,,,,,,,,,CS1_USneg,space,1,0.7075349000001552,,,,,,,,,,,,,,,,,19,w,6,n,2019_Nov_20_1102,ec_RRR,3.0.4,59.99448050777994,
Hutter,Das Zielwesen für diese Aufgabe ist Zorua:,"Also sobald Zorua (sein Name oder sein Bild) auf dem Bildschirm erscheint, drücken Sie so schnell wie möglich die Leertaste. Drücken Sie die Leertaste, immer wenn Sie ein Bild von Zorua oder das Wort ZORUA sehen. 

Drücken Sie die Leertaste, um die Aufgabe zu starten.",target2,stimuli/t2.jpg,6,59,stimuli/filler42.jpg,filler,False,None,,,,,,,,,,,,,,0,0,0,0,,,,,0,0,0,1,0,58,58,58,,,,,,,,,,,,,,,,,,,,,,,,,,,,,,,,,,,,,,,,,,,,,,,,,,,,,CS1_USneg,None,1,,,,,,,,,,,,,,,,,,19,w,6,n,2019_Nov_20_1102,ec_RRR,3.0.4,59.99448050777994,
Hutter,Das Zielwesen für diese Aufgabe ist Zorua:,"Also sobald Zorua (sein Name oder sein Bild) auf dem Bildschirm erscheint, drücken Sie so schnell wie möglich die Leertaste. Drücken Sie die Leertaste, immer wenn Sie ein Bild von Zorua oder das Wort ZORUA sehen. 

Drücken Sie die Leertaste, um die Aufgabe zu starten.",target2,stimuli/t2.jpg,6,60,stimuli/blank.jpg,blank,False,None,,,,,,,,,,,,,,0,0,0,0,,,,,0,0,0,1,0,59,59,59,,,,,,,,,,,,,,,,,,,,,,,,,,,,,,,,,,,,,,,,,,,,,,,,,,,,,CS1_USneg,None,1,,,,,,,,,,,,,,,,,,19,w,6,n,2019_Nov_20_1102,ec_RRR,3.0.4,59.99448050777994,
Hutter,Das Zielwesen für diese Aufgabe ist Zorua:,"Also sobald Zorua (sein Name oder sein Bild) auf dem Bildschirm erscheint, drücken Sie so schnell wie möglich die Leertaste. Drücken Sie die Leertaste, immer wenn Sie ein Bild von Zorua oder das Wort ZORUA sehen. 

Drücken Sie die Leertaste, um die Aufgabe zu starten.",target2,stimuli/t2.jpg,6,61,stimuli/cs2_pos8.jpg,CSUS,False,None,,,,,,,,,,,,,,0,0,0,0,,,,,0,0,0,1,0,60,60,60,,,,,,,,,,,,,,,,,,,,,,,,,,,,,,,,,,,,,,,,,,,,,,,,,,,,,CS1_USneg,None,1,,,,,,,,,,,,,,,,,,19,w,6,n,2019_Nov_20_1102,ec_RRR,3.0.4,59.99448050777994,
Hutter,Das Zielwesen für diese Aufgabe ist Zorua:,"Also sobald Zorua (sein Name oder sein Bild) auf dem Bildschirm erscheint, drücken Sie so schnell wie möglich die Leertaste. Drücken Sie die Leertaste, immer wenn Sie ein Bild von Zorua oder das Wort ZORUA sehen. 

Drücken Sie die Leertaste, um die Aufgabe zu starten.",target2,stimuli/t2.jpg,6,62,stimuli/blank.jpg,blank,False,None,,,,,,,,,,,,,,0,0,0,0,,,,,0,0,0,1,0,61,61,61,,,,,,,,,,,,,,,,,,,,,,,,,,,,,,,,,,,,,,,,,,,,,,,,,,,,,CS1_USneg,None,1,,,,,,,,,,,,,,,,,,19,w,6,n,2019_Nov_20_1102,ec_RRR,3.0.4,59.99448050777994,
Hutter,Das Zielwesen für diese Aufgabe ist Zorua:,"Also sobald Zorua (sein Name oder sein Bild) auf dem Bildschirm erscheint, drücken Sie so schnell wie möglich die Leertaste. Drücken Sie die Leertaste, immer wenn Sie ein Bild von Zorua oder das Wort ZORUA sehen. 

Drücken Sie die Leertaste, um die Aufgabe zu starten.",target2,stimuli/t2.jpg,6,63,stimuli/filler43.jpg,filler,False,None,,,,,,,,,,,,,,0,0,0,0,,,,,0,0,0,1,0,62,62,62,,,,,,,,,,,,,,,,,,,,,,,,,,,,,,,,,,,,,,,,,,,,,,,,,,,,,CS1_USneg,None,1,,,,,,,,,,,,,,,,,,19,w,6,n,2019_Nov_20_1102,ec_RRR,3.0.4,59.99448050777994,
Hutter,Das Zielwesen für diese Aufgabe ist Zorua:,"Also sobald Zorua (sein Name oder sein Bild) auf dem Bildschirm erscheint, drücken Sie so schnell wie möglich die Leertaste. Drücken Sie die Leertaste, immer wenn Sie ein Bild von Zorua oder das Wort ZORUA sehen. 

Drücken Sie die Leertaste, um die Aufgabe zu starten.",target2,stimuli/t2.jpg,6,64,stimuli/filler33.jpg,filler,False,None,,,,,,,,,,,,,,0,0,0,0,,,,,0,0,0,1,0,63,63,63,,,,,,,,,,,,,,,,,,,,,,,,,,,,,,,,,,,,,,,,,,,,,,,,,,,,,CS1_USneg,None,1,,,,,,,,,,,,,,,,,,19,w,6,n,2019_Nov_20_1102,ec_RRR,3.0.4,59.99448050777994,
Hutter,Das Zielwesen für diese Aufgabe ist Zorua:,"Also sobald Zorua (sein Name oder sein Bild) auf dem Bildschirm erscheint, drücken Sie so schnell wie möglich die Leertaste. Drücken Sie die Leertaste, immer wenn Sie ein Bild von Zorua oder das Wort ZORUA sehen. 

Drücken Sie die Leertaste, um die Aufgabe zu starten.",target2,stimuli/t2.jpg,6,65,stimuli/target2_4.jpg,target,True,space,,,,,,,,,,,,,,0,0,0,0,,,,,0,0,0,1,0,64,64,64,,,,,,,,,,,,,,,,,,,,,,,,,,,,,,,,,,,,,,,,,,,,,,,,,,,,,CS1_USneg,None,0,,,,,,,,,,,,,,,,,,19,w,6,n,2019_Nov_20_1102,ec_RRR,3.0.4,59.99448050777994,
Hutter,Das Zielwesen für diese Aufgabe ist Zorua:,"Also sobald Zorua (sein Name oder sein Bild) auf dem Bildschirm erscheint, drücken Sie so schnell wie möglich die Leertaste. Drücken Sie die Leertaste, immer wenn Sie ein Bild von Zorua oder das Wort ZORUA sehen. 

Drücken Sie die Leertaste, um die Aufgabe zu starten.",target2,stimuli/t2.jpg,6,66,stimuli/filler8.jpg,filler,False,None,,,,,,,,,,,,,,0,0,0,0,,,,,0,0,0,1,0,65,65,65,,,,,,,,,,,,,,,,,,,,,,,,,,,,,,,,,,,,,,,,,,,,,,,,,,,,,CS1_USneg,space,0,0.35913659999960146,,,,,,,,,,,,,,,,,19,w,6,n,2019_Nov_20_1102,ec_RRR,3.0.4,59.99448050777994,
Hutter,Das Zielwesen für diese Aufgabe ist Zorua:,"Also sobald Zorua (sein Name oder sein Bild) auf dem Bildschirm erscheint, drücken Sie so schnell wie möglich die Leertaste. Drücken Sie die Leertaste, immer wenn Sie ein Bild von Zorua oder das Wort ZORUA sehen. 

Drücken Sie die Leertaste, um die Aufgabe zu starten.",target2,stimuli/t2.jpg,6,67,stimuli/filler39.jpg,filler,False,None,,,,,,,,,,,,,,0,0,0,0,,,,,0,0,0,1,0,66,66,66,,,,,,,,,,,,,,,,,,,,,,,,,,,,,,,,,,,,,,,,,,,,,,,,,,,,,CS1_USneg,None,1,,,,,,,,,,,,,,,,,,19,w,6,n,2019_Nov_20_1102,ec_RRR,3.0.4,59.99448050777994,
Hutter,Das Zielwesen für diese Aufgabe ist Zorua:,"Also sobald Zorua (sein Name oder sein Bild) auf dem Bildschirm erscheint, drücken Sie so schnell wie möglich die Leertaste. Drücken Sie die Leertaste, immer wenn Sie ein Bild von Zorua oder das Wort ZORUA sehen. 

Drücken Sie die Leertaste, um die Aufgabe zu starten.",target2,stimuli/t2.jpg,6,68,stimuli/filler5.jpg,filler,False,None,,,,,,,,,,,,,,0,0,0,0,,,,,0,0,0,1,0,67,67,67,,,,,,,,,,,,,,,,,,,,,,,,,,,,,,,,,,,,,,,,,,,,,,,,,,,,,CS1_USneg,None,1,,,,,,,,,,,,,,,,,,19,w,6,n,2019_Nov_20_1102,ec_RRR,3.0.4,59.99448050777994,
Hutter,Das Zielwesen für diese Aufgabe ist Zorua:,"Also sobald Zorua (sein Name oder sein Bild) auf dem Bildschirm erscheint, drücken Sie so schnell wie möglich die Leertaste. Drücken Sie die Leertaste, immer wenn Sie ein Bild von Zorua oder das Wort ZORUA sehen. 

Drücken Sie die Leertaste, um die Aufgabe zu starten.",target2,stimuli/t2.jpg,6,69,stimuli/filler34.jpg,filler,False,None,,,,,,,,,,,,,,0,0,0,0,,,,,0,0,0,1,0,68,68,68,,,,,,,,,,,,,,,,,,,,,,,,,,,,,,,,,,,,,,,,,,,,,,,,,,,,,CS1_USneg,None,1,,,,,,,,,,,,,,,,,,19,w,6,n,2019_Nov_20_1102,ec_RRR,3.0.4,59.99448050777994,
Hutter,Das Zielwesen für diese Aufgabe ist Zorua:,"Also sobald Zorua (sein Name oder sein Bild) auf dem Bildschirm erscheint, drücken Sie so schnell wie möglich die Leertaste. Drücken Sie die Leertaste, immer wenn Sie ein Bild von Zorua oder das Wort ZORUA sehen. 

Drücken Sie die Leertaste, um die Aufgabe zu starten.",target2,stimuli/t2.jpg,6,70,stimuli/blank.jpg,blank,False,None,,,,,,,,,,,,,,0,0,0,0,,,,,0,0,0,1,0,69,69,69,,,,,,,,,,,,,,,,,,,,,,,,,,,,,,,,,,,,,,,,,,,,,,,,,,,,,CS1_USneg,None,1,,,,,,,,,,,,,,,,,,19,w,6,n,2019_Nov_20_1102,ec_RRR,3.0.4,59.99448050777994,
Hutter,Das Zielwesen für diese Aufgabe ist Zorua:,"Also sobald Zorua (sein Name oder sein Bild) auf dem Bildschirm erscheint, drücken Sie so schnell wie möglich die Leertaste. Drücken Sie die Leertaste, immer wenn Sie ein Bild von Zorua oder das Wort ZORUA sehen. 

Drücken Sie die Leertaste, um die Aufgabe zu starten.",target2,stimuli/t2.jpg,6,71,stimuli/cs1_neg11.jpg,CSUS,False,None,,,,,,,,,,,,,,0,0,0,0,,,,,0,0,0,1,0,70,70,70,,,,,,,,,,,,,,,,,,,,,,,,,,,,,,,,,,,,,,,,,,,,,,,,,,,,,CS1_USneg,None,1,,,,,,,,,,,,,,,,,,19,w,6,n,2019_Nov_20_1102,ec_RRR,3.0.4,59.99448050777994,
Hutter,Das Zielwesen für diese Aufgabe ist Zorua:,"Also sobald Zorua (sein Name oder sein Bild) auf dem Bildschirm erscheint, drücken Sie so schnell wie möglich die Leertaste. Drücken Sie die Leertaste, immer wenn Sie ein Bild von Zorua oder das Wort ZORUA sehen. 

Drücken Sie die Leertaste, um die Aufgabe zu starten.",target2,stimuli/t2.jpg,6,72,stimuli/blank.jpg,blank,False,None,,,,,,,,,,,,,,0,0,0,0,,,,,0,0,0,1,0,71,71,71,,,,,,,,,,,,,,,,,,,,,,,,,,,,,,,,,,,,,,,,,,,,,,,,,,,,,CS1_USneg,None,1,,,,,,,,,,,,,,,,,,19,w,6,n,2019_Nov_20_1102,ec_RRR,3.0.4,59.99448050777994,
Hutter,Das Zielwesen für diese Aufgabe ist Zorua:,"Also sobald Zorua (sein Name oder sein Bild) auf dem Bildschirm erscheint, drücken Sie so schnell wie möglich die Leertaste. Drücken Sie die Leertaste, immer wenn Sie ein Bild von Zorua oder das Wort ZORUA sehen. 

Drücken Sie die Leertaste, um die Aufgabe zu starten.",target2,stimuli/t2.jpg,6,73,stimuli/filler9.jpg,filler,False,None,,,,,,,,,,,,,,0,0,0,0,,,,,0,0,0,1,0,72,72,72,,,,,,,,,,,,,,,,,,,,,,,,,,,,,,,,,,,,,,,,,,,,,,,,,,,,,CS1_USneg,None,1,,,,,,,,,,,,,,,,,,19,w,6,n,2019_Nov_20_1102,ec_RRR,3.0.4,59.99448050777994,
Hutter,Das Zielwesen für diese Aufgabe ist Zorua:,"Also sobald Zorua (sein Name oder sein Bild) auf dem Bildschirm erscheint, drücken Sie so schnell wie möglich die Leertaste. Drücken Sie die Leertaste, immer wenn Sie ein Bild von Zorua oder das Wort ZORUA sehen. 

Drücken Sie die Leertaste, um die Aufgabe zu starten.",target2,stimuli/t2.jpg,6,74,stimuli/filler19.jpg,filler,False,None,,,,,,,,,,,,,,0,0,0,0,,,,,0,0,0,1,0,73,73,73,,,,,,,,,,,,,,,,,,,,,,,,,,,,,,,,,,,,,,,,,,,,,,,,,,,,,CS1_USneg,None,1,,,,,,,,,,,,,,,,,,19,w,6,n,2019_Nov_20_1102,ec_RRR,3.0.4,59.99448050777994,
Hutter,Das Zielwesen für diese Aufgabe ist Zorua:,"Also sobald Zorua (sein Name oder sein Bild) auf dem Bildschirm erscheint, drücken Sie so schnell wie möglich die Leertaste. Drücken Sie die Leertaste, immer wenn Sie ein Bild von Zorua oder das Wort ZORUA sehen. 

Drücken Sie die Leertaste, um die Aufgabe zu starten.",target2,stimuli/t2.jpg,6,75,stimuli/filler2.jpg,filler,False,None,,,,,,,,,,,,,,0,0,0,0,,,,,0,0,0,1,0,74,74,74,,,,,,,,,,,,,,,,,,,,,,,,,,,,,,,,,,,,,,,,,,,,,,,,,,,,,CS1_USneg,None,1,,,,,,,,,,,,,,,,,,19,w,6,n,2019_Nov_20_1102,ec_RRR,3.0.4,59.99448050777994,
Hutter,Das Zielwesen für diese Aufgabe ist Zorua:,"Also sobald Zorua (sein Name oder sein Bild) auf dem Bildschirm erscheint, drücken Sie so schnell wie möglich die Leertaste. Drücken Sie die Leertaste, immer wenn Sie ein Bild von Zorua oder das Wort ZORUA sehen. 

Drücken Sie die Leertaste, um die Aufgabe zu starten.",target2,stimuli/t2.jpg,6,76,stimuli/filler14.jpg,filler,False,None,,,,,,,,,,,,,,0,0,0,0,,,,,0,0,0,1,0,75,75,75,,,,,,,,,,,,,,,,,,,,,,,,,,,,,,,,,,,,,,,,,,,,,,,,,,,,,CS1_USneg,None,1,,,,,,,,,,,,,,,,,,19,w,6,n,2019_Nov_20_1102,ec_RRR,3.0.4,59.99448050777994,
Hutter,Das Zielwesen für diese Aufgabe ist Zorua:,"Also sobald Zorua (sein Name oder sein Bild) auf dem Bildschirm erscheint, drücken Sie so schnell wie möglich die Leertaste. Drücken Sie die Leertaste, immer wenn Sie ein Bild von Zorua oder das Wort ZORUA sehen. 

Drücken Sie die Leertaste, um die Aufgabe zu starten.",target2,stimuli/t2.jpg,6,77,stimuli/filler17.jpg,filler,False,None,,,,,,,,,,,,,,0,0,0,0,,,,,0,0,0,1,0,76,76,76,,,,,,,,,,,,,,,,,,,,,,,,,,,,,,,,,,,,,,,,,,,,,,,,,,,,,CS1_USneg,None,1,,,,,,,,,,,,,,,,,,19,w,6,n,2019_Nov_20_1102,ec_RRR,3.0.4,59.99448050777994,
Hutter,Das Zielwesen für diese Aufgabe ist Zorua:,"Also sobald Zorua (sein Name oder sein Bild) auf dem Bildschirm erscheint, drücken Sie so schnell wie möglich die Leertaste. Drücken Sie die Leertaste, immer wenn Sie ein Bild von Zorua oder das Wort ZORUA sehen. 

Drücken Sie die Leertaste, um die Aufgabe zu starten.",target2,stimuli/t2.jpg,6,78,stimuli/target2_8.jpg,target,True,space,,,,,,,,,,,,,,0,0,0,0,,,,,0,0,0,1,0,77,77,77,,,,,,,,,,,,,,,,,,,,,,,,,,,,,,,,,,,,,,,,,,,,,,,,,,,,,CS1_USneg,space,1,0.6241836999997759,,,,,,,,,,,,,,,,,19,w,6,n,2019_Nov_20_1102,ec_RRR,3.0.4,59.99448050777994,
Hutter,Das Zielwesen für diese Aufgabe ist Zorua:,"Also sobald Zorua (sein Name oder sein Bild) auf dem Bildschirm erscheint, drücken Sie so schnell wie möglich die Leertaste. Drücken Sie die Leertaste, immer wenn Sie ein Bild von Zorua oder das Wort ZORUA sehen. 

Drücken Sie die Leertaste, um die Aufgabe zu starten.",target2,stimuli/t2.jpg,6,79,stimuli/filler20.jpg,filler,False,None,,,,,,,,,,,,,,0,0,0,0,,,,,0,0,0,1,0,78,78,78,,,,,,,,,,,,,,,,,,,,,,,,,,,,,,,,,,,,,,,,,,,,,,,,,,,,,CS1_USneg,None,1,,,,,,,,,,,,,,,,,,19,w,6,n,2019_Nov_20_1102,ec_RRR,3.0.4,59.99448050777994,
Hutter,Das Zielwesen für diese Aufgabe ist Zorua:,"Also sobald Zorua (sein Name oder sein Bild) auf dem Bildschirm erscheint, drücken Sie so schnell wie möglich die Leertaste. Drücken Sie die Leertaste, immer wenn Sie ein Bild von Zorua oder das Wort ZORUA sehen. 

Drücken Sie die Leertaste, um die Aufgabe zu starten.",target2,stimuli/t2.jpg,6,80,stimuli/blank.jpg,blank,False,None,,,,,,,,,,,,,,0,0,0,0,,,,,0,0,0,1,0,79,79,79,,,,,,,,,,,,,,,,,,,,,,,,,,,,,,,,,,,,,,,,,,,,,,,,,,,,,CS1_USneg,None,1,,,,,,,,,,,,,,,,,,19,w,6,n,2019_Nov_20_1102,ec_RRR,3.0.4,59.99448050777994,
Hutter,Das Zielwesen für diese Aufgabe ist Zorua:,"Also sobald Zorua (sein Name oder sein Bild) auf dem Bildschirm erscheint, drücken Sie so schnell wie möglich die Leertaste. Drücken Sie die Leertaste, immer wenn Sie ein Bild von Zorua oder das Wort ZORUA sehen. 

Drücken Sie die Leertaste, um die Aufgabe zu starten.",target2,stimuli/t2.jpg,6,81,stimuli/cs2_pos3.jpg,CSUS,False,None,,,,,,,,,,,,,,0,0,0,0,,,,,0,0,0,1,0,80,80,80,,,,,,,,,,,,,,,,,,,,,,,,,,,,,,,,,,,,,,,,,,,,,,,,,,,,,CS1_USneg,None,1,,,,,,,,,,,,,,,,,,19,w,6,n,2019_Nov_20_1102,ec_RRR,3.0.4,59.99448050777994,
Hutter,Das Zielwesen für diese Aufgabe ist Zorua:,"Also sobald Zorua (sein Name oder sein Bild) auf dem Bildschirm erscheint, drücken Sie so schnell wie möglich die Leertaste. Drücken Sie die Leertaste, immer wenn Sie ein Bild von Zorua oder das Wort ZORUA sehen. 

Drücken Sie die Leertaste, um die Aufgabe zu starten.",target2,stimuli/t2.jpg,6,82,stimuli/blank.jpg,blank,False,None,,,,,,,,,,,,,,0,0,0,0,,,,,0,0,0,1,0,81,81,81,,,,,,,,,,,,,,,,,,,,,,,,,,,,,,,,,,,,,,,,,,,,,,,,,,,,,CS1_USneg,None,1,,,,,,,,,,,,,,,,,,19,w,6,n,2019_Nov_20_1102,ec_RRR,3.0.4,59.99448050777994,
Hutter,Das Zielwesen für diese Aufgabe ist Zorua:,"Also sobald Zorua (sein Name oder sein Bild) auf dem Bildschirm erscheint, drücken Sie so schnell wie möglich die Leertaste. Drücken Sie die Leertaste, immer wenn Sie ein Bild von Zorua oder das Wort ZORUA sehen. 

Drücken Sie die Leertaste, um die Aufgabe zu starten.",target2,stimuli/t2.jpg,6,83,stimuli/target2_9.jpg,target,True,space,,,,,,,,,,,,,,0,0,0,0,,,,,0,0,0,1,0,82,82,82,,,,,,,,,,,,,,,,,,,,,,,,,,,,,,,,,,,,,,,,,,,,,,,,,,,,,CS1_USneg,space,1,0.4940958000001956,,,,,,,,,,,,,,,,,19,w,6,n,2019_Nov_20_1102,ec_RRR,3.0.4,59.99448050777994,
Hutter,Das Zielwesen für diese Aufgabe ist Zorua:,"Also sobald Zorua (sein Name oder sein Bild) auf dem Bildschirm erscheint, drücken Sie so schnell wie möglich die Leertaste. Drücken Sie die Leertaste, immer wenn Sie ein Bild von Zorua oder das Wort ZORUA sehen. 

Drücken Sie die Leertaste, um die Aufgabe zu starten.",target2,stimuli/t2.jpg,6,84,stimuli/filler49.jpg,filler,False,None,,,,,,,,,,,,,,0,0,0,0,,,,,0,0,0,1,0,83,83,83,,,,,,,,,,,,,,,,,,,,,,,,,,,,,,,,,,,,,,,,,,,,,,,,,,,,,CS1_USneg,None,1,,,,,,,,,,,,,,,,,,19,w,6,n,2019_Nov_20_1102,ec_RRR,3.0.4,59.99448050777994,
Hutter,Das Zielwesen für diese Aufgabe ist Zorua:,"Also sobald Zorua (sein Name oder sein Bild) auf dem Bildschirm erscheint, drücken Sie so schnell wie möglich die Leertaste. Drücken Sie die Leertaste, immer wenn Sie ein Bild von Zorua oder das Wort ZORUA sehen. 

Drücken Sie die Leertaste, um die Aufgabe zu starten.",target2,stimuli/t2.jpg,6,85,stimuli/target2_3.jpg,target,True,space,,,,,,,,,,,,,,0,0,0,0,,,,,0,0,0,1,0,84,84,84,,,,,,,,,,,,,,,,,,,,,,,,,,,,,,,,,,,,,,,,,,,,,,,,,,,,,CS1_USneg,space,1,0.47721110000020417,,,,,,,,,,,,,,,,,19,w,6,n,2019_Nov_20_1102,ec_RRR,3.0.4,59.99448050777994,
Hutter,Das Zielwesen für diese Aufgabe ist Zorua:,"Also sobald Zorua (sein Name oder sein Bild) auf dem Bildschirm erscheint, drücken Sie so schnell wie möglich die Leertaste. Drücken Sie die Leertaste, immer wenn Sie ein Bild von Zorua oder das Wort ZORUA sehen. 

Drücken Sie die Leertaste, um die Aufgabe zu starten.",target2,stimuli/t2.jpg,6,86,stimuli/filler24.jpg,filler,False,None,,,,,,,,,,,,,,0,0,0,0,,,,,0,0,0,1,0,85,85,85,,,,,,,,,,,,,,,,,,,,,,,,,,,,,,,,,,,,,,,,,,,,,,,,,,,,,CS1_USneg,None,1,,,,,,,,,,,,,,,,,,19,w,6,n,2019_Nov_20_1102,ec_RRR,3.0.4,59.99448050777994,
Hutter,Das Zielwesen für diese Aufgabe ist Jangmo:,"Also sobald Jangmo (sein Name oder sein Bild) auf dem Bildschirm erscheint, drücken Sie so schnell wie möglich die Leertaste. Drücken Sie die Leertaste, immer wenn Sie ein Bild von Jangmo oder das Wort JANGMO sehen. 

Drücken Sie die Leertaste, um die Aufgabe zu starten.",target4,stimuli/t4.jpg,6,1,stimuli/filler27.jpg,filler,False,None,,,,,,,,,,,,,,0,0,0,0,,,,,0,1,1,3,0,0,0,0,,,,,,,,,,,,,,,,,,,,,,,,,,,,,,,,,,,,,,,,,,,,,,,,,,,,,CS1_USneg,None,1,,,,,,,,,,,,,,,,,,19,w,6,n,2019_Nov_20_1102,ec_RRR,3.0.4,59.99448050777994,
Hutter,Das Zielwesen für diese Aufgabe ist Jangmo:,"Also sobald Jangmo (sein Name oder sein Bild) auf dem Bildschirm erscheint, drücken Sie so schnell wie möglich die Leertaste. Drücken Sie die Leertaste, immer wenn Sie ein Bild von Jangmo oder das Wort JANGMO sehen. 

Drücken Sie die Leertaste, um die Aufgabe zu starten.",target4,stimuli/t4.jpg,6,2,stimuli/filler20.jpg,filler,False,None,,,,,,,,,,,,,,0,0,0,0,,,,,0,1,1,3,0,1,1,1,,,,,,,,,,,,,,,,,,,,,,,,,,,,,,,,,,,,,,,,,,,,,,,,,,,,,CS1_USneg,None,1,,,,,,,,,,,,,,,,,,19,w,6,n,2019_Nov_20_1102,ec_RRR,3.0.4,59.99448050777994,
Hutter,Das Zielwesen für diese Aufgabe ist Jangmo:,"Also sobald Jangmo (sein Name oder sein Bild) auf dem Bildschirm erscheint, drücken Sie so schnell wie möglich die Leertaste. Drücken Sie die Leertaste, immer wenn Sie ein Bild von Jangmo oder das Wort JANGMO sehen. 

Drücken Sie die Leertaste, um die Aufgabe zu starten.",target4,stimuli/t4.jpg,6,3,stimuli/filler50.jpg,filler,False,None,,,,,,,,,,,,,,0,0,0,0,,,,,0,1,1,3,0,2,2,2,,,,,,,,,,,,,,,,,,,,,,,,,,,,,,,,,,,,,,,,,,,,,,,,,,,,,CS1_USneg,None,1,,,,,,,,,,,,,,,,,,19,w,6,n,2019_Nov_20_1102,ec_RRR,3.0.4,59.99448050777994,
Hutter,Das Zielwesen für diese Aufgabe ist Jangmo:,"Also sobald Jangmo (sein Name oder sein Bild) auf dem Bildschirm erscheint, drücken Sie so schnell wie möglich die Leertaste. Drücken Sie die Leertaste, immer wenn Sie ein Bild von Jangmo oder das Wort JANGMO sehen. 

Drücken Sie die Leertaste, um die Aufgabe zu starten.",target4,stimuli/t4.jpg,6,4,stimuli/filler7.jpg,filler,False,None,,,,,,,,,,,,,,0,0,0,0,,,,,0,1,1,3,0,3,3,3,,,,,,,,,,,,,,,,,,,,,,,,,,,,,,,,,,,,,,,,,,,,,,,,,,,,,CS1_USneg,None,1,,,,,,,,,,,,,,,,,,19,w,6,n,2019_Nov_20_1102,ec_RRR,3.0.4,59.99448050777994,
Hutter,Das Zielwesen für diese Aufgabe ist Jangmo:,"Also sobald Jangmo (sein Name oder sein Bild) auf dem Bildschirm erscheint, drücken Sie so schnell wie möglich die Leertaste. Drücken Sie die Leertaste, immer wenn Sie ein Bild von Jangmo oder das Wort JANGMO sehen. 

Drücken Sie die Leertaste, um die Aufgabe zu starten.",target4,stimuli/t4.jpg,6,5,stimuli/filler23.jpg,filler,False,None,,,,,,,,,,,,,,0,0,0,0,,,,,0,1,1,3,0,4,4,4,,,,,,,,,,,,,,,,,,,,,,,,,,,,,,,,,,,,,,,,,,,,,,,,,,,,,CS1_USneg,None,1,,,,,,,,,,,,,,,,,,19,w,6,n,2019_Nov_20_1102,ec_RRR,3.0.4,59.99448050777994,
Hutter,Das Zielwesen für diese Aufgabe ist Jangmo:,"Also sobald Jangmo (sein Name oder sein Bild) auf dem Bildschirm erscheint, drücken Sie so schnell wie möglich die Leertaste. Drücken Sie die Leertaste, immer wenn Sie ein Bild von Jangmo oder das Wort JANGMO sehen. 

Drücken Sie die Leertaste, um die Aufgabe zu starten.",target4,stimuli/t4.jpg,6,6,stimuli/filler3.jpg,filler,False,None,,,,,,,,,,,,,,0,0,0,0,,,,,0,1,1,3,0,5,5,5,,,,,,,,,,,,,,,,,,,,,,,,,,,,,,,,,,,,,,,,,,,,,,,,,,,,,CS1_USneg,None,1,,,,,,,,,,,,,,,,,,19,w,6,n,2019_Nov_20_1102,ec_RRR,3.0.4,59.99448050777994,
Hutter,Das Zielwesen für diese Aufgabe ist Jangmo:,"Also sobald Jangmo (sein Name oder sein Bild) auf dem Bildschirm erscheint, drücken Sie so schnell wie möglich die Leertaste. Drücken Sie die Leertaste, immer wenn Sie ein Bild von Jangmo oder das Wort JANGMO sehen. 

Drücken Sie die Leertaste, um die Aufgabe zu starten.",target4,stimuli/t4.jpg,6,7,stimuli/filler39.jpg,filler,False,None,,,,,,,,,,,,,,0,0,0,0,,,,,0,1,1,3,0,6,6,6,,,,,,,,,,,,,,,,,,,,,,,,,,,,,,,,,,,,,,,,,,,,,,,,,,,,,CS1_USneg,None,1,,,,,,,,,,,,,,,,,,19,w,6,n,2019_Nov_20_1102,ec_RRR,3.0.4,59.99448050777994,
Hutter,Das Zielwesen für diese Aufgabe ist Jangmo:,"Also sobald Jangmo (sein Name oder sein Bild) auf dem Bildschirm erscheint, drücken Sie so schnell wie möglich die Leertaste. Drücken Sie die Leertaste, immer wenn Sie ein Bild von Jangmo oder das Wort JANGMO sehen. 

Drücken Sie die Leertaste, um die Aufgabe zu starten.",target4,stimuli/t4.jpg,6,8,stimuli/filler9.jpg,filler,False,None,,,,,,,,,,,,,,0,0,0,0,,,,,0,1,1,3,0,7,7,7,,,,,,,,,,,,,,,,,,,,,,,,,,,,,,,,,,,,,,,,,,,,,,,,,,,,,CS1_USneg,None,1,,,,,,,,,,,,,,,,,,19,w,6,n,2019_Nov_20_1102,ec_RRR,3.0.4,59.99448050777994,
Hutter,Das Zielwesen für diese Aufgabe ist Jangmo:,"Also sobald Jangmo (sein Name oder sein Bild) auf dem Bildschirm erscheint, drücken Sie so schnell wie möglich die Leertaste. Drücken Sie die Leertaste, immer wenn Sie ein Bild von Jangmo oder das Wort JANGMO sehen. 

Drücken Sie die Leertaste, um die Aufgabe zu starten.",target4,stimuli/t4.jpg,6,9,stimuli/filler16.jpg,filler,False,None,,,,,,,,,,,,,,0,0,0,0,,,,,0,1,1,3,0,8,8,8,,,,,,,,,,,,,,,,,,,,,,,,,,,,,,,,,,,,,,,,,,,,,,,,,,,,,CS1_USneg,None,1,,,,,,,,,,,,,,,,,,19,w,6,n,2019_Nov_20_1102,ec_RRR,3.0.4,59.99448050777994,
Hutter,Das Zielwesen für diese Aufgabe ist Jangmo:,"Also sobald Jangmo (sein Name oder sein Bild) auf dem Bildschirm erscheint, drücken Sie so schnell wie möglich die Leertaste. Drücken Sie die Leertaste, immer wenn Sie ein Bild von Jangmo oder das Wort JANGMO sehen. 

Drücken Sie die Leertaste, um die Aufgabe zu starten.",target4,stimuli/t4.jpg,6,10,stimuli/blank.jpg,blank,False,None,,,,,,,,,,,,,,0,0,0,0,,,,,0,1,1,3,0,9,9,9,,,,,,,,,,,,,,,,,,,,,,,,,,,,,,,,,,,,,,,,,,,,,,,,,,,,,CS1_USneg,None,1,,,,,,,,,,,,,,,,,,19,w,6,n,2019_Nov_20_1102,ec_RRR,3.0.4,59.99448050777994,
Hutter,Das Zielwesen für diese Aufgabe ist Jangmo:,"Also sobald Jangmo (sein Name oder sein Bild) auf dem Bildschirm erscheint, drücken Sie so schnell wie möglich die Leertaste. Drücken Sie die Leertaste, immer wenn Sie ein Bild von Jangmo oder das Wort JANGMO sehen. 

Drücken Sie die Leertaste, um die Aufgabe zu starten.",target4,stimuli/t4.jpg,6,11,stimuli/cs1_neg14.jpg,CSUS,False,None,,,,,,,,,,,,,,0,0,0,0,,,,,0,1,1,3,0,10,10,10,,,,,,,,,,,,,,,,,,,,,,,,,,,,,,,,,,,,,,,,,,,,,,,,,,,,,CS1_USneg,None,1,,,,,,,,,,,,,,,,,,19,w,6,n,2019_Nov_20_1102,ec_RRR,3.0.4,59.99448050777994,
Hutter,Das Zielwesen für diese Aufgabe ist Jangmo:,"Also sobald Jangmo (sein Name oder sein Bild) auf dem Bildschirm erscheint, drücken Sie so schnell wie möglich die Leertaste. Drücken Sie die Leertaste, immer wenn Sie ein Bild von Jangmo oder das Wort JANGMO sehen. 

Drücken Sie die Leertaste, um die Aufgabe zu starten.",target4,stimuli/t4.jpg,6,12,stimuli/blank.jpg,blank,False,None,,,,,,,,,,,,,,0,0,0,0,,,,,0,1,1,3,0,11,11,11,,,,,,,,,,,,,,,,,,,,,,,,,,,,,,,,,,,,,,,,,,,,,,,,,,,,,CS1_USneg,None,1,,,,,,,,,,,,,,,,,,19,w,6,n,2019_Nov_20_1102,ec_RRR,3.0.4,59.99448050777994,
Hutter,Das Zielwesen für diese Aufgabe ist Jangmo:,"Also sobald Jangmo (sein Name oder sein Bild) auf dem Bildschirm erscheint, drücken Sie so schnell wie möglich die Leertaste. Drücken Sie die Leertaste, immer wenn Sie ein Bild von Jangmo oder das Wort JANGMO sehen. 

Drücken Sie die Leertaste, um die Aufgabe zu starten.",target4,stimuli/t4.jpg,6,13,stimuli/filler13.jpg,filler,False,None,,,,,,,,,,,,,,0,0,0,0,,,,,0,1,1,3,0,12,12,12,,,,,,,,,,,,,,,,,,,,,,,,,,,,,,,,,,,,,,,,,,,,,,,,,,,,,CS1_USneg,None,1,,,,,,,,,,,,,,,,,,19,w,6,n,2019_Nov_20_1102,ec_RRR,3.0.4,59.99448050777994,
Hutter,Das Zielwesen für diese Aufgabe ist Jangmo:,"Also sobald Jangmo (sein Name oder sein Bild) auf dem Bildschirm erscheint, drücken Sie so schnell wie möglich die Leertaste. Drücken Sie die Leertaste, immer wenn Sie ein Bild von Jangmo oder das Wort JANGMO sehen. 

Drücken Sie die Leertaste, um die Aufgabe zu starten.",target4,stimuli/t4.jpg,6,14,stimuli/filler43.jpg,filler,False,None,,,,,,,,,,,,,,0,0,0,0,,,,,0,1,1,3,0,13,13,13,,,,,,,,,,,,,,,,,,,,,,,,,,,,,,,,,,,,,,,,,,,,,,,,,,,,,CS1_USneg,None,1,,,,,,,,,,,,,,,,,,19,w,6,n,2019_Nov_20_1102,ec_RRR,3.0.4,59.99448050777994,
Hutter,Das Zielwesen für diese Aufgabe ist Jangmo:,"Also sobald Jangmo (sein Name oder sein Bild) auf dem Bildschirm erscheint, drücken Sie so schnell wie möglich die Leertaste. Drücken Sie die Leertaste, immer wenn Sie ein Bild von Jangmo oder das Wort JANGMO sehen. 

Drücken Sie die Leertaste, um die Aufgabe zu starten.",target4,stimuli/t4.jpg,6,15,stimuli/filler25.jpg,filler,False,None,,,,,,,,,,,,,,0,0,0,0,,,,,0,1,1,3,0,14,14,14,,,,,,,,,,,,,,,,,,,,,,,,,,,,,,,,,,,,,,,,,,,,,,,,,,,,,CS1_USneg,None,1,,,,,,,,,,,,,,,,,,19,w,6,n,2019_Nov_20_1102,ec_RRR,3.0.4,59.99448050777994,
Hutter,Das Zielwesen für diese Aufgabe ist Jangmo:,"Also sobald Jangmo (sein Name oder sein Bild) auf dem Bildschirm erscheint, drücken Sie so schnell wie möglich die Leertaste. Drücken Sie die Leertaste, immer wenn Sie ein Bild von Jangmo oder das Wort JANGMO sehen. 

Drücken Sie die Leertaste, um die Aufgabe zu starten.",target4,stimuli/t4.jpg,6,16,stimuli/filler14.jpg,filler,False,None,,,,,,,,,,,,,,0,0,0,0,,,,,0,1,1,3,0,15,15,15,,,,,,,,,,,,,,,,,,,,,,,,,,,,,,,,,,,,,,,,,,,,,,,,,,,,,CS1_USneg,None,1,,,,,,,,,,,,,,,,,,19,w,6,n,2019_Nov_20_1102,ec_RRR,3.0.4,59.99448050777994,
Hutter,Das Zielwesen für diese Aufgabe ist Jangmo:,"Also sobald Jangmo (sein Name oder sein Bild) auf dem Bildschirm erscheint, drücken Sie so schnell wie möglich die Leertaste. Drücken Sie die Leertaste, immer wenn Sie ein Bild von Jangmo oder das Wort JANGMO sehen. 

Drücken Sie die Leertaste, um die Aufgabe zu starten.",target4,stimuli/t4.jpg,6,17,stimuli/filler41.jpg,filler,False,None,,,,,,,,,,,,,,0,0,0,0,,,,,0,1,1,3,0,16,16,16,,,,,,,,,,,,,,,,,,,,,,,,,,,,,,,,,,,,,,,,,,,,,,,,,,,,,CS1_USneg,None,1,,,,,,,,,,,,,,,,,,19,w,6,n,2019_Nov_20_1102,ec_RRR,3.0.4,59.99448050777994,
Hutter,Das Zielwesen für diese Aufgabe ist Jangmo:,"Also sobald Jangmo (sein Name oder sein Bild) auf dem Bildschirm erscheint, drücken Sie so schnell wie möglich die Leertaste. Drücken Sie die Leertaste, immer wenn Sie ein Bild von Jangmo oder das Wort JANGMO sehen. 

Drücken Sie die Leertaste, um die Aufgabe zu starten.",target4,stimuli/t4.jpg,6,18,stimuli/filler42.jpg,filler,False,None,,,,,,,,,,,,,,0,0,0,0,,,,,0,1,1,3,0,17,17,17,,,,,,,,,,,,,,,,,,,,,,,,,,,,,,,,,,,,,,,,,,,,,,,,,,,,,CS1_USneg,None,1,,,,,,,,,,,,,,,,,,19,w,6,n,2019_Nov_20_1102,ec_RRR,3.0.4,59.99448050777994,
Hutter,Das Zielwesen für diese Aufgabe ist Jangmo:,"Also sobald Jangmo (sein Name oder sein Bild) auf dem Bildschirm erscheint, drücken Sie so schnell wie möglich die Leertaste. Drücken Sie die Leertaste, immer wenn Sie ein Bild von Jangmo oder das Wort JANGMO sehen. 

Drücken Sie die Leertaste, um die Aufgabe zu starten.",target4,stimuli/t4.jpg,6,19,stimuli/filler45.jpg,filler,False,None,,,,,,,,,,,,,,0,0,0,0,,,,,0,1,1,3,0,18,18,18,,,,,,,,,,,,,,,,,,,,,,,,,,,,,,,,,,,,,,,,,,,,,,,,,,,,,CS1_USneg,None,1,,,,,,,,,,,,,,,,,,19,w,6,n,2019_Nov_20_1102,ec_RRR,3.0.4,59.99448050777994,
Hutter,Das Zielwesen für diese Aufgabe ist Jangmo:,"Also sobald Jangmo (sein Name oder sein Bild) auf dem Bildschirm erscheint, drücken Sie so schnell wie möglich die Leertaste. Drücken Sie die Leertaste, immer wenn Sie ein Bild von Jangmo oder das Wort JANGMO sehen. 

Drücken Sie die Leertaste, um die Aufgabe zu starten.",target4,stimuli/t4.jpg,6,20,stimuli/blank.jpg,blank,False,None,,,,,,,,,,,,,,0,0,0,0,,,,,0,1,1,3,0,19,19,19,,,,,,,,,,,,,,,,,,,,,,,,,,,,,,,,,,,,,,,,,,,,,,,,,,,,,CS1_USneg,None,1,,,,,,,,,,,,,,,,,,19,w,6,n,2019_Nov_20_1102,ec_RRR,3.0.4,59.99448050777994,
Hutter,Das Zielwesen für diese Aufgabe ist Jangmo:,"Also sobald Jangmo (sein Name oder sein Bild) auf dem Bildschirm erscheint, drücken Sie so schnell wie möglich die Leertaste. Drücken Sie die Leertaste, immer wenn Sie ein Bild von Jangmo oder das Wort JANGMO sehen. 

Drücken Sie die Leertaste, um die Aufgabe zu starten.",target4,stimuli/t4.jpg,6,21,stimuli/cs2_pos9.jpg,CSUS,False,None,,,,,,,,,,,,,,0,0,0,0,,,,,0,1,1,3,0,20,20,20,,,,,,,,,,,,,,,,,,,,,,,,,,,,,,,,,,,,,,,,,,,,,,,,,,,,,CS1_USneg,None,1,,,,,,,,,,,,,,,,,,19,w,6,n,2019_Nov_20_1102,ec_RRR,3.0.4,59.99448050777994,
Hutter,Das Zielwesen für diese Aufgabe ist Jangmo:,"Also sobald Jangmo (sein Name oder sein Bild) auf dem Bildschirm erscheint, drücken Sie so schnell wie möglich die Leertaste. Drücken Sie die Leertaste, immer wenn Sie ein Bild von Jangmo oder das Wort JANGMO sehen. 

Drücken Sie die Leertaste, um die Aufgabe zu starten.",target4,stimuli/t4.jpg,6,22,stimuli/blank.jpg,blank,False,None,,,,,,,,,,,,,,0,0,0,0,,,,,0,1,1,3,0,21,21,21,,,,,,,,,,,,,,,,,,,,,,,,,,,,,,,,,,,,,,,,,,,,,,,,,,,,,CS1_USneg,None,1,,,,,,,,,,,,,,,,,,19,w,6,n,2019_Nov_20_1102,ec_RRR,3.0.4,59.99448050777994,
Hutter,Das Zielwesen für diese Aufgabe ist Jangmo:,"Also sobald Jangmo (sein Name oder sein Bild) auf dem Bildschirm erscheint, drücken Sie so schnell wie möglich die Leertaste. Drücken Sie die Leertaste, immer wenn Sie ein Bild von Jangmo oder das Wort JANGMO sehen. 

Drücken Sie die Leertaste, um die Aufgabe zu starten.",target4,stimuli/t4.jpg,6,23,stimuli/filler26.jpg,filler,False,None,,,,,,,,,,,,,,0,0,0,0,,,,,0,1,1,3,0,22,22,22,,,,,,,,,,,,,,,,,,,,,,,,,,,,,,,,,,,,,,,,,,,,,,,,,,,,,CS1_USneg,None,1,,,,,,,,,,,,,,,,,,19,w,6,n,2019_Nov_20_1102,ec_RRR,3.0.4,59.99448050777994,
Hutter,Das Zielwesen für diese Aufgabe ist Jangmo:,"Also sobald Jangmo (sein Name oder sein Bild) auf dem Bildschirm erscheint, drücken Sie so schnell wie möglich die Leertaste. Drücken Sie die Leertaste, immer wenn Sie ein Bild von Jangmo oder das Wort JANGMO sehen. 

Drücken Sie die Leertaste, um die Aufgabe zu starten.",target4,stimuli/t4.jpg,6,24,stimuli/filler8.jpg,filler,False,None,,,,,,,,,,,,,,0,0,0,0,,,,,0,1,1,3,0,23,23,23,,,,,,,,,,,,,,,,,,,,,,,,,,,,,,,,,,,,,,,,,,,,,,,,,,,,,CS1_USneg,None,1,,,,,,,,,,,,,,,,,,19,w,6,n,2019_Nov_20_1102,ec_RRR,3.0.4,59.99448050777994,
Hutter,Das Zielwesen für diese Aufgabe ist Jangmo:,"Also sobald Jangmo (sein Name oder sein Bild) auf dem Bildschirm erscheint, drücken Sie so schnell wie möglich die Leertaste. Drücken Sie die Leertaste, immer wenn Sie ein Bild von Jangmo oder das Wort JANGMO sehen. 

Drücken Sie die Leertaste, um die Aufgabe zu starten.",target4,stimuli/t4.jpg,6,25,stimuli/target4_3.jpg,target,True,space,,,,,,,,,,,,,,0,0,0,0,,,,,0,1,1,3,0,24,24,24,,,,,,,,,,,,,,,,,,,,,,,,,,,,,,,,,,,,,,,,,,,,,,,,,,,,,CS1_USneg,space,1,0.7604824000000008,,,,,,,,,,,,,,,,,19,w,6,n,2019_Nov_20_1102,ec_RRR,3.0.4,59.99448050777994,
Hutter,Das Zielwesen für diese Aufgabe ist Jangmo:,"Also sobald Jangmo (sein Name oder sein Bild) auf dem Bildschirm erscheint, drücken Sie so schnell wie möglich die Leertaste. Drücken Sie die Leertaste, immer wenn Sie ein Bild von Jangmo oder das Wort JANGMO sehen. 

Drücken Sie die Leertaste, um die Aufgabe zu starten.",target4,stimuli/t4.jpg,6,26,stimuli/filler28.jpg,filler,False,None,,,,,,,,,,,,,,0,0,0,0,,,,,0,1,1,3,0,25,25,25,,,,,,,,,,,,,,,,,,,,,,,,,,,,,,,,,,,,,,,,,,,,,,,,,,,,,CS1_USneg,None,1,,,,,,,,,,,,,,,,,,19,w,6,n,2019_Nov_20_1102,ec_RRR,3.0.4,59.99448050777994,
Hutter,Das Zielwesen für diese Aufgabe ist Jangmo:,"Also sobald Jangmo (sein Name oder sein Bild) auf dem Bildschirm erscheint, drücken Sie so schnell wie möglich die Leertaste. Drücken Sie die Leertaste, immer wenn Sie ein Bild von Jangmo oder das Wort JANGMO sehen. 

Drücken Sie die Leertaste, um die Aufgabe zu starten.",target4,stimuli/t4.jpg,6,27,stimuli/target4_7.jpg,target,True,space,,,,,,,,,,,,,,0,0,0,0,,,,,0,1,1,3,0,26,26,26,,,,,,,,,,,,,,,,,,,,,,,,,,,,,,,,,,,,,,,,,,,,,,,,,,,,,CS1_USneg,space,1,0.5440857000003234,,,,,,,,,,,,,,,,,19,w,6,n,2019_Nov_20_1102,ec_RRR,3.0.4,59.99448050777994,
Hutter,Das Zielwesen für diese Aufgabe ist Jangmo:,"Also sobald Jangmo (sein Name oder sein Bild) auf dem Bildschirm erscheint, drücken Sie so schnell wie möglich die Leertaste. Drücken Sie die Leertaste, immer wenn Sie ein Bild von Jangmo oder das Wort JANGMO sehen. 

Drücken Sie die Leertaste, um die Aufgabe zu starten.",target4,stimuli/t4.jpg,6,28,stimuli/filler44.jpg,filler,False,None,,,,,,,,,,,,,,0,0,0,0,,,,,0,1,1,3,0,27,27,27,,,,,,,,,,,,,,,,,,,,,,,,,,,,,,,,,,,,,,,,,,,,,,,,,,,,,CS1_USneg,None,1,,,,,,,,,,,,,,,,,,19,w,6,n,2019_Nov_20_1102,ec_RRR,3.0.4,59.99448050777994,
Hutter,Das Zielwesen für diese Aufgabe ist Jangmo:,"Also sobald Jangmo (sein Name oder sein Bild) auf dem Bildschirm erscheint, drücken Sie so schnell wie möglich die Leertaste. Drücken Sie die Leertaste, immer wenn Sie ein Bild von Jangmo oder das Wort JANGMO sehen. 

Drücken Sie die Leertaste, um die Aufgabe zu starten.",target4,stimuli/t4.jpg,6,29,stimuli/filler34.jpg,filler,False,None,,,,,,,,,,,,,,0,0,0,0,,,,,0,1,1,3,0,28,28,28,,,,,,,,,,,,,,,,,,,,,,,,,,,,,,,,,,,,,,,,,,,,,,,,,,,,,CS1_USneg,None,1,,,,,,,,,,,,,,,,,,19,w,6,n,2019_Nov_20_1102,ec_RRR,3.0.4,59.99448050777994,
Hutter,Das Zielwesen für diese Aufgabe ist Jangmo:,"Also sobald Jangmo (sein Name oder sein Bild) auf dem Bildschirm erscheint, drücken Sie so schnell wie möglich die Leertaste. Drücken Sie die Leertaste, immer wenn Sie ein Bild von Jangmo oder das Wort JANGMO sehen. 

Drücken Sie die Leertaste, um die Aufgabe zu starten.",target4,stimuli/t4.jpg,6,30,stimuli/blank.jpg,blank,False,None,,,,,,,,,,,,,,0,0,0,0,,,,,0,1,1,3,0,29,29,29,,,,,,,,,,,,,,,,,,,,,,,,,,,,,,,,,,,,,,,,,,,,,,,,,,,,,CS1_USneg,None,1,,,,,,,,,,,,,,,,,,19,w,6,n,2019_Nov_20_1102,ec_RRR,3.0.4,59.99448050777994,
Hutter,Das Zielwesen für diese Aufgabe ist Jangmo:,"Also sobald Jangmo (sein Name oder sein Bild) auf dem Bildschirm erscheint, drücken Sie so schnell wie möglich die Leertaste. Drücken Sie die Leertaste, immer wenn Sie ein Bild von Jangmo oder das Wort JANGMO sehen. 

Drücken Sie die Leertaste, um die Aufgabe zu starten.",target4,stimuli/t4.jpg,6,31,stimuli/cs1_neg3.jpg,CSUS,False,None,,,,,,,,,,,,,,0,0,0,0,,,,,0,1,1,3,0,30,30,30,,,,,,,,,,,,,,,,,,,,,,,,,,,,,,,,,,,,,,,,,,,,,,,,,,,,,CS1_USneg,None,1,,,,,,,,,,,,,,,,,,19,w,6,n,2019_Nov_20_1102,ec_RRR,3.0.4,59.99448050777994,
Hutter,Das Zielwesen für diese Aufgabe ist Jangmo:,"Also sobald Jangmo (sein Name oder sein Bild) auf dem Bildschirm erscheint, drücken Sie so schnell wie möglich die Leertaste. Drücken Sie die Leertaste, immer wenn Sie ein Bild von Jangmo oder das Wort JANGMO sehen. 

Drücken Sie die Leertaste, um die Aufgabe zu starten.",target4,stimuli/t4.jpg,6,32,stimuli/blank.jpg,blank,False,None,,,,,,,,,,,,,,0,0,0,0,,,,,0,1,1,3,0,31,31,31,,,,,,,,,,,,,,,,,,,,,,,,,,,,,,,,,,,,,,,,,,,,,,,,,,,,,CS1_USneg,None,1,,,,,,,,,,,,,,,,,,19,w,6,n,2019_Nov_20_1102,ec_RRR,3.0.4,59.99448050777994,
Hutter,Das Zielwesen für diese Aufgabe ist Jangmo:,"Also sobald Jangmo (sein Name oder sein Bild) auf dem Bildschirm erscheint, drücken Sie so schnell wie möglich die Leertaste. Drücken Sie die Leertaste, immer wenn Sie ein Bild von Jangmo oder das Wort JANGMO sehen. 

Drücken Sie die Leertaste, um die Aufgabe zu starten.",target4,stimuli/t4.jpg,6,33,stimuli/filler35.jpg,filler,False,None,,,,,,,,,,,,,,0,0,0,0,,,,,0,1,1,3,0,32,32,32,,,,,,,,,,,,,,,,,,,,,,,,,,,,,,,,,,,,,,,,,,,,,,,,,,,,,CS1_USneg,None,1,,,,,,,,,,,,,,,,,,19,w,6,n,2019_Nov_20_1102,ec_RRR,3.0.4,59.99448050777994,
Hutter,Das Zielwesen für diese Aufgabe ist Jangmo:,"Also sobald Jangmo (sein Name oder sein Bild) auf dem Bildschirm erscheint, drücken Sie so schnell wie möglich die Leertaste. Drücken Sie die Leertaste, immer wenn Sie ein Bild von Jangmo oder das Wort JANGMO sehen. 

Drücken Sie die Leertaste, um die Aufgabe zu starten.",target4,stimuli/t4.jpg,6,34,stimuli/filler11.jpg,filler,False,None,,,,,,,,,,,,,,0,0,0,0,,,,,0,1,1,3,0,33,33,33,,,,,,,,,,,,,,,,,,,,,,,,,,,,,,,,,,,,,,,,,,,,,,,,,,,,,CS1_USneg,None,1,,,,,,,,,,,,,,,,,,19,w,6,n,2019_Nov_20_1102,ec_RRR,3.0.4,59.99448050777994,
Hutter,Das Zielwesen für diese Aufgabe ist Jangmo:,"Also sobald Jangmo (sein Name oder sein Bild) auf dem Bildschirm erscheint, drücken Sie so schnell wie möglich die Leertaste. Drücken Sie die Leertaste, immer wenn Sie ein Bild von Jangmo oder das Wort JANGMO sehen. 

Drücken Sie die Leertaste, um die Aufgabe zu starten.",target4,stimuli/t4.jpg,6,35,stimuli/filler29.jpg,filler,False,None,,,,,,,,,,,,,,0,0,0,0,,,,,0,1,1,3,0,34,34,34,,,,,,,,,,,,,,,,,,,,,,,,,,,,,,,,,,,,,,,,,,,,,,,,,,,,,CS1_USneg,None,1,,,,,,,,,,,,,,,,,,19,w,6,n,2019_Nov_20_1102,ec_RRR,3.0.4,59.99448050777994,
Hutter,Das Zielwesen für diese Aufgabe ist Jangmo:,"Also sobald Jangmo (sein Name oder sein Bild) auf dem Bildschirm erscheint, drücken Sie so schnell wie möglich die Leertaste. Drücken Sie die Leertaste, immer wenn Sie ein Bild von Jangmo oder das Wort JANGMO sehen. 

Drücken Sie die Leertaste, um die Aufgabe zu starten.",target4,stimuli/t4.jpg,6,36,stimuli/filler12.jpg,filler,False,None,,,,,,,,,,,,,,0,0,0,0,,,,,0,1,1,3,0,35,35,35,,,,,,,,,,,,,,,,,,,,,,,,,,,,,,,,,,,,,,,,,,,,,,,,,,,,,CS1_USneg,None,1,,,,,,,,,,,,,,,,,,19,w,6,n,2019_Nov_20_1102,ec_RRR,3.0.4,59.99448050777994,
Hutter,Das Zielwesen für diese Aufgabe ist Jangmo:,"Also sobald Jangmo (sein Name oder sein Bild) auf dem Bildschirm erscheint, drücken Sie so schnell wie möglich die Leertaste. Drücken Sie die Leertaste, immer wenn Sie ein Bild von Jangmo oder das Wort JANGMO sehen. 

Drücken Sie die Leertaste, um die Aufgabe zu starten.",target4,stimuli/t4.jpg,6,37,stimuli/filler47.jpg,filler,False,None,,,,,,,,,,,,,,0,0,0,0,,,,,0,1,1,3,0,36,36,36,,,,,,,,,,,,,,,,,,,,,,,,,,,,,,,,,,,,,,,,,,,,,,,,,,,,,CS1_USneg,None,1,,,,,,,,,,,,,,,,,,19,w,6,n,2019_Nov_20_1102,ec_RRR,3.0.4,59.99448050777994,
Hutter,Das Zielwesen für diese Aufgabe ist Jangmo:,"Also sobald Jangmo (sein Name oder sein Bild) auf dem Bildschirm erscheint, drücken Sie so schnell wie möglich die Leertaste. Drücken Sie die Leertaste, immer wenn Sie ein Bild von Jangmo oder das Wort JANGMO sehen. 

Drücken Sie die Leertaste, um die Aufgabe zu starten.",target4,stimuli/t4.jpg,6,38,stimuli/filler10.jpg,filler,False,None,,,,,,,,,,,,,,0,0,0,0,,,,,0,1,1,3,0,37,37,37,,,,,,,,,,,,,,,,,,,,,,,,,,,,,,,,,,,,,,,,,,,,,,,,,,,,,CS1_USneg,None,1,,,,,,,,,,,,,,,,,,19,w,6,n,2019_Nov_20_1102,ec_RRR,3.0.4,59.99448050777994,
Hutter,Das Zielwesen für diese Aufgabe ist Jangmo:,"Also sobald Jangmo (sein Name oder sein Bild) auf dem Bildschirm erscheint, drücken Sie so schnell wie möglich die Leertaste. Drücken Sie die Leertaste, immer wenn Sie ein Bild von Jangmo oder das Wort JANGMO sehen. 

Drücken Sie die Leertaste, um die Aufgabe zu starten.",target4,stimuli/t4.jpg,6,39,stimuli/target4_2.jpg,target,True,space,,,,,,,,,,,,,,0,0,0,0,,,,,0,1,1,3,0,38,38,38,,,,,,,,,,,,,,,,,,,,,,,,,,,,,,,,,,,,,,,,,,,,,,,,,,,,,CS1_USneg,space,1,0.7423317000002498,,,,,,,,,,,,,,,,,19,w,6,n,2019_Nov_20_1102,ec_RRR,3.0.4,59.99448050777994,
Hutter,Das Zielwesen für diese Aufgabe ist Jangmo:,"Also sobald Jangmo (sein Name oder sein Bild) auf dem Bildschirm erscheint, drücken Sie so schnell wie möglich die Leertaste. Drücken Sie die Leertaste, immer wenn Sie ein Bild von Jangmo oder das Wort JANGMO sehen. 

Drücken Sie die Leertaste, um die Aufgabe zu starten.",target4,stimuli/t4.jpg,6,40,stimuli/blank.jpg,blank,False,None,,,,,,,,,,,,,,0,0,0,0,,,,,0,1,1,3,0,39,39,39,,,,,,,,,,,,,,,,,,,,,,,,,,,,,,,,,,,,,,,,,,,,,,,,,,,,,CS1_USneg,None,1,,,,,,,,,,,,,,,,,,19,w,6,n,2019_Nov_20_1102,ec_RRR,3.0.4,59.99448050777994,
Hutter,Das Zielwesen für diese Aufgabe ist Jangmo:,"Also sobald Jangmo (sein Name oder sein Bild) auf dem Bildschirm erscheint, drücken Sie so schnell wie möglich die Leertaste. Drücken Sie die Leertaste, immer wenn Sie ein Bild von Jangmo oder das Wort JANGMO sehen. 

Drücken Sie die Leertaste, um die Aufgabe zu starten.",target4,stimuli/t4.jpg,6,41,stimuli/cs2_pos5.jpg,CSUS,False,None,,,,,,,,,,,,,,0,0,0,0,,,,,0,1,1,3,0,40,40,40,,,,,,,,,,,,,,,,,,,,,,,,,,,,,,,,,,,,,,,,,,,,,,,,,,,,,CS1_USneg,None,1,,,,,,,,,,,,,,,,,,19,w,6,n,2019_Nov_20_1102,ec_RRR,3.0.4,59.99448050777994,
Hutter,Das Zielwesen für diese Aufgabe ist Jangmo:,"Also sobald Jangmo (sein Name oder sein Bild) auf dem Bildschirm erscheint, drücken Sie so schnell wie möglich die Leertaste. Drücken Sie die Leertaste, immer wenn Sie ein Bild von Jangmo oder das Wort JANGMO sehen. 

Drücken Sie die Leertaste, um die Aufgabe zu starten.",target4,stimuli/t4.jpg,6,42,stimuli/blank.jpg,blank,False,None,,,,,,,,,,,,,,0,0,0,0,,,,,0,1,1,3,0,41,41,41,,,,,,,,,,,,,,,,,,,,,,,,,,,,,,,,,,,,,,,,,,,,,,,,,,,,,CS1_USneg,None,1,,,,,,,,,,,,,,,,,,19,w,6,n,2019_Nov_20_1102,ec_RRR,3.0.4,59.99448050777994,
Hutter,Das Zielwesen für diese Aufgabe ist Jangmo:,"Also sobald Jangmo (sein Name oder sein Bild) auf dem Bildschirm erscheint, drücken Sie so schnell wie möglich die Leertaste. Drücken Sie die Leertaste, immer wenn Sie ein Bild von Jangmo oder das Wort JANGMO sehen. 

Drücken Sie die Leertaste, um die Aufgabe zu starten.",target4,stimuli/t4.jpg,6,43,stimuli/filler19.jpg,filler,False,None,,,,,,,,,,,,,,0,0,0,0,,,,,0,1,1,3,0,42,42,42,,,,,,,,,,,,,,,,,,,,,,,,,,,,,,,,,,,,,,,,,,,,,,,,,,,,,CS1_USneg,None,1,,,,,,,,,,,,,,,,,,19,w,6,n,2019_Nov_20_1102,ec_RRR,3.0.4,59.99448050777994,
Hutter,Das Zielwesen für diese Aufgabe ist Jangmo:,"Also sobald Jangmo (sein Name oder sein Bild) auf dem Bildschirm erscheint, drücken Sie so schnell wie möglich die Leertaste. Drücken Sie die Leertaste, immer wenn Sie ein Bild von Jangmo oder das Wort JANGMO sehen. 

Drücken Sie die Leertaste, um die Aufgabe zu starten.",target4,stimuli/t4.jpg,6,44,stimuli/target4_5.jpg,target,True,space,,,,,,,,,,,,,,0,0,0,0,,,,,0,1,1,3,0,43,43,43,,,,,,,,,,,,,,,,,,,,,,,,,,,,,,,,,,,,,,,,,,,,,,,,,,,,,CS1_USneg,space,1,0.4490961999999854,,,,,,,,,,,,,,,,,19,w,6,n,2019_Nov_20_1102,ec_RRR,3.0.4,59.99448050777994,
Hutter,Das Zielwesen für diese Aufgabe ist Jangmo:,"Also sobald Jangmo (sein Name oder sein Bild) auf dem Bildschirm erscheint, drücken Sie so schnell wie möglich die Leertaste. Drücken Sie die Leertaste, immer wenn Sie ein Bild von Jangmo oder das Wort JANGMO sehen. 

Drücken Sie die Leertaste, um die Aufgabe zu starten.",target4,stimuli/t4.jpg,6,45,stimuli/filler40.jpg,filler,False,None,,,,,,,,,,,,,,0,0,0,0,,,,,0,1,1,3,0,44,44,44,,,,,,,,,,,,,,,,,,,,,,,,,,,,,,,,,,,,,,,,,,,,,,,,,,,,,CS1_USneg,None,1,,,,,,,,,,,,,,,,,,19,w,6,n,2019_Nov_20_1102,ec_RRR,3.0.4,59.99448050777994,
Hutter,Das Zielwesen für diese Aufgabe ist Jangmo:,"Also sobald Jangmo (sein Name oder sein Bild) auf dem Bildschirm erscheint, drücken Sie so schnell wie möglich die Leertaste. Drücken Sie die Leertaste, immer wenn Sie ein Bild von Jangmo oder das Wort JANGMO sehen. 

Drücken Sie die Leertaste, um die Aufgabe zu starten.",target4,stimuli/t4.jpg,6,46,stimuli/filler1.jpg,filler,False,None,,,,,,,,,,,,,,0,0,0,0,,,,,0,1,1,3,0,45,45,45,,,,,,,,,,,,,,,,,,,,,,,,,,,,,,,,,,,,,,,,,,,,,,,,,,,,,CS1_USneg,None,1,,,,,,,,,,,,,,,,,,19,w,6,n,2019_Nov_20_1102,ec_RRR,3.0.4,59.99448050777994,
Hutter,Das Zielwesen für diese Aufgabe ist Jangmo:,"Also sobald Jangmo (sein Name oder sein Bild) auf dem Bildschirm erscheint, drücken Sie so schnell wie möglich die Leertaste. Drücken Sie die Leertaste, immer wenn Sie ein Bild von Jangmo oder das Wort JANGMO sehen. 

Drücken Sie die Leertaste, um die Aufgabe zu starten.",target4,stimuli/t4.jpg,6,47,stimuli/filler32.jpg,filler,False,None,,,,,,,,,,,,,,0,0,0,0,,,,,0,1,1,3,0,46,46,46,,,,,,,,,,,,,,,,,,,,,,,,,,,,,,,,,,,,,,,,,,,,,,,,,,,,,CS1_USneg,None,1,,,,,,,,,,,,,,,,,,19,w,6,n,2019_Nov_20_1102,ec_RRR,3.0.4,59.99448050777994,
Hutter,Das Zielwesen für diese Aufgabe ist Jangmo:,"Also sobald Jangmo (sein Name oder sein Bild) auf dem Bildschirm erscheint, drücken Sie so schnell wie möglich die Leertaste. Drücken Sie die Leertaste, immer wenn Sie ein Bild von Jangmo oder das Wort JANGMO sehen. 

Drücken Sie die Leertaste, um die Aufgabe zu starten.",target4,stimuli/t4.jpg,6,48,stimuli/filler30.jpg,filler,False,None,,,,,,,,,,,,,,0,0,0,0,,,,,0,1,1,3,0,47,47,47,,,,,,,,,,,,,,,,,,,,,,,,,,,,,,,,,,,,,,,,,,,,,,,,,,,,,CS1_USneg,None,1,,,,,,,,,,,,,,,,,,19,w,6,n,2019_Nov_20_1102,ec_RRR,3.0.4,59.99448050777994,
Hutter,Das Zielwesen für diese Aufgabe ist Jangmo:,"Also sobald Jangmo (sein Name oder sein Bild) auf dem Bildschirm erscheint, drücken Sie so schnell wie möglich die Leertaste. Drücken Sie die Leertaste, immer wenn Sie ein Bild von Jangmo oder das Wort JANGMO sehen. 

Drücken Sie die Leertaste, um die Aufgabe zu starten.",target4,stimuli/t4.jpg,6,49,stimuli/filler52.jpg,filler,False,None,,,,,,,,,,,,,,0,0,0,0,,,,,0,1,1,3,0,48,48,48,,,,,,,,,,,,,,,,,,,,,,,,,,,,,,,,,,,,,,,,,,,,,,,,,,,,,CS1_USneg,None,1,,,,,,,,,,,,,,,,,,19,w,6,n,2019_Nov_20_1102,ec_RRR,3.0.4,59.99448050777994,
Hutter,Das Zielwesen für diese Aufgabe ist Jangmo:,"Also sobald Jangmo (sein Name oder sein Bild) auf dem Bildschirm erscheint, drücken Sie so schnell wie möglich die Leertaste. Drücken Sie die Leertaste, immer wenn Sie ein Bild von Jangmo oder das Wort JANGMO sehen. 

Drücken Sie die Leertaste, um die Aufgabe zu starten.",target4,stimuli/t4.jpg,6,50,stimuli/blank.jpg,blank,False,None,,,,,,,,,,,,,,0,0,0,0,,,,,0,1,1,3,0,49,49,49,,,,,,,,,,,,,,,,,,,,,,,,,,,,,,,,,,,,,,,,,,,,,,,,,,,,,CS1_USneg,None,1,,,,,,,,,,,,,,,,,,19,w,6,n,2019_Nov_20_1102,ec_RRR,3.0.4,59.99448050777994,
Hutter,Das Zielwesen für diese Aufgabe ist Jangmo:,"Also sobald Jangmo (sein Name oder sein Bild) auf dem Bildschirm erscheint, drücken Sie so schnell wie möglich die Leertaste. Drücken Sie die Leertaste, immer wenn Sie ein Bild von Jangmo oder das Wort JANGMO sehen. 

Drücken Sie die Leertaste, um die Aufgabe zu starten.",target4,stimuli/t4.jpg,6,51,stimuli/cs1_neg8.jpg,CSUS,False,None,,,,,,,,,,,,,,0,0,0,0,,,,,0,1,1,3,0,50,50,50,,,,,,,,,,,,,,,,,,,,,,,,,,,,,,,,,,,,,,,,,,,,,,,,,,,,,CS1_USneg,None,1,,,,,,,,,,,,,,,,,,19,w,6,n,2019_Nov_20_1102,ec_RRR,3.0.4,59.99448050777994,
Hutter,Das Zielwesen für diese Aufgabe ist Jangmo:,"Also sobald Jangmo (sein Name oder sein Bild) auf dem Bildschirm erscheint, drücken Sie so schnell wie möglich die Leertaste. Drücken Sie die Leertaste, immer wenn Sie ein Bild von Jangmo oder das Wort JANGMO sehen. 

Drücken Sie die Leertaste, um die Aufgabe zu starten.",target4,stimuli/t4.jpg,6,52,stimuli/blank.jpg,blank,False,None,,,,,,,,,,,,,,0,0,0,0,,,,,0,1,1,3,0,51,51,51,,,,,,,,,,,,,,,,,,,,,,,,,,,,,,,,,,,,,,,,,,,,,,,,,,,,,CS1_USneg,None,1,,,,,,,,,,,,,,,,,,19,w,6,n,2019_Nov_20_1102,ec_RRR,3.0.4,59.99448050777994,
Hutter,Das Zielwesen für diese Aufgabe ist Jangmo:,"Also sobald Jangmo (sein Name oder sein Bild) auf dem Bildschirm erscheint, drücken Sie so schnell wie möglich die Leertaste. Drücken Sie die Leertaste, immer wenn Sie ein Bild von Jangmo oder das Wort JANGMO sehen. 

Drücken Sie die Leertaste, um die Aufgabe zu starten.",target4,stimuli/t4.jpg,6,53,stimuli/target4_8.jpg,target,True,space,,,,,,,,,,,,,,0,0,0,0,,,,,0,1,1,3,0,52,52,52,,,,,,,,,,,,,,,,,,,,,,,,,,,,,,,,,,,,,,,,,,,,,,,,,,,,,CS1_USneg,space,1,0.5730144000003747,,,,,,,,,,,,,,,,,19,w,6,n,2019_Nov_20_1102,ec_RRR,3.0.4,59.99448050777994,
Hutter,Das Zielwesen für diese Aufgabe ist Jangmo:,"Also sobald Jangmo (sein Name oder sein Bild) auf dem Bildschirm erscheint, drücken Sie so schnell wie möglich die Leertaste. Drücken Sie die Leertaste, immer wenn Sie ein Bild von Jangmo oder das Wort JANGMO sehen. 

Drücken Sie die Leertaste, um die Aufgabe zu starten.",target4,stimuli/t4.jpg,6,54,stimuli/filler22.jpg,filler,False,None,,,,,,,,,,,,,,0,0,0,0,,,,,0,1,1,3,0,53,53,53,,,,,,,,,,,,,,,,,,,,,,,,,,,,,,,,,,,,,,,,,,,,,,,,,,,,,CS1_USneg,None,1,,,,,,,,,,,,,,,,,,19,w,6,n,2019_Nov_20_1102,ec_RRR,3.0.4,59.99448050777994,
Hutter,Das Zielwesen für diese Aufgabe ist Jangmo:,"Also sobald Jangmo (sein Name oder sein Bild) auf dem Bildschirm erscheint, drücken Sie so schnell wie möglich die Leertaste. Drücken Sie die Leertaste, immer wenn Sie ein Bild von Jangmo oder das Wort JANGMO sehen. 

Drücken Sie die Leertaste, um die Aufgabe zu starten.",target4,stimuli/t4.jpg,6,55,stimuli/filler18.jpg,filler,False,None,,,,,,,,,,,,,,0,0,0,0,,,,,0,1,1,3,0,54,54,54,,,,,,,,,,,,,,,,,,,,,,,,,,,,,,,,,,,,,,,,,,,,,,,,,,,,,CS1_USneg,None,1,,,,,,,,,,,,,,,,,,19,w,6,n,2019_Nov_20_1102,ec_RRR,3.0.4,59.99448050777994,
Hutter,Das Zielwesen für diese Aufgabe ist Jangmo:,"Also sobald Jangmo (sein Name oder sein Bild) auf dem Bildschirm erscheint, drücken Sie so schnell wie möglich die Leertaste. Drücken Sie die Leertaste, immer wenn Sie ein Bild von Jangmo oder das Wort JANGMO sehen. 

Drücken Sie die Leertaste, um die Aufgabe zu starten.",target4,stimuli/t4.jpg,6,56,stimuli/filler37.jpg,filler,False,None,,,,,,,,,,,,,,0,0,0,0,,,,,0,1,1,3,0,55,55,55,,,,,,,,,,,,,,,,,,,,,,,,,,,,,,,,,,,,,,,,,,,,,,,,,,,,,CS1_USneg,None,1,,,,,,,,,,,,,,,,,,19,w,6,n,2019_Nov_20_1102,ec_RRR,3.0.4,59.99448050777994,
Hutter,Das Zielwesen für diese Aufgabe ist Jangmo:,"Also sobald Jangmo (sein Name oder sein Bild) auf dem Bildschirm erscheint, drücken Sie so schnell wie möglich die Leertaste. Drücken Sie die Leertaste, immer wenn Sie ein Bild von Jangmo oder das Wort JANGMO sehen. 

Drücken Sie die Leertaste, um die Aufgabe zu starten.",target4,stimuli/t4.jpg,6,57,stimuli/target4_4.jpg,target,True,space,,,,,,,,,,,,,,0,0,0,0,,,,,0,1,1,3,0,56,56,56,,,,,,,,,,,,,,,,,,,,,,,,,,,,,,,,,,,,,,,,,,,,,,,,,,,,,CS1_USneg,space,1,0.5329322000002321,,,,,,,,,,,,,,,,,19,w,6,n,2019_Nov_20_1102,ec_RRR,3.0.4,59.99448050777994,
Hutter,Das Zielwesen für diese Aufgabe ist Jangmo:,"Also sobald Jangmo (sein Name oder sein Bild) auf dem Bildschirm erscheint, drücken Sie so schnell wie möglich die Leertaste. Drücken Sie die Leertaste, immer wenn Sie ein Bild von Jangmo oder das Wort JANGMO sehen. 

Drücken Sie die Leertaste, um die Aufgabe zu starten.",target4,stimuli/t4.jpg,6,58,stimuli/filler15.jpg,filler,False,None,,,,,,,,,,,,,,0,0,0,0,,,,,0,1,1,3,0,57,57,57,,,,,,,,,,,,,,,,,,,,,,,,,,,,,,,,,,,,,,,,,,,,,,,,,,,,,CS1_USneg,None,1,,,,,,,,,,,,,,,,,,19,w,6,n,2019_Nov_20_1102,ec_RRR,3.0.4,59.99448050777994,
Hutter,Das Zielwesen für diese Aufgabe ist Jangmo:,"Also sobald Jangmo (sein Name oder sein Bild) auf dem Bildschirm erscheint, drücken Sie so schnell wie möglich die Leertaste. Drücken Sie die Leertaste, immer wenn Sie ein Bild von Jangmo oder das Wort JANGMO sehen. 

Drücken Sie die Leertaste, um die Aufgabe zu starten.",target4,stimuli/t4.jpg,6,59,stimuli/filler38.jpg,filler,False,None,,,,,,,,,,,,,,0,0,0,0,,,,,0,1,1,3,0,58,58,58,,,,,,,,,,,,,,,,,,,,,,,,,,,,,,,,,,,,,,,,,,,,,,,,,,,,,CS1_USneg,None,1,,,,,,,,,,,,,,,,,,19,w,6,n,2019_Nov_20_1102,ec_RRR,3.0.4,59.99448050777994,
Hutter,Das Zielwesen für diese Aufgabe ist Jangmo:,"Also sobald Jangmo (sein Name oder sein Bild) auf dem Bildschirm erscheint, drücken Sie so schnell wie möglich die Leertaste. Drücken Sie die Leertaste, immer wenn Sie ein Bild von Jangmo oder das Wort JANGMO sehen. 

Drücken Sie die Leertaste, um die Aufgabe zu starten.",target4,stimuli/t4.jpg,6,60,stimuli/blank.jpg,blank,False,None,,,,,,,,,,,,,,0,0,0,0,,,,,0,1,1,3,0,59,59,59,,,,,,,,,,,,,,,,,,,,,,,,,,,,,,,,,,,,,,,,,,,,,,,,,,,,,CS1_USneg,None,1,,,,,,,,,,,,,,,,,,19,w,6,n,2019_Nov_20_1102,ec_RRR,3.0.4,59.99448050777994,
Hutter,Das Zielwesen für diese Aufgabe ist Jangmo:,"Also sobald Jangmo (sein Name oder sein Bild) auf dem Bildschirm erscheint, drücken Sie so schnell wie möglich die Leertaste. Drücken Sie die Leertaste, immer wenn Sie ein Bild von Jangmo oder das Wort JANGMO sehen. 

Drücken Sie die Leertaste, um die Aufgabe zu starten.",target4,stimuli/t4.jpg,6,61,stimuli/cs2_pos1.jpg,CSUS,False,None,,,,,,,,,,,,,,0,0,0,0,,,,,0,1,1,3,0,60,60,60,,,,,,,,,,,,,,,,,,,,,,,,,,,,,,,,,,,,,,,,,,,,,,,,,,,,,CS1_USneg,None,1,,,,,,,,,,,,,,,,,,19,w,6,n,2019_Nov_20_1102,ec_RRR,3.0.4,59.99448050777994,
Hutter,Das Zielwesen für diese Aufgabe ist Jangmo:,"Also sobald Jangmo (sein Name oder sein Bild) auf dem Bildschirm erscheint, drücken Sie so schnell wie möglich die Leertaste. Drücken Sie die Leertaste, immer wenn Sie ein Bild von Jangmo oder das Wort JANGMO sehen. 

Drücken Sie die Leertaste, um die Aufgabe zu starten.",target4,stimuli/t4.jpg,6,62,stimuli/blank.jpg,blank,False,None,,,,,,,,,,,,,,0,0,0,0,,,,,0,1,1,3,0,61,61,61,,,,,,,,,,,,,,,,,,,,,,,,,,,,,,,,,,,,,,,,,,,,,,,,,,,,,CS1_USneg,None,1,,,,,,,,,,,,,,,,,,19,w,6,n,2019_Nov_20_1102,ec_RRR,3.0.4,59.99448050777994,
Hutter,Das Zielwesen für diese Aufgabe ist Jangmo:,"Also sobald Jangmo (sein Name oder sein Bild) auf dem Bildschirm erscheint, drücken Sie so schnell wie möglich die Leertaste. Drücken Sie die Leertaste, immer wenn Sie ein Bild von Jangmo oder das Wort JANGMO sehen. 

Drücken Sie die Leertaste, um die Aufgabe zu starten.",target4,stimuli/t4.jpg,6,63,stimuli/filler33.jpg,filler,False,None,,,,,,,,,,,,,,0,0,0,0,,,,,0,1,1,3,0,62,62,62,,,,,,,,,,,,,,,,,,,,,,,,,,,,,,,,,,,,,,,,,,,,,,,,,,,,,CS1_USneg,None,1,,,,,,,,,,,,,,,,,,19,w,6,n,2019_Nov_20_1102,ec_RRR,3.0.4,59.99448050777994,
Hutter,Das Zielwesen für diese Aufgabe ist Jangmo:,"Also sobald Jangmo (sein Name oder sein Bild) auf dem Bildschirm erscheint, drücken Sie so schnell wie möglich die Leertaste. Drücken Sie die Leertaste, immer wenn Sie ein Bild von Jangmo oder das Wort JANGMO sehen. 

Drücken Sie die Leertaste, um die Aufgabe zu starten.",target4,stimuli/t4.jpg,6,64,stimuli/filler46.jpg,filler,False,None,,,,,,,,,,,,,,0,0,0,0,,,,,0,1,1,3,0,63,63,63,,,,,,,,,,,,,,,,,,,,,,,,,,,,,,,,,,,,,,,,,,,,,,,,,,,,,CS1_USneg,None,1,,,,,,,,,,,,,,,,,,19,w,6,n,2019_Nov_20_1102,ec_RRR,3.0.4,59.99448050777994,
Hutter,Das Zielwesen für diese Aufgabe ist Jangmo:,"Also sobald Jangmo (sein Name oder sein Bild) auf dem Bildschirm erscheint, drücken Sie so schnell wie möglich die Leertaste. Drücken Sie die Leertaste, immer wenn Sie ein Bild von Jangmo oder das Wort JANGMO sehen. 

Drücken Sie die Leertaste, um die Aufgabe zu starten.",target4,stimuli/t4.jpg,6,65,stimuli/target4_10.jpg,target,True,space,,,,,,,,,,,,,,0,0,0,0,,,,,0,1,1,3,0,64,64,64,,,,,,,,,,,,,,,,,,,,,,,,,,,,,,,,,,,,,,,,,,,,,,,,,,,,,CS1_USneg,space,1,0.40646430000015243,,,,,,,,,,,,,,,,,19,w,6,n,2019_Nov_20_1102,ec_RRR,3.0.4,59.99448050777994,
Hutter,Das Zielwesen für diese Aufgabe ist Jangmo:,"Also sobald Jangmo (sein Name oder sein Bild) auf dem Bildschirm erscheint, drücken Sie so schnell wie möglich die Leertaste. Drücken Sie die Leertaste, immer wenn Sie ein Bild von Jangmo oder das Wort JANGMO sehen. 

Drücken Sie die Leertaste, um die Aufgabe zu starten.",target4,stimuli/t4.jpg,6,66,stimuli/filler4.jpg,filler,False,None,,,,,,,,,,,,,,0,0,0,0,,,,,0,1,1,3,0,65,65,65,,,,,,,,,,,,,,,,,,,,,,,,,,,,,,,,,,,,,,,,,,,,,,,,,,,,,CS1_USneg,None,1,,,,,,,,,,,,,,,,,,19,w,6,n,2019_Nov_20_1102,ec_RRR,3.0.4,59.99448050777994,
Hutter,Das Zielwesen für diese Aufgabe ist Jangmo:,"Also sobald Jangmo (sein Name oder sein Bild) auf dem Bildschirm erscheint, drücken Sie so schnell wie möglich die Leertaste. Drücken Sie die Leertaste, immer wenn Sie ein Bild von Jangmo oder das Wort JANGMO sehen. 

Drücken Sie die Leertaste, um die Aufgabe zu starten.",target4,stimuli/t4.jpg,6,67,stimuli/filler5.jpg,filler,False,None,,,,,,,,,,,,,,0,0,0,0,,,,,0,1,1,3,0,66,66,66,,,,,,,,,,,,,,,,,,,,,,,,,,,,,,,,,,,,,,,,,,,,,,,,,,,,,CS1_USneg,None,1,,,,,,,,,,,,,,,,,,19,w,6,n,2019_Nov_20_1102,ec_RRR,3.0.4,59.99448050777994,
Hutter,Das Zielwesen für diese Aufgabe ist Jangmo:,"Also sobald Jangmo (sein Name oder sein Bild) auf dem Bildschirm erscheint, drücken Sie so schnell wie möglich die Leertaste. Drücken Sie die Leertaste, immer wenn Sie ein Bild von Jangmo oder das Wort JANGMO sehen. 

Drücken Sie die Leertaste, um die Aufgabe zu starten.",target4,stimuli/t4.jpg,6,68,stimuli/target4_1.jpg,target,True,space,,,,,,,,,,,,,,0,0,0,0,,,,,0,1,1,3,0,67,67,67,,,,,,,,,,,,,,,,,,,,,,,,,,,,,,,,,,,,,,,,,,,,,,,,,,,,,CS1_USneg,space,1,0.590547300000253,,,,,,,,,,,,,,,,,19,w,6,n,2019_Nov_20_1102,ec_RRR,3.0.4,59.99448050777994,
Hutter,Das Zielwesen für diese Aufgabe ist Jangmo:,"Also sobald Jangmo (sein Name oder sein Bild) auf dem Bildschirm erscheint, drücken Sie so schnell wie möglich die Leertaste. Drücken Sie die Leertaste, immer wenn Sie ein Bild von Jangmo oder das Wort JANGMO sehen. 

Drücken Sie die Leertaste, um die Aufgabe zu starten.",target4,stimuli/t4.jpg,6,69,stimuli/filler51.jpg,filler,False,None,,,,,,,,,,,,,,0,0,0,0,,,,,0,1,1,3,0,68,68,68,,,,,,,,,,,,,,,,,,,,,,,,,,,,,,,,,,,,,,,,,,,,,,,,,,,,,CS1_USneg,None,1,,,,,,,,,,,,,,,,,,19,w,6,n,2019_Nov_20_1102,ec_RRR,3.0.4,59.99448050777994,
Hutter,Das Zielwesen für diese Aufgabe ist Jangmo:,"Also sobald Jangmo (sein Name oder sein Bild) auf dem Bildschirm erscheint, drücken Sie so schnell wie möglich die Leertaste. Drücken Sie die Leertaste, immer wenn Sie ein Bild von Jangmo oder das Wort JANGMO sehen. 

Drücken Sie die Leertaste, um die Aufgabe zu starten.",target4,stimuli/t4.jpg,6,70,stimuli/blank.jpg,blank,False,None,,,,,,,,,,,,,,0,0,0,0,,,,,0,1,1,3,0,69,69,69,,,,,,,,,,,,,,,,,,,,,,,,,,,,,,,,,,,,,,,,,,,,,,,,,,,,,CS1_USneg,None,1,,,,,,,,,,,,,,,,,,19,w,6,n,2019_Nov_20_1102,ec_RRR,3.0.4,59.99448050777994,
Hutter,Das Zielwesen für diese Aufgabe ist Jangmo:,"Also sobald Jangmo (sein Name oder sein Bild) auf dem Bildschirm erscheint, drücken Sie so schnell wie möglich die Leertaste. Drücken Sie die Leertaste, immer wenn Sie ein Bild von Jangmo oder das Wort JANGMO sehen. 

Drücken Sie die Leertaste, um die Aufgabe zu starten.",target4,stimuli/t4.jpg,6,71,stimuli/cs1_neg17.jpg,CSUS,False,None,,,,,,,,,,,,,,0,0,0,0,,,,,0,1,1,3,0,70,70,70,,,,,,,,,,,,,,,,,,,,,,,,,,,,,,,,,,,,,,,,,,,,,,,,,,,,,CS1_USneg,None,1,,,,,,,,,,,,,,,,,,19,w,6,n,2019_Nov_20_1102,ec_RRR,3.0.4,59.99448050777994,
Hutter,Das Zielwesen für diese Aufgabe ist Jangmo:,"Also sobald Jangmo (sein Name oder sein Bild) auf dem Bildschirm erscheint, drücken Sie so schnell wie möglich die Leertaste. Drücken Sie die Leertaste, immer wenn Sie ein Bild von Jangmo oder das Wort JANGMO sehen. 

Drücken Sie die Leertaste, um die Aufgabe zu starten.",target4,stimuli/t4.jpg,6,72,stimuli/blank.jpg,blank,False,None,,,,,,,,,,,,,,0,0,0,0,,,,,0,1,1,3,0,71,71,71,,,,,,,,,,,,,,,,,,,,,,,,,,,,,,,,,,,,,,,,,,,,,,,,,,,,,CS1_USneg,None,1,,,,,,,,,,,,,,,,,,19,w,6,n,2019_Nov_20_1102,ec_RRR,3.0.4,59.99448050777994,
Hutter,Das Zielwesen für diese Aufgabe ist Jangmo:,"Also sobald Jangmo (sein Name oder sein Bild) auf dem Bildschirm erscheint, drücken Sie so schnell wie möglich die Leertaste. Drücken Sie die Leertaste, immer wenn Sie ein Bild von Jangmo oder das Wort JANGMO sehen. 

Drücken Sie die Leertaste, um die Aufgabe zu starten.",target4,stimuli/t4.jpg,6,73,stimuli/filler49.jpg,filler,False,None,,,,,,,,,,,,,,0,0,0,0,,,,,0,1,1,3,0,72,72,72,,,,,,,,,,,,,,,,,,,,,,,,,,,,,,,,,,,,,,,,,,,,,,,,,,,,,CS1_USneg,None,1,,,,,,,,,,,,,,,,,,19,w,6,n,2019_Nov_20_1102,ec_RRR,3.0.4,59.99448050777994,
Hutter,Das Zielwesen für diese Aufgabe ist Jangmo:,"Also sobald Jangmo (sein Name oder sein Bild) auf dem Bildschirm erscheint, drücken Sie so schnell wie möglich die Leertaste. Drücken Sie die Leertaste, immer wenn Sie ein Bild von Jangmo oder das Wort JANGMO sehen. 

Drücken Sie die Leertaste, um die Aufgabe zu starten.",target4,stimuli/t4.jpg,6,74,stimuli/filler2.jpg,filler,False,None,,,,,,,,,,,,,,0,0,0,0,,,,,0,1,1,3,0,73,73,73,,,,,,,,,,,,,,,,,,,,,,,,,,,,,,,,,,,,,,,,,,,,,,,,,,,,,CS1_USneg,None,1,,,,,,,,,,,,,,,,,,19,w,6,n,2019_Nov_20_1102,ec_RRR,3.0.4,59.99448050777994,
Hutter,Das Zielwesen für diese Aufgabe ist Jangmo:,"Also sobald Jangmo (sein Name oder sein Bild) auf dem Bildschirm erscheint, drücken Sie so schnell wie möglich die Leertaste. Drücken Sie die Leertaste, immer wenn Sie ein Bild von Jangmo oder das Wort JANGMO sehen. 

Drücken Sie die Leertaste, um die Aufgabe zu starten.",target4,stimuli/t4.jpg,6,75,stimuli/target4_9.jpg,target,True,space,,,,,,,,,,,,,,0,0,0,0,,,,,0,1,1,3,0,74,74,74,,,,,,,,,,,,,,,,,,,,,,,,,,,,,,,,,,,,,,,,,,,,,,,,,,,,,CS1_USneg,space,1,0.6216539000001831,,,,,,,,,,,,,,,,,19,w,6,n,2019_Nov_20_1102,ec_RRR,3.0.4,59.99448050777994,
Hutter,Das Zielwesen für diese Aufgabe ist Jangmo:,"Also sobald Jangmo (sein Name oder sein Bild) auf dem Bildschirm erscheint, drücken Sie so schnell wie möglich die Leertaste. Drücken Sie die Leertaste, immer wenn Sie ein Bild von Jangmo oder das Wort JANGMO sehen. 

Drücken Sie die Leertaste, um die Aufgabe zu starten.",target4,stimuli/t4.jpg,6,76,stimuli/target4_6.jpg,target,True,space,,,,,,,,,,,,,,0,0,0,0,,,,,0,1,1,3,0,75,75,75,,,,,,,,,,,,,,,,,,,,,,,,,,,,,,,,,,,,,,,,,,,,,,,,,,,,,CS1_USneg,space,1,0.657433200000014,,,,,,,,,,,,,,,,,19,w,6,n,2019_Nov_20_1102,ec_RRR,3.0.4,59.99448050777994,
Hutter,Das Zielwesen für diese Aufgabe ist Jangmo:,"Also sobald Jangmo (sein Name oder sein Bild) auf dem Bildschirm erscheint, drücken Sie so schnell wie möglich die Leertaste. Drücken Sie die Leertaste, immer wenn Sie ein Bild von Jangmo oder das Wort JANGMO sehen. 

Drücken Sie die Leertaste, um die Aufgabe zu starten.",target4,stimuli/t4.jpg,6,77,stimuli/filler36.jpg,filler,False,None,,,,,,,,,,,,,,0,0,0,0,,,,,0,1,1,3,0,76,76,76,,,,,,,,,,,,,,,,,,,,,,,,,,,,,,,,,,,,,,,,,,,,,,,,,,,,,CS1_USneg,None,1,,,,,,,,,,,,,,,,,,19,w,6,n,2019_Nov_20_1102,ec_RRR,3.0.4,59.99448050777994,
Hutter,Das Zielwesen für diese Aufgabe ist Jangmo:,"Also sobald Jangmo (sein Name oder sein Bild) auf dem Bildschirm erscheint, drücken Sie so schnell wie möglich die Leertaste. Drücken Sie die Leertaste, immer wenn Sie ein Bild von Jangmo oder das Wort JANGMO sehen. 

Drücken Sie die Leertaste, um die Aufgabe zu starten.",target4,stimuli/t4.jpg,6,78,stimuli/filler48.jpg,filler,False,None,,,,,,,,,,,,,,0,0,0,0,,,,,0,1,1,3,0,77,77,77,,,,,,,,,,,,,,,,,,,,,,,,,,,,,,,,,,,,,,,,,,,,,,,,,,,,,CS1_USneg,None,1,,,,,,,,,,,,,,,,,,19,w,6,n,2019_Nov_20_1102,ec_RRR,3.0.4,59.99448050777994,
Hutter,Das Zielwesen für diese Aufgabe ist Jangmo:,"Also sobald Jangmo (sein Name oder sein Bild) auf dem Bildschirm erscheint, drücken Sie so schnell wie möglich die Leertaste. Drücken Sie die Leertaste, immer wenn Sie ein Bild von Jangmo oder das Wort JANGMO sehen. 

Drücken Sie die Leertaste, um die Aufgabe zu starten.",target4,stimuli/t4.jpg,6,79,stimuli/filler24.jpg,filler,False,None,,,,,,,,,,,,,,0,0,0,0,,,,,0,1,1,3,0,78,78,78,,,,,,,,,,,,,,,,,,,,,,,,,,,,,,,,,,,,,,,,,,,,,,,,,,,,,CS1_USneg,None,1,,,,,,,,,,,,,,,,,,19,w,6,n,2019_Nov_20_1102,ec_RRR,3.0.4,59.99448050777994,
Hutter,Das Zielwesen für diese Aufgabe ist Jangmo:,"Also sobald Jangmo (sein Name oder sein Bild) auf dem Bildschirm erscheint, drücken Sie so schnell wie möglich die Leertaste. Drücken Sie die Leertaste, immer wenn Sie ein Bild von Jangmo oder das Wort JANGMO sehen. 

Drücken Sie die Leertaste, um die Aufgabe zu starten.",target4,stimuli/t4.jpg,6,80,stimuli/blank.jpg,blank,False,None,,,,,,,,,,,,,,0,0,0,0,,,,,0,1,1,3,0,79,79,79,,,,,,,,,,,,,,,,,,,,,,,,,,,,,,,,,,,,,,,,,,,,,,,,,,,,,CS1_USneg,None,1,,,,,,,,,,,,,,,,,,19,w,6,n,2019_Nov_20_1102,ec_RRR,3.0.4,59.99448050777994,
Hutter,Das Zielwesen für diese Aufgabe ist Jangmo:,"Also sobald Jangmo (sein Name oder sein Bild) auf dem Bildschirm erscheint, drücken Sie so schnell wie möglich die Leertaste. Drücken Sie die Leertaste, immer wenn Sie ein Bild von Jangmo oder das Wort JANGMO sehen. 

Drücken Sie die Leertaste, um die Aufgabe zu starten.",target4,stimuli/t4.jpg,6,81,stimuli/cs2_pos20.jpg,CSUS,False,None,,,,,,,,,,,,,,0,0,0,0,,,,,0,1,1,3,0,80,80,80,,,,,,,,,,,,,,,,,,,,,,,,,,,,,,,,,,,,,,,,,,,,,,,,,,,,,CS1_USneg,None,1,,,,,,,,,,,,,,,,,,19,w,6,n,2019_Nov_20_1102,ec_RRR,3.0.4,59.99448050777994,
