data_collection_site,instructions_text_top,instructions_text_bottom,block_id,example_image,participant,trial_number,stimulus,trial_type,target_trial,surveillance_correct_response,filler_1_items,filler_2_items,middle_text,left_text,right_text,evaluation_stimulus,left_stimulus,right_stimulus,evaluation_response_indicating_CS1_preferred,awareness_1_question_text,awareness_2a_question_text,awareness_2b_question_text,awareness_2_question_text,record_data_collection_site_variable.thisRepN,record_data_collection_site_variable.thisTrialN,record_data_collection_site_variable.thisN,record_data_collection_site_variable.thisIndex,surveillance_instructions_loop.thisRepN,surveillance_instructions_loop.thisTrialN,surveillance_instructions_loop.thisN,surveillance_instructions_loop.thisIndex,surveillance_blocks_loop.thisRepN,surveillance_blocks_loop.thisTrialN,surveillance_blocks_loop.thisN,surveillance_blocks_loop.thisIndex,surveillance_trials_loop.thisRepN,surveillance_trials_loop.thisTrialN,surveillance_trials_loop.thisN,surveillance_trials_loop.thisIndex,filler_1_instructions_loop.thisRepN,filler_1_instructions_loop.thisTrialN,filler_1_instructions_loop.thisN,filler_1_instructions_loop.thisIndex,filler_1_loop.thisRepN,filler_1_loop.thisTrialN,filler_1_loop.thisN,filler_1_loop.thisIndex,filler_2_instructions_loop.thisRepN,filler_2_instructions_loop.thisTrialN,filler_2_instructions_loop.thisN,filler_2_instructions_loop.thisIndex,filler_2_loop.thisRepN,filler_2_loop.thisTrialN,filler_2_loop.thisN,filler_2_loop.thisIndex,evaluation_instructions_loop.thisRepN,evaluation_instructions_loop.thisTrialN,evaluation_instructions_loop.thisN,evaluation_instructions_loop.thisIndex,evaluation_loop.thisRepN,evaluation_loop.thisTrialN,evaluation_loop.thisN,evaluation_loop.thisIndex,evaluation_trials.thisRepN,evaluation_trials.thisTrialN,evaluation_trials.thisN,evaluation_trials.thisIndex,awareness_instructions_loop.thisRepN,awareness_instructions_loop.thisTrialN,awareness_instructions_loop.thisN,awareness_instructions_loop.thisIndex,awareness_1_trials_loop.thisRepN,awareness_1_trials_loop.thisTrialN,awareness_1_trials_loop.thisN,awareness_1_trials_loop.thisIndex,awareness_2a_trials_loop.thisRepN,awareness_2a_trials_loop.thisTrialN,awareness_2a_trials_loop.thisN,awareness_2a_trials_loop.thisIndex,awareness_2b_trials_loop.thisRepN,awareness_2b_trials_loop.thisTrialN,awareness_2b_trials_loop.thisN,awareness_2b_trials_loop.thisIndex,awareness_2c_trials_loop.thisRepN,awareness_2c_trials_loop.thisTrialN,awareness_2c_trials_loop.thisN,awareness_2c_trials_loop.thisIndex,end_message_loop.thisRepN,end_message_loop.thisTrialN,end_message_loop.thisN,end_message_loop.thisIndex,condition,surveillance_response.keys,surveillance_response.corr,surveillance_response.rt,filler_1_rating.response,filler_1_rating.rt,filler_2_rating.response,filler_2_rating.rt,evaluation_response.keys,evaluation_response.corr,evaluation_response.rt,inputText,awareness_1_response.keys,awareness_1_response.rt,awareness_type_2a_rating.response,awareness_type_2a_rating.rt,awareness_type_2b_rating.response,awareness_type_2b_rating.rt,awareness_type_2c_rating.response,awareness_type_2c_rating.rt,age,gender,participant,UseMonkey,date,expName,psychopyVersion,frameRate,
Hutter,Das Zielwesen für diese Aufgabe ist Gourgeist:,"Also sobald Gourgeist (sein Name oder sein Bild) auf dem Bildschirm erscheint, drücken Sie so schnell wie möglich die Leertaste. Drücken Sie die Leertaste, immer wenn Sie ein Bild von Gourgeist oder das Wort GOURGEIST sehen. 

Drücken Sie die Leertaste, um die Aufgabe zu starten.",target5,stimuli/t5.jpg,98,1,stimuli/filler15.jpg,filler,False,None,,,,,,,,,,,,,,0,0,0,0,,,,,0,0,0,4,0,0,0,0,,,,,,,,,,,,,,,,,,,,,,,,,,,,,,,,,,,,,,,,,,,,,,,,,,,,,CS1_USpos,None,1,,,,,,,,,,,,,,,,,,20,w,98,n,2019_Dec_04_1057,ec_RRR,3.0.4,59.92692510779117,
Hutter,Das Zielwesen für diese Aufgabe ist Gourgeist:,"Also sobald Gourgeist (sein Name oder sein Bild) auf dem Bildschirm erscheint, drücken Sie so schnell wie möglich die Leertaste. Drücken Sie die Leertaste, immer wenn Sie ein Bild von Gourgeist oder das Wort GOURGEIST sehen. 

Drücken Sie die Leertaste, um die Aufgabe zu starten.",target5,stimuli/t5.jpg,98,2,stimuli/filler8.jpg,filler,False,None,,,,,,,,,,,,,,0,0,0,0,,,,,0,0,0,4,0,1,1,1,,,,,,,,,,,,,,,,,,,,,,,,,,,,,,,,,,,,,,,,,,,,,,,,,,,,,CS1_USpos,None,1,,,,,,,,,,,,,,,,,,20,w,98,n,2019_Dec_04_1057,ec_RRR,3.0.4,59.92692510779117,
Hutter,Das Zielwesen für diese Aufgabe ist Gourgeist:,"Also sobald Gourgeist (sein Name oder sein Bild) auf dem Bildschirm erscheint, drücken Sie so schnell wie möglich die Leertaste. Drücken Sie die Leertaste, immer wenn Sie ein Bild von Gourgeist oder das Wort GOURGEIST sehen. 

Drücken Sie die Leertaste, um die Aufgabe zu starten.",target5,stimuli/t5.jpg,98,3,stimuli/filler14.jpg,filler,False,None,,,,,,,,,,,,,,0,0,0,0,,,,,0,0,0,4,0,2,2,2,,,,,,,,,,,,,,,,,,,,,,,,,,,,,,,,,,,,,,,,,,,,,,,,,,,,,CS1_USpos,None,1,,,,,,,,,,,,,,,,,,20,w,98,n,2019_Dec_04_1057,ec_RRR,3.0.4,59.92692510779117,
Hutter,Das Zielwesen für diese Aufgabe ist Gourgeist:,"Also sobald Gourgeist (sein Name oder sein Bild) auf dem Bildschirm erscheint, drücken Sie so schnell wie möglich die Leertaste. Drücken Sie die Leertaste, immer wenn Sie ein Bild von Gourgeist oder das Wort GOURGEIST sehen. 

Drücken Sie die Leertaste, um die Aufgabe zu starten.",target5,stimuli/t5.jpg,98,4,stimuli/filler48.jpg,filler,False,None,,,,,,,,,,,,,,0,0,0,0,,,,,0,0,0,4,0,3,3,3,,,,,,,,,,,,,,,,,,,,,,,,,,,,,,,,,,,,,,,,,,,,,,,,,,,,,CS1_USpos,None,1,,,,,,,,,,,,,,,,,,20,w,98,n,2019_Dec_04_1057,ec_RRR,3.0.4,59.92692510779117,
Hutter,Das Zielwesen für diese Aufgabe ist Gourgeist:,"Also sobald Gourgeist (sein Name oder sein Bild) auf dem Bildschirm erscheint, drücken Sie so schnell wie möglich die Leertaste. Drücken Sie die Leertaste, immer wenn Sie ein Bild von Gourgeist oder das Wort GOURGEIST sehen. 

Drücken Sie die Leertaste, um die Aufgabe zu starten.",target5,stimuli/t5.jpg,98,5,stimuli/filler13.jpg,filler,False,None,,,,,,,,,,,,,,0,0,0,0,,,,,0,0,0,4,0,4,4,4,,,,,,,,,,,,,,,,,,,,,,,,,,,,,,,,,,,,,,,,,,,,,,,,,,,,,CS1_USpos,None,1,,,,,,,,,,,,,,,,,,20,w,98,n,2019_Dec_04_1057,ec_RRR,3.0.4,59.92692510779117,
Hutter,Das Zielwesen für diese Aufgabe ist Gourgeist:,"Also sobald Gourgeist (sein Name oder sein Bild) auf dem Bildschirm erscheint, drücken Sie so schnell wie möglich die Leertaste. Drücken Sie die Leertaste, immer wenn Sie ein Bild von Gourgeist oder das Wort GOURGEIST sehen. 

Drücken Sie die Leertaste, um die Aufgabe zu starten.",target5,stimuli/t5.jpg,98,6,stimuli/filler22.jpg,filler,False,None,,,,,,,,,,,,,,0,0,0,0,,,,,0,0,0,4,0,5,5,5,,,,,,,,,,,,,,,,,,,,,,,,,,,,,,,,,,,,,,,,,,,,,,,,,,,,,CS1_USpos,None,1,,,,,,,,,,,,,,,,,,20,w,98,n,2019_Dec_04_1057,ec_RRR,3.0.4,59.92692510779117,
Hutter,Das Zielwesen für diese Aufgabe ist Gourgeist:,"Also sobald Gourgeist (sein Name oder sein Bild) auf dem Bildschirm erscheint, drücken Sie so schnell wie möglich die Leertaste. Drücken Sie die Leertaste, immer wenn Sie ein Bild von Gourgeist oder das Wort GOURGEIST sehen. 

Drücken Sie die Leertaste, um die Aufgabe zu starten.",target5,stimuli/t5.jpg,98,7,stimuli/filler12.jpg,filler,False,None,,,,,,,,,,,,,,0,0,0,0,,,,,0,0,0,4,0,6,6,6,,,,,,,,,,,,,,,,,,,,,,,,,,,,,,,,,,,,,,,,,,,,,,,,,,,,,CS1_USpos,None,1,,,,,,,,,,,,,,,,,,20,w,98,n,2019_Dec_04_1057,ec_RRR,3.0.4,59.92692510779117,
Hutter,Das Zielwesen für diese Aufgabe ist Gourgeist:,"Also sobald Gourgeist (sein Name oder sein Bild) auf dem Bildschirm erscheint, drücken Sie so schnell wie möglich die Leertaste. Drücken Sie die Leertaste, immer wenn Sie ein Bild von Gourgeist oder das Wort GOURGEIST sehen. 

Drücken Sie die Leertaste, um die Aufgabe zu starten.",target5,stimuli/t5.jpg,98,8,stimuli/filler2.jpg,filler,False,None,,,,,,,,,,,,,,0,0,0,0,,,,,0,0,0,4,0,7,7,7,,,,,,,,,,,,,,,,,,,,,,,,,,,,,,,,,,,,,,,,,,,,,,,,,,,,,CS1_USpos,None,1,,,,,,,,,,,,,,,,,,20,w,98,n,2019_Dec_04_1057,ec_RRR,3.0.4,59.92692510779117,
Hutter,Das Zielwesen für diese Aufgabe ist Gourgeist:,"Also sobald Gourgeist (sein Name oder sein Bild) auf dem Bildschirm erscheint, drücken Sie so schnell wie möglich die Leertaste. Drücken Sie die Leertaste, immer wenn Sie ein Bild von Gourgeist oder das Wort GOURGEIST sehen. 

Drücken Sie die Leertaste, um die Aufgabe zu starten.",target5,stimuli/t5.jpg,98,9,stimuli/target5_1.jpg,target,True,space,,,,,,,,,,,,,,0,0,0,0,,,,,0,0,0,4,0,8,8,8,,,,,,,,,,,,,,,,,,,,,,,,,,,,,,,,,,,,,,,,,,,,,,,,,,,,,CS1_USpos,space,1,0.6047378000002936,,,,,,,,,,,,,,,,,20,w,98,n,2019_Dec_04_1057,ec_RRR,3.0.4,59.92692510779117,
Hutter,Das Zielwesen für diese Aufgabe ist Gourgeist:,"Also sobald Gourgeist (sein Name oder sein Bild) auf dem Bildschirm erscheint, drücken Sie so schnell wie möglich die Leertaste. Drücken Sie die Leertaste, immer wenn Sie ein Bild von Gourgeist oder das Wort GOURGEIST sehen. 

Drücken Sie die Leertaste, um die Aufgabe zu starten.",target5,stimuli/t5.jpg,98,10,stimuli/blank.jpg,blank,False,None,,,,,,,,,,,,,,0,0,0,0,,,,,0,0,0,4,0,9,9,9,,,,,,,,,,,,,,,,,,,,,,,,,,,,,,,,,,,,,,,,,,,,,,,,,,,,,CS1_USpos,None,1,,,,,,,,,,,,,,,,,,20,w,98,n,2019_Dec_04_1057,ec_RRR,3.0.4,59.92692510779117,
Hutter,Das Zielwesen für diese Aufgabe ist Gourgeist:,"Also sobald Gourgeist (sein Name oder sein Bild) auf dem Bildschirm erscheint, drücken Sie so schnell wie möglich die Leertaste. Drücken Sie die Leertaste, immer wenn Sie ein Bild von Gourgeist oder das Wort GOURGEIST sehen. 

Drücken Sie die Leertaste, um die Aufgabe zu starten.",target5,stimuli/t5.jpg,98,11,stimuli/cs1_pos2.jpg,CSUS,False,None,,,,,,,,,,,,,,0,0,0,0,,,,,0,0,0,4,0,10,10,10,,,,,,,,,,,,,,,,,,,,,,,,,,,,,,,,,,,,,,,,,,,,,,,,,,,,,CS1_USpos,None,1,,,,,,,,,,,,,,,,,,20,w,98,n,2019_Dec_04_1057,ec_RRR,3.0.4,59.92692510779117,
Hutter,Das Zielwesen für diese Aufgabe ist Gourgeist:,"Also sobald Gourgeist (sein Name oder sein Bild) auf dem Bildschirm erscheint, drücken Sie so schnell wie möglich die Leertaste. Drücken Sie die Leertaste, immer wenn Sie ein Bild von Gourgeist oder das Wort GOURGEIST sehen. 

Drücken Sie die Leertaste, um die Aufgabe zu starten.",target5,stimuli/t5.jpg,98,12,stimuli/blank.jpg,blank,False,None,,,,,,,,,,,,,,0,0,0,0,,,,,0,0,0,4,0,11,11,11,,,,,,,,,,,,,,,,,,,,,,,,,,,,,,,,,,,,,,,,,,,,,,,,,,,,,CS1_USpos,None,1,,,,,,,,,,,,,,,,,,20,w,98,n,2019_Dec_04_1057,ec_RRR,3.0.4,59.92692510779117,
Hutter,Das Zielwesen für diese Aufgabe ist Gourgeist:,"Also sobald Gourgeist (sein Name oder sein Bild) auf dem Bildschirm erscheint, drücken Sie so schnell wie möglich die Leertaste. Drücken Sie die Leertaste, immer wenn Sie ein Bild von Gourgeist oder das Wort GOURGEIST sehen. 

Drücken Sie die Leertaste, um die Aufgabe zu starten.",target5,stimuli/t5.jpg,98,13,stimuli/filler24.jpg,filler,False,None,,,,,,,,,,,,,,0,0,0,0,,,,,0,0,0,4,0,12,12,12,,,,,,,,,,,,,,,,,,,,,,,,,,,,,,,,,,,,,,,,,,,,,,,,,,,,,CS1_USpos,None,1,,,,,,,,,,,,,,,,,,20,w,98,n,2019_Dec_04_1057,ec_RRR,3.0.4,59.92692510779117,
Hutter,Das Zielwesen für diese Aufgabe ist Gourgeist:,"Also sobald Gourgeist (sein Name oder sein Bild) auf dem Bildschirm erscheint, drücken Sie so schnell wie möglich die Leertaste. Drücken Sie die Leertaste, immer wenn Sie ein Bild von Gourgeist oder das Wort GOURGEIST sehen. 

Drücken Sie die Leertaste, um die Aufgabe zu starten.",target5,stimuli/t5.jpg,98,14,stimuli/filler36.jpg,filler,False,None,,,,,,,,,,,,,,0,0,0,0,,,,,0,0,0,4,0,13,13,13,,,,,,,,,,,,,,,,,,,,,,,,,,,,,,,,,,,,,,,,,,,,,,,,,,,,,CS1_USpos,None,1,,,,,,,,,,,,,,,,,,20,w,98,n,2019_Dec_04_1057,ec_RRR,3.0.4,59.92692510779117,
Hutter,Das Zielwesen für diese Aufgabe ist Gourgeist:,"Also sobald Gourgeist (sein Name oder sein Bild) auf dem Bildschirm erscheint, drücken Sie so schnell wie möglich die Leertaste. Drücken Sie die Leertaste, immer wenn Sie ein Bild von Gourgeist oder das Wort GOURGEIST sehen. 

Drücken Sie die Leertaste, um die Aufgabe zu starten.",target5,stimuli/t5.jpg,98,15,stimuli/target5_10.jpg,target,True,space,,,,,,,,,,,,,,0,0,0,0,,,,,0,0,0,4,0,14,14,14,,,,,,,,,,,,,,,,,,,,,,,,,,,,,,,,,,,,,,,,,,,,,,,,,,,,,CS1_USpos,space,1,0.5881325999998808,,,,,,,,,,,,,,,,,20,w,98,n,2019_Dec_04_1057,ec_RRR,3.0.4,59.92692510779117,
Hutter,Das Zielwesen für diese Aufgabe ist Gourgeist:,"Also sobald Gourgeist (sein Name oder sein Bild) auf dem Bildschirm erscheint, drücken Sie so schnell wie möglich die Leertaste. Drücken Sie die Leertaste, immer wenn Sie ein Bild von Gourgeist oder das Wort GOURGEIST sehen. 

Drücken Sie die Leertaste, um die Aufgabe zu starten.",target5,stimuli/t5.jpg,98,16,stimuli/filler21.jpg,filler,False,None,,,,,,,,,,,,,,0,0,0,0,,,,,0,0,0,4,0,15,15,15,,,,,,,,,,,,,,,,,,,,,,,,,,,,,,,,,,,,,,,,,,,,,,,,,,,,,CS1_USpos,None,1,,,,,,,,,,,,,,,,,,20,w,98,n,2019_Dec_04_1057,ec_RRR,3.0.4,59.92692510779117,
Hutter,Das Zielwesen für diese Aufgabe ist Gourgeist:,"Also sobald Gourgeist (sein Name oder sein Bild) auf dem Bildschirm erscheint, drücken Sie so schnell wie möglich die Leertaste. Drücken Sie die Leertaste, immer wenn Sie ein Bild von Gourgeist oder das Wort GOURGEIST sehen. 

Drücken Sie die Leertaste, um die Aufgabe zu starten.",target5,stimuli/t5.jpg,98,17,stimuli/target5_8.jpg,target,True,space,,,,,,,,,,,,,,0,0,0,0,,,,,0,0,0,4,0,16,16,16,,,,,,,,,,,,,,,,,,,,,,,,,,,,,,,,,,,,,,,,,,,,,,,,,,,,,CS1_USpos,space,1,0.43792649999977584,,,,,,,,,,,,,,,,,20,w,98,n,2019_Dec_04_1057,ec_RRR,3.0.4,59.92692510779117,
Hutter,Das Zielwesen für diese Aufgabe ist Gourgeist:,"Also sobald Gourgeist (sein Name oder sein Bild) auf dem Bildschirm erscheint, drücken Sie so schnell wie möglich die Leertaste. Drücken Sie die Leertaste, immer wenn Sie ein Bild von Gourgeist oder das Wort GOURGEIST sehen. 

Drücken Sie die Leertaste, um die Aufgabe zu starten.",target5,stimuli/t5.jpg,98,18,stimuli/filler41.jpg,filler,False,None,,,,,,,,,,,,,,0,0,0,0,,,,,0,0,0,4,0,17,17,17,,,,,,,,,,,,,,,,,,,,,,,,,,,,,,,,,,,,,,,,,,,,,,,,,,,,,CS1_USpos,None,1,,,,,,,,,,,,,,,,,,20,w,98,n,2019_Dec_04_1057,ec_RRR,3.0.4,59.92692510779117,
Hutter,Das Zielwesen für diese Aufgabe ist Gourgeist:,"Also sobald Gourgeist (sein Name oder sein Bild) auf dem Bildschirm erscheint, drücken Sie so schnell wie möglich die Leertaste. Drücken Sie die Leertaste, immer wenn Sie ein Bild von Gourgeist oder das Wort GOURGEIST sehen. 

Drücken Sie die Leertaste, um die Aufgabe zu starten.",target5,stimuli/t5.jpg,98,19,stimuli/filler20.jpg,filler,False,None,,,,,,,,,,,,,,0,0,0,0,,,,,0,0,0,4,0,18,18,18,,,,,,,,,,,,,,,,,,,,,,,,,,,,,,,,,,,,,,,,,,,,,,,,,,,,,CS1_USpos,None,1,,,,,,,,,,,,,,,,,,20,w,98,n,2019_Dec_04_1057,ec_RRR,3.0.4,59.92692510779117,
Hutter,Das Zielwesen für diese Aufgabe ist Gourgeist:,"Also sobald Gourgeist (sein Name oder sein Bild) auf dem Bildschirm erscheint, drücken Sie so schnell wie möglich die Leertaste. Drücken Sie die Leertaste, immer wenn Sie ein Bild von Gourgeist oder das Wort GOURGEIST sehen. 

Drücken Sie die Leertaste, um die Aufgabe zu starten.",target5,stimuli/t5.jpg,98,20,stimuli/blank.jpg,blank,False,None,,,,,,,,,,,,,,0,0,0,0,,,,,0,0,0,4,0,19,19,19,,,,,,,,,,,,,,,,,,,,,,,,,,,,,,,,,,,,,,,,,,,,,,,,,,,,,CS1_USpos,None,1,,,,,,,,,,,,,,,,,,20,w,98,n,2019_Dec_04_1057,ec_RRR,3.0.4,59.92692510779117,
Hutter,Das Zielwesen für diese Aufgabe ist Gourgeist:,"Also sobald Gourgeist (sein Name oder sein Bild) auf dem Bildschirm erscheint, drücken Sie so schnell wie möglich die Leertaste. Drücken Sie die Leertaste, immer wenn Sie ein Bild von Gourgeist oder das Wort GOURGEIST sehen. 

Drücken Sie die Leertaste, um die Aufgabe zu starten.",target5,stimuli/t5.jpg,98,21,stimuli/cs2_neg13.jpg,CSUS,False,None,,,,,,,,,,,,,,0,0,0,0,,,,,0,0,0,4,0,20,20,20,,,,,,,,,,,,,,,,,,,,,,,,,,,,,,,,,,,,,,,,,,,,,,,,,,,,,CS1_USpos,None,1,,,,,,,,,,,,,,,,,,20,w,98,n,2019_Dec_04_1057,ec_RRR,3.0.4,59.92692510779117,
Hutter,Das Zielwesen für diese Aufgabe ist Gourgeist:,"Also sobald Gourgeist (sein Name oder sein Bild) auf dem Bildschirm erscheint, drücken Sie so schnell wie möglich die Leertaste. Drücken Sie die Leertaste, immer wenn Sie ein Bild von Gourgeist oder das Wort GOURGEIST sehen. 

Drücken Sie die Leertaste, um die Aufgabe zu starten.",target5,stimuli/t5.jpg,98,22,stimuli/blank.jpg,blank,False,None,,,,,,,,,,,,,,0,0,0,0,,,,,0,0,0,4,0,21,21,21,,,,,,,,,,,,,,,,,,,,,,,,,,,,,,,,,,,,,,,,,,,,,,,,,,,,,CS1_USpos,None,1,,,,,,,,,,,,,,,,,,20,w,98,n,2019_Dec_04_1057,ec_RRR,3.0.4,59.92692510779117,
Hutter,Das Zielwesen für diese Aufgabe ist Gourgeist:,"Also sobald Gourgeist (sein Name oder sein Bild) auf dem Bildschirm erscheint, drücken Sie so schnell wie möglich die Leertaste. Drücken Sie die Leertaste, immer wenn Sie ein Bild von Gourgeist oder das Wort GOURGEIST sehen. 

Drücken Sie die Leertaste, um die Aufgabe zu starten.",target5,stimuli/t5.jpg,98,23,stimuli/target5_5.jpg,target,True,space,,,,,,,,,,,,,,0,0,0,0,,,,,0,0,0,4,0,22,22,22,,,,,,,,,,,,,,,,,,,,,,,,,,,,,,,,,,,,,,,,,,,,,,,,,,,,,CS1_USpos,space,1,0.7208153000001403,,,,,,,,,,,,,,,,,20,w,98,n,2019_Dec_04_1057,ec_RRR,3.0.4,59.92692510779117,
Hutter,Das Zielwesen für diese Aufgabe ist Gourgeist:,"Also sobald Gourgeist (sein Name oder sein Bild) auf dem Bildschirm erscheint, drücken Sie so schnell wie möglich die Leertaste. Drücken Sie die Leertaste, immer wenn Sie ein Bild von Gourgeist oder das Wort GOURGEIST sehen. 

Drücken Sie die Leertaste, um die Aufgabe zu starten.",target5,stimuli/t5.jpg,98,24,stimuli/filler32.jpg,filler,False,None,,,,,,,,,,,,,,0,0,0,0,,,,,0,0,0,4,0,23,23,23,,,,,,,,,,,,,,,,,,,,,,,,,,,,,,,,,,,,,,,,,,,,,,,,,,,,,CS1_USpos,None,1,,,,,,,,,,,,,,,,,,20,w,98,n,2019_Dec_04_1057,ec_RRR,3.0.4,59.92692510779117,
Hutter,Das Zielwesen für diese Aufgabe ist Gourgeist:,"Also sobald Gourgeist (sein Name oder sein Bild) auf dem Bildschirm erscheint, drücken Sie so schnell wie möglich die Leertaste. Drücken Sie die Leertaste, immer wenn Sie ein Bild von Gourgeist oder das Wort GOURGEIST sehen. 

Drücken Sie die Leertaste, um die Aufgabe zu starten.",target5,stimuli/t5.jpg,98,25,stimuli/filler3.jpg,filler,False,None,,,,,,,,,,,,,,0,0,0,0,,,,,0,0,0,4,0,24,24,24,,,,,,,,,,,,,,,,,,,,,,,,,,,,,,,,,,,,,,,,,,,,,,,,,,,,,CS1_USpos,None,1,,,,,,,,,,,,,,,,,,20,w,98,n,2019_Dec_04_1057,ec_RRR,3.0.4,59.92692510779117,
Hutter,Das Zielwesen für diese Aufgabe ist Gourgeist:,"Also sobald Gourgeist (sein Name oder sein Bild) auf dem Bildschirm erscheint, drücken Sie so schnell wie möglich die Leertaste. Drücken Sie die Leertaste, immer wenn Sie ein Bild von Gourgeist oder das Wort GOURGEIST sehen. 

Drücken Sie die Leertaste, um die Aufgabe zu starten.",target5,stimuli/t5.jpg,98,26,stimuli/filler25.jpg,filler,False,None,,,,,,,,,,,,,,0,0,0,0,,,,,0,0,0,4,0,25,25,25,,,,,,,,,,,,,,,,,,,,,,,,,,,,,,,,,,,,,,,,,,,,,,,,,,,,,CS1_USpos,None,1,,,,,,,,,,,,,,,,,,20,w,98,n,2019_Dec_04_1057,ec_RRR,3.0.4,59.92692510779117,
Hutter,Das Zielwesen für diese Aufgabe ist Gourgeist:,"Also sobald Gourgeist (sein Name oder sein Bild) auf dem Bildschirm erscheint, drücken Sie so schnell wie möglich die Leertaste. Drücken Sie die Leertaste, immer wenn Sie ein Bild von Gourgeist oder das Wort GOURGEIST sehen. 

Drücken Sie die Leertaste, um die Aufgabe zu starten.",target5,stimuli/t5.jpg,98,27,stimuli/filler7.jpg,filler,False,None,,,,,,,,,,,,,,0,0,0,0,,,,,0,0,0,4,0,26,26,26,,,,,,,,,,,,,,,,,,,,,,,,,,,,,,,,,,,,,,,,,,,,,,,,,,,,,CS1_USpos,None,1,,,,,,,,,,,,,,,,,,20,w,98,n,2019_Dec_04_1057,ec_RRR,3.0.4,59.92692510779117,
Hutter,Das Zielwesen für diese Aufgabe ist Gourgeist:,"Also sobald Gourgeist (sein Name oder sein Bild) auf dem Bildschirm erscheint, drücken Sie so schnell wie möglich die Leertaste. Drücken Sie die Leertaste, immer wenn Sie ein Bild von Gourgeist oder das Wort GOURGEIST sehen. 

Drücken Sie die Leertaste, um die Aufgabe zu starten.",target5,stimuli/t5.jpg,98,28,stimuli/filler19.jpg,filler,False,None,,,,,,,,,,,,,,0,0,0,0,,,,,0,0,0,4,0,27,27,27,,,,,,,,,,,,,,,,,,,,,,,,,,,,,,,,,,,,,,,,,,,,,,,,,,,,,CS1_USpos,None,1,,,,,,,,,,,,,,,,,,20,w,98,n,2019_Dec_04_1057,ec_RRR,3.0.4,59.92692510779117,
Hutter,Das Zielwesen für diese Aufgabe ist Gourgeist:,"Also sobald Gourgeist (sein Name oder sein Bild) auf dem Bildschirm erscheint, drücken Sie so schnell wie möglich die Leertaste. Drücken Sie die Leertaste, immer wenn Sie ein Bild von Gourgeist oder das Wort GOURGEIST sehen. 

Drücken Sie die Leertaste, um die Aufgabe zu starten.",target5,stimuli/t5.jpg,98,29,stimuli/filler9.jpg,filler,False,None,,,,,,,,,,,,,,0,0,0,0,,,,,0,0,0,4,0,28,28,28,,,,,,,,,,,,,,,,,,,,,,,,,,,,,,,,,,,,,,,,,,,,,,,,,,,,,CS1_USpos,None,1,,,,,,,,,,,,,,,,,,20,w,98,n,2019_Dec_04_1057,ec_RRR,3.0.4,59.92692510779117,
Hutter,Das Zielwesen für diese Aufgabe ist Gourgeist:,"Also sobald Gourgeist (sein Name oder sein Bild) auf dem Bildschirm erscheint, drücken Sie so schnell wie möglich die Leertaste. Drücken Sie die Leertaste, immer wenn Sie ein Bild von Gourgeist oder das Wort GOURGEIST sehen. 

Drücken Sie die Leertaste, um die Aufgabe zu starten.",target5,stimuli/t5.jpg,98,30,stimuli/blank.jpg,blank,False,None,,,,,,,,,,,,,,0,0,0,0,,,,,0,0,0,4,0,29,29,29,,,,,,,,,,,,,,,,,,,,,,,,,,,,,,,,,,,,,,,,,,,,,,,,,,,,,CS1_USpos,None,1,,,,,,,,,,,,,,,,,,20,w,98,n,2019_Dec_04_1057,ec_RRR,3.0.4,59.92692510779117,
Hutter,Das Zielwesen für diese Aufgabe ist Gourgeist:,"Also sobald Gourgeist (sein Name oder sein Bild) auf dem Bildschirm erscheint, drücken Sie so schnell wie möglich die Leertaste. Drücken Sie die Leertaste, immer wenn Sie ein Bild von Gourgeist oder das Wort GOURGEIST sehen. 

Drücken Sie die Leertaste, um die Aufgabe zu starten.",target5,stimuli/t5.jpg,98,31,stimuli/cs1_pos19.jpg,CSUS,False,None,,,,,,,,,,,,,,0,0,0,0,,,,,0,0,0,4,0,30,30,30,,,,,,,,,,,,,,,,,,,,,,,,,,,,,,,,,,,,,,,,,,,,,,,,,,,,,CS1_USpos,None,1,,,,,,,,,,,,,,,,,,20,w,98,n,2019_Dec_04_1057,ec_RRR,3.0.4,59.92692510779117,
Hutter,Das Zielwesen für diese Aufgabe ist Gourgeist:,"Also sobald Gourgeist (sein Name oder sein Bild) auf dem Bildschirm erscheint, drücken Sie so schnell wie möglich die Leertaste. Drücken Sie die Leertaste, immer wenn Sie ein Bild von Gourgeist oder das Wort GOURGEIST sehen. 

Drücken Sie die Leertaste, um die Aufgabe zu starten.",target5,stimuli/t5.jpg,98,32,stimuli/blank.jpg,blank,False,None,,,,,,,,,,,,,,0,0,0,0,,,,,0,0,0,4,0,31,31,31,,,,,,,,,,,,,,,,,,,,,,,,,,,,,,,,,,,,,,,,,,,,,,,,,,,,,CS1_USpos,None,1,,,,,,,,,,,,,,,,,,20,w,98,n,2019_Dec_04_1057,ec_RRR,3.0.4,59.92692510779117,
Hutter,Das Zielwesen für diese Aufgabe ist Gourgeist:,"Also sobald Gourgeist (sein Name oder sein Bild) auf dem Bildschirm erscheint, drücken Sie so schnell wie möglich die Leertaste. Drücken Sie die Leertaste, immer wenn Sie ein Bild von Gourgeist oder das Wort GOURGEIST sehen. 

Drücken Sie die Leertaste, um die Aufgabe zu starten.",target5,stimuli/t5.jpg,98,33,stimuli/filler5.jpg,filler,False,None,,,,,,,,,,,,,,0,0,0,0,,,,,0,0,0,4,0,32,32,32,,,,,,,,,,,,,,,,,,,,,,,,,,,,,,,,,,,,,,,,,,,,,,,,,,,,,CS1_USpos,None,1,,,,,,,,,,,,,,,,,,20,w,98,n,2019_Dec_04_1057,ec_RRR,3.0.4,59.92692510779117,
Hutter,Das Zielwesen für diese Aufgabe ist Gourgeist:,"Also sobald Gourgeist (sein Name oder sein Bild) auf dem Bildschirm erscheint, drücken Sie so schnell wie möglich die Leertaste. Drücken Sie die Leertaste, immer wenn Sie ein Bild von Gourgeist oder das Wort GOURGEIST sehen. 

Drücken Sie die Leertaste, um die Aufgabe zu starten.",target5,stimuli/t5.jpg,98,34,stimuli/filler10.jpg,filler,False,None,,,,,,,,,,,,,,0,0,0,0,,,,,0,0,0,4,0,33,33,33,,,,,,,,,,,,,,,,,,,,,,,,,,,,,,,,,,,,,,,,,,,,,,,,,,,,,CS1_USpos,None,1,,,,,,,,,,,,,,,,,,20,w,98,n,2019_Dec_04_1057,ec_RRR,3.0.4,59.92692510779117,
Hutter,Das Zielwesen für diese Aufgabe ist Gourgeist:,"Also sobald Gourgeist (sein Name oder sein Bild) auf dem Bildschirm erscheint, drücken Sie so schnell wie möglich die Leertaste. Drücken Sie die Leertaste, immer wenn Sie ein Bild von Gourgeist oder das Wort GOURGEIST sehen. 

Drücken Sie die Leertaste, um die Aufgabe zu starten.",target5,stimuli/t5.jpg,98,35,stimuli/filler31.jpg,filler,False,None,,,,,,,,,,,,,,0,0,0,0,,,,,0,0,0,4,0,34,34,34,,,,,,,,,,,,,,,,,,,,,,,,,,,,,,,,,,,,,,,,,,,,,,,,,,,,,CS1_USpos,None,1,,,,,,,,,,,,,,,,,,20,w,98,n,2019_Dec_04_1057,ec_RRR,3.0.4,59.92692510779117,
Hutter,Das Zielwesen für diese Aufgabe ist Gourgeist:,"Also sobald Gourgeist (sein Name oder sein Bild) auf dem Bildschirm erscheint, drücken Sie so schnell wie möglich die Leertaste. Drücken Sie die Leertaste, immer wenn Sie ein Bild von Gourgeist oder das Wort GOURGEIST sehen. 

Drücken Sie die Leertaste, um die Aufgabe zu starten.",target5,stimuli/t5.jpg,98,36,stimuli/filler6.jpg,filler,False,None,,,,,,,,,,,,,,0,0,0,0,,,,,0,0,0,4,0,35,35,35,,,,,,,,,,,,,,,,,,,,,,,,,,,,,,,,,,,,,,,,,,,,,,,,,,,,,CS1_USpos,None,1,,,,,,,,,,,,,,,,,,20,w,98,n,2019_Dec_04_1057,ec_RRR,3.0.4,59.92692510779117,
Hutter,Das Zielwesen für diese Aufgabe ist Gourgeist:,"Also sobald Gourgeist (sein Name oder sein Bild) auf dem Bildschirm erscheint, drücken Sie so schnell wie möglich die Leertaste. Drücken Sie die Leertaste, immer wenn Sie ein Bild von Gourgeist oder das Wort GOURGEIST sehen. 

Drücken Sie die Leertaste, um die Aufgabe zu starten.",target5,stimuli/t5.jpg,98,37,stimuli/filler39.jpg,filler,False,None,,,,,,,,,,,,,,0,0,0,0,,,,,0,0,0,4,0,36,36,36,,,,,,,,,,,,,,,,,,,,,,,,,,,,,,,,,,,,,,,,,,,,,,,,,,,,,CS1_USpos,None,1,,,,,,,,,,,,,,,,,,20,w,98,n,2019_Dec_04_1057,ec_RRR,3.0.4,59.92692510779117,
Hutter,Das Zielwesen für diese Aufgabe ist Gourgeist:,"Also sobald Gourgeist (sein Name oder sein Bild) auf dem Bildschirm erscheint, drücken Sie so schnell wie möglich die Leertaste. Drücken Sie die Leertaste, immer wenn Sie ein Bild von Gourgeist oder das Wort GOURGEIST sehen. 

Drücken Sie die Leertaste, um die Aufgabe zu starten.",target5,stimuli/t5.jpg,98,38,stimuli/filler1.jpg,filler,False,None,,,,,,,,,,,,,,0,0,0,0,,,,,0,0,0,4,0,37,37,37,,,,,,,,,,,,,,,,,,,,,,,,,,,,,,,,,,,,,,,,,,,,,,,,,,,,,CS1_USpos,None,1,,,,,,,,,,,,,,,,,,20,w,98,n,2019_Dec_04_1057,ec_RRR,3.0.4,59.92692510779117,
Hutter,Das Zielwesen für diese Aufgabe ist Gourgeist:,"Also sobald Gourgeist (sein Name oder sein Bild) auf dem Bildschirm erscheint, drücken Sie so schnell wie möglich die Leertaste. Drücken Sie die Leertaste, immer wenn Sie ein Bild von Gourgeist oder das Wort GOURGEIST sehen. 

Drücken Sie die Leertaste, um die Aufgabe zu starten.",target5,stimuli/t5.jpg,98,39,stimuli/filler40.jpg,filler,False,None,,,,,,,,,,,,,,0,0,0,0,,,,,0,0,0,4,0,38,38,38,,,,,,,,,,,,,,,,,,,,,,,,,,,,,,,,,,,,,,,,,,,,,,,,,,,,,CS1_USpos,None,1,,,,,,,,,,,,,,,,,,20,w,98,n,2019_Dec_04_1057,ec_RRR,3.0.4,59.92692510779117,
Hutter,Das Zielwesen für diese Aufgabe ist Gourgeist:,"Also sobald Gourgeist (sein Name oder sein Bild) auf dem Bildschirm erscheint, drücken Sie so schnell wie möglich die Leertaste. Drücken Sie die Leertaste, immer wenn Sie ein Bild von Gourgeist oder das Wort GOURGEIST sehen. 

Drücken Sie die Leertaste, um die Aufgabe zu starten.",target5,stimuli/t5.jpg,98,40,stimuli/blank.jpg,blank,False,None,,,,,,,,,,,,,,0,0,0,0,,,,,0,0,0,4,0,39,39,39,,,,,,,,,,,,,,,,,,,,,,,,,,,,,,,,,,,,,,,,,,,,,,,,,,,,,CS1_USpos,None,1,,,,,,,,,,,,,,,,,,20,w,98,n,2019_Dec_04_1057,ec_RRR,3.0.4,59.92692510779117,
Hutter,Das Zielwesen für diese Aufgabe ist Gourgeist:,"Also sobald Gourgeist (sein Name oder sein Bild) auf dem Bildschirm erscheint, drücken Sie so schnell wie möglich die Leertaste. Drücken Sie die Leertaste, immer wenn Sie ein Bild von Gourgeist oder das Wort GOURGEIST sehen. 

Drücken Sie die Leertaste, um die Aufgabe zu starten.",target5,stimuli/t5.jpg,98,41,stimuli/cs2_neg17.jpg,CSUS,False,None,,,,,,,,,,,,,,0,0,0,0,,,,,0,0,0,4,0,40,40,40,,,,,,,,,,,,,,,,,,,,,,,,,,,,,,,,,,,,,,,,,,,,,,,,,,,,,CS1_USpos,space,0,0.7378760000001421,,,,,,,,,,,,,,,,,20,w,98,n,2019_Dec_04_1057,ec_RRR,3.0.4,59.92692510779117,
Hutter,Das Zielwesen für diese Aufgabe ist Gourgeist:,"Also sobald Gourgeist (sein Name oder sein Bild) auf dem Bildschirm erscheint, drücken Sie so schnell wie möglich die Leertaste. Drücken Sie die Leertaste, immer wenn Sie ein Bild von Gourgeist oder das Wort GOURGEIST sehen. 

Drücken Sie die Leertaste, um die Aufgabe zu starten.",target5,stimuli/t5.jpg,98,42,stimuli/blank.jpg,blank,False,None,,,,,,,,,,,,,,0,0,0,0,,,,,0,0,0,4,0,41,41,41,,,,,,,,,,,,,,,,,,,,,,,,,,,,,,,,,,,,,,,,,,,,,,,,,,,,,CS1_USpos,None,1,,,,,,,,,,,,,,,,,,20,w,98,n,2019_Dec_04_1057,ec_RRR,3.0.4,59.92692510779117,
Hutter,Das Zielwesen für diese Aufgabe ist Gourgeist:,"Also sobald Gourgeist (sein Name oder sein Bild) auf dem Bildschirm erscheint, drücken Sie so schnell wie möglich die Leertaste. Drücken Sie die Leertaste, immer wenn Sie ein Bild von Gourgeist oder das Wort GOURGEIST sehen. 

Drücken Sie die Leertaste, um die Aufgabe zu starten.",target5,stimuli/t5.jpg,98,43,stimuli/filler29.jpg,filler,False,None,,,,,,,,,,,,,,0,0,0,0,,,,,0,0,0,4,0,42,42,42,,,,,,,,,,,,,,,,,,,,,,,,,,,,,,,,,,,,,,,,,,,,,,,,,,,,,CS1_USpos,None,1,,,,,,,,,,,,,,,,,,20,w,98,n,2019_Dec_04_1057,ec_RRR,3.0.4,59.92692510779117,
Hutter,Das Zielwesen für diese Aufgabe ist Gourgeist:,"Also sobald Gourgeist (sein Name oder sein Bild) auf dem Bildschirm erscheint, drücken Sie so schnell wie möglich die Leertaste. Drücken Sie die Leertaste, immer wenn Sie ein Bild von Gourgeist oder das Wort GOURGEIST sehen. 

Drücken Sie die Leertaste, um die Aufgabe zu starten.",target5,stimuli/t5.jpg,98,44,stimuli/target5_3.jpg,target,True,space,,,,,,,,,,,,,,0,0,0,0,,,,,0,0,0,4,0,43,43,43,,,,,,,,,,,,,,,,,,,,,,,,,,,,,,,,,,,,,,,,,,,,,,,,,,,,,CS1_USpos,space,1,0.6551134000001184,,,,,,,,,,,,,,,,,20,w,98,n,2019_Dec_04_1057,ec_RRR,3.0.4,59.92692510779117,
Hutter,Das Zielwesen für diese Aufgabe ist Gourgeist:,"Also sobald Gourgeist (sein Name oder sein Bild) auf dem Bildschirm erscheint, drücken Sie so schnell wie möglich die Leertaste. Drücken Sie die Leertaste, immer wenn Sie ein Bild von Gourgeist oder das Wort GOURGEIST sehen. 

Drücken Sie die Leertaste, um die Aufgabe zu starten.",target5,stimuli/t5.jpg,98,45,stimuli/filler49.jpg,filler,False,None,,,,,,,,,,,,,,0,0,0,0,,,,,0,0,0,4,0,44,44,44,,,,,,,,,,,,,,,,,,,,,,,,,,,,,,,,,,,,,,,,,,,,,,,,,,,,,CS1_USpos,None,1,,,,,,,,,,,,,,,,,,20,w,98,n,2019_Dec_04_1057,ec_RRR,3.0.4,59.92692510779117,
Hutter,Das Zielwesen für diese Aufgabe ist Gourgeist:,"Also sobald Gourgeist (sein Name oder sein Bild) auf dem Bildschirm erscheint, drücken Sie so schnell wie möglich die Leertaste. Drücken Sie die Leertaste, immer wenn Sie ein Bild von Gourgeist oder das Wort GOURGEIST sehen. 

Drücken Sie die Leertaste, um die Aufgabe zu starten.",target5,stimuli/t5.jpg,98,46,stimuli/filler33.jpg,filler,False,None,,,,,,,,,,,,,,0,0,0,0,,,,,0,0,0,4,0,45,45,45,,,,,,,,,,,,,,,,,,,,,,,,,,,,,,,,,,,,,,,,,,,,,,,,,,,,,CS1_USpos,None,1,,,,,,,,,,,,,,,,,,20,w,98,n,2019_Dec_04_1057,ec_RRR,3.0.4,59.92692510779117,
Hutter,Das Zielwesen für diese Aufgabe ist Gourgeist:,"Also sobald Gourgeist (sein Name oder sein Bild) auf dem Bildschirm erscheint, drücken Sie so schnell wie möglich die Leertaste. Drücken Sie die Leertaste, immer wenn Sie ein Bild von Gourgeist oder das Wort GOURGEIST sehen. 

Drücken Sie die Leertaste, um die Aufgabe zu starten.",target5,stimuli/t5.jpg,98,47,stimuli/filler43.jpg,filler,False,None,,,,,,,,,,,,,,0,0,0,0,,,,,0,0,0,4,0,46,46,46,,,,,,,,,,,,,,,,,,,,,,,,,,,,,,,,,,,,,,,,,,,,,,,,,,,,,CS1_USpos,None,1,,,,,,,,,,,,,,,,,,20,w,98,n,2019_Dec_04_1057,ec_RRR,3.0.4,59.92692510779117,
Hutter,Das Zielwesen für diese Aufgabe ist Gourgeist:,"Also sobald Gourgeist (sein Name oder sein Bild) auf dem Bildschirm erscheint, drücken Sie so schnell wie möglich die Leertaste. Drücken Sie die Leertaste, immer wenn Sie ein Bild von Gourgeist oder das Wort GOURGEIST sehen. 

Drücken Sie die Leertaste, um die Aufgabe zu starten.",target5,stimuli/t5.jpg,98,48,stimuli/filler47.jpg,filler,False,None,,,,,,,,,,,,,,0,0,0,0,,,,,0,0,0,4,0,47,47,47,,,,,,,,,,,,,,,,,,,,,,,,,,,,,,,,,,,,,,,,,,,,,,,,,,,,,CS1_USpos,None,1,,,,,,,,,,,,,,,,,,20,w,98,n,2019_Dec_04_1057,ec_RRR,3.0.4,59.92692510779117,
Hutter,Das Zielwesen für diese Aufgabe ist Gourgeist:,"Also sobald Gourgeist (sein Name oder sein Bild) auf dem Bildschirm erscheint, drücken Sie so schnell wie möglich die Leertaste. Drücken Sie die Leertaste, immer wenn Sie ein Bild von Gourgeist oder das Wort GOURGEIST sehen. 

Drücken Sie die Leertaste, um die Aufgabe zu starten.",target5,stimuli/t5.jpg,98,49,stimuli/filler51.jpg,filler,False,None,,,,,,,,,,,,,,0,0,0,0,,,,,0,0,0,4,0,48,48,48,,,,,,,,,,,,,,,,,,,,,,,,,,,,,,,,,,,,,,,,,,,,,,,,,,,,,CS1_USpos,None,1,,,,,,,,,,,,,,,,,,20,w,98,n,2019_Dec_04_1057,ec_RRR,3.0.4,59.92692510779117,
Hutter,Das Zielwesen für diese Aufgabe ist Gourgeist:,"Also sobald Gourgeist (sein Name oder sein Bild) auf dem Bildschirm erscheint, drücken Sie so schnell wie möglich die Leertaste. Drücken Sie die Leertaste, immer wenn Sie ein Bild von Gourgeist oder das Wort GOURGEIST sehen. 

Drücken Sie die Leertaste, um die Aufgabe zu starten.",target5,stimuli/t5.jpg,98,50,stimuli/blank.jpg,blank,False,None,,,,,,,,,,,,,,0,0,0,0,,,,,0,0,0,4,0,49,49,49,,,,,,,,,,,,,,,,,,,,,,,,,,,,,,,,,,,,,,,,,,,,,,,,,,,,,CS1_USpos,None,1,,,,,,,,,,,,,,,,,,20,w,98,n,2019_Dec_04_1057,ec_RRR,3.0.4,59.92692510779117,
Hutter,Das Zielwesen für diese Aufgabe ist Gourgeist:,"Also sobald Gourgeist (sein Name oder sein Bild) auf dem Bildschirm erscheint, drücken Sie so schnell wie möglich die Leertaste. Drücken Sie die Leertaste, immer wenn Sie ein Bild von Gourgeist oder das Wort GOURGEIST sehen. 

Drücken Sie die Leertaste, um die Aufgabe zu starten.",target5,stimuli/t5.jpg,98,51,stimuli/cs1_pos12.jpg,CSUS,False,None,,,,,,,,,,,,,,0,0,0,0,,,,,0,0,0,4,0,50,50,50,,,,,,,,,,,,,,,,,,,,,,,,,,,,,,,,,,,,,,,,,,,,,,,,,,,,,CS1_USpos,None,1,,,,,,,,,,,,,,,,,,20,w,98,n,2019_Dec_04_1057,ec_RRR,3.0.4,59.92692510779117,
Hutter,Das Zielwesen für diese Aufgabe ist Gourgeist:,"Also sobald Gourgeist (sein Name oder sein Bild) auf dem Bildschirm erscheint, drücken Sie so schnell wie möglich die Leertaste. Drücken Sie die Leertaste, immer wenn Sie ein Bild von Gourgeist oder das Wort GOURGEIST sehen. 

Drücken Sie die Leertaste, um die Aufgabe zu starten.",target5,stimuli/t5.jpg,98,52,stimuli/blank.jpg,blank,False,None,,,,,,,,,,,,,,0,0,0,0,,,,,0,0,0,4,0,51,51,51,,,,,,,,,,,,,,,,,,,,,,,,,,,,,,,,,,,,,,,,,,,,,,,,,,,,,CS1_USpos,None,1,,,,,,,,,,,,,,,,,,20,w,98,n,2019_Dec_04_1057,ec_RRR,3.0.4,59.92692510779117,
Hutter,Das Zielwesen für diese Aufgabe ist Gourgeist:,"Also sobald Gourgeist (sein Name oder sein Bild) auf dem Bildschirm erscheint, drücken Sie so schnell wie möglich die Leertaste. Drücken Sie die Leertaste, immer wenn Sie ein Bild von Gourgeist oder das Wort GOURGEIST sehen. 

Drücken Sie die Leertaste, um die Aufgabe zu starten.",target5,stimuli/t5.jpg,98,53,stimuli/filler28.jpg,filler,False,None,,,,,,,,,,,,,,0,0,0,0,,,,,0,0,0,4,0,52,52,52,,,,,,,,,,,,,,,,,,,,,,,,,,,,,,,,,,,,,,,,,,,,,,,,,,,,,CS1_USpos,None,1,,,,,,,,,,,,,,,,,,20,w,98,n,2019_Dec_04_1057,ec_RRR,3.0.4,59.92692510779117,
Hutter,Das Zielwesen für diese Aufgabe ist Gourgeist:,"Also sobald Gourgeist (sein Name oder sein Bild) auf dem Bildschirm erscheint, drücken Sie so schnell wie möglich die Leertaste. Drücken Sie die Leertaste, immer wenn Sie ein Bild von Gourgeist oder das Wort GOURGEIST sehen. 

Drücken Sie die Leertaste, um die Aufgabe zu starten.",target5,stimuli/t5.jpg,98,54,stimuli/filler44.jpg,filler,False,None,,,,,,,,,,,,,,0,0,0,0,,,,,0,0,0,4,0,53,53,53,,,,,,,,,,,,,,,,,,,,,,,,,,,,,,,,,,,,,,,,,,,,,,,,,,,,,CS1_USpos,None,1,,,,,,,,,,,,,,,,,,20,w,98,n,2019_Dec_04_1057,ec_RRR,3.0.4,59.92692510779117,
Hutter,Das Zielwesen für diese Aufgabe ist Gourgeist:,"Also sobald Gourgeist (sein Name oder sein Bild) auf dem Bildschirm erscheint, drücken Sie so schnell wie möglich die Leertaste. Drücken Sie die Leertaste, immer wenn Sie ein Bild von Gourgeist oder das Wort GOURGEIST sehen. 

Drücken Sie die Leertaste, um die Aufgabe zu starten.",target5,stimuli/t5.jpg,98,55,stimuli/filler30.jpg,filler,False,None,,,,,,,,,,,,,,0,0,0,0,,,,,0,0,0,4,0,54,54,54,,,,,,,,,,,,,,,,,,,,,,,,,,,,,,,,,,,,,,,,,,,,,,,,,,,,,CS1_USpos,None,1,,,,,,,,,,,,,,,,,,20,w,98,n,2019_Dec_04_1057,ec_RRR,3.0.4,59.92692510779117,
Hutter,Das Zielwesen für diese Aufgabe ist Gourgeist:,"Also sobald Gourgeist (sein Name oder sein Bild) auf dem Bildschirm erscheint, drücken Sie so schnell wie möglich die Leertaste. Drücken Sie die Leertaste, immer wenn Sie ein Bild von Gourgeist oder das Wort GOURGEIST sehen. 

Drücken Sie die Leertaste, um die Aufgabe zu starten.",target5,stimuli/t5.jpg,98,56,stimuli/filler46.jpg,filler,False,None,,,,,,,,,,,,,,0,0,0,0,,,,,0,0,0,4,0,55,55,55,,,,,,,,,,,,,,,,,,,,,,,,,,,,,,,,,,,,,,,,,,,,,,,,,,,,,CS1_USpos,None,1,,,,,,,,,,,,,,,,,,20,w,98,n,2019_Dec_04_1057,ec_RRR,3.0.4,59.92692510779117,
Hutter,Das Zielwesen für diese Aufgabe ist Gourgeist:,"Also sobald Gourgeist (sein Name oder sein Bild) auf dem Bildschirm erscheint, drücken Sie so schnell wie möglich die Leertaste. Drücken Sie die Leertaste, immer wenn Sie ein Bild von Gourgeist oder das Wort GOURGEIST sehen. 

Drücken Sie die Leertaste, um die Aufgabe zu starten.",target5,stimuli/t5.jpg,98,57,stimuli/target5_6.jpg,target,True,space,,,,,,,,,,,,,,0,0,0,0,,,,,0,0,0,4,0,56,56,56,,,,,,,,,,,,,,,,,,,,,,,,,,,,,,,,,,,,,,,,,,,,,,,,,,,,,CS1_USpos,space,1,0.8712966999992204,,,,,,,,,,,,,,,,,20,w,98,n,2019_Dec_04_1057,ec_RRR,3.0.4,59.92692510779117,
Hutter,Das Zielwesen für diese Aufgabe ist Gourgeist:,"Also sobald Gourgeist (sein Name oder sein Bild) auf dem Bildschirm erscheint, drücken Sie so schnell wie möglich die Leertaste. Drücken Sie die Leertaste, immer wenn Sie ein Bild von Gourgeist oder das Wort GOURGEIST sehen. 

Drücken Sie die Leertaste, um die Aufgabe zu starten.",target5,stimuli/t5.jpg,98,58,stimuli/target5_2.jpg,target,True,space,,,,,,,,,,,,,,0,0,0,0,,,,,0,0,0,4,0,57,57,57,,,,,,,,,,,,,,,,,,,,,,,,,,,,,,,,,,,,,,,,,,,,,,,,,,,,,CS1_USpos,space,1,0.670484000000215,,,,,,,,,,,,,,,,,20,w,98,n,2019_Dec_04_1057,ec_RRR,3.0.4,59.92692510779117,
Hutter,Das Zielwesen für diese Aufgabe ist Gourgeist:,"Also sobald Gourgeist (sein Name oder sein Bild) auf dem Bildschirm erscheint, drücken Sie so schnell wie möglich die Leertaste. Drücken Sie die Leertaste, immer wenn Sie ein Bild von Gourgeist oder das Wort GOURGEIST sehen. 

Drücken Sie die Leertaste, um die Aufgabe zu starten.",target5,stimuli/t5.jpg,98,59,stimuli/filler27.jpg,filler,False,None,,,,,,,,,,,,,,0,0,0,0,,,,,0,0,0,4,0,58,58,58,,,,,,,,,,,,,,,,,,,,,,,,,,,,,,,,,,,,,,,,,,,,,,,,,,,,,CS1_USpos,None,1,,,,,,,,,,,,,,,,,,20,w,98,n,2019_Dec_04_1057,ec_RRR,3.0.4,59.92692510779117,
Hutter,Das Zielwesen für diese Aufgabe ist Gourgeist:,"Also sobald Gourgeist (sein Name oder sein Bild) auf dem Bildschirm erscheint, drücken Sie so schnell wie möglich die Leertaste. Drücken Sie die Leertaste, immer wenn Sie ein Bild von Gourgeist oder das Wort GOURGEIST sehen. 

Drücken Sie die Leertaste, um die Aufgabe zu starten.",target5,stimuli/t5.jpg,98,60,stimuli/blank.jpg,blank,False,None,,,,,,,,,,,,,,0,0,0,0,,,,,0,0,0,4,0,59,59,59,,,,,,,,,,,,,,,,,,,,,,,,,,,,,,,,,,,,,,,,,,,,,,,,,,,,,CS1_USpos,None,1,,,,,,,,,,,,,,,,,,20,w,98,n,2019_Dec_04_1057,ec_RRR,3.0.4,59.92692510779117,
Hutter,Das Zielwesen für diese Aufgabe ist Gourgeist:,"Also sobald Gourgeist (sein Name oder sein Bild) auf dem Bildschirm erscheint, drücken Sie so schnell wie möglich die Leertaste. Drücken Sie die Leertaste, immer wenn Sie ein Bild von Gourgeist oder das Wort GOURGEIST sehen. 

Drücken Sie die Leertaste, um die Aufgabe zu starten.",target5,stimuli/t5.jpg,98,61,stimuli/cs2_neg3.jpg,CSUS,False,None,,,,,,,,,,,,,,0,0,0,0,,,,,0,0,0,4,0,60,60,60,,,,,,,,,,,,,,,,,,,,,,,,,,,,,,,,,,,,,,,,,,,,,,,,,,,,,CS1_USpos,None,1,,,,,,,,,,,,,,,,,,20,w,98,n,2019_Dec_04_1057,ec_RRR,3.0.4,59.92692510779117,
Hutter,Das Zielwesen für diese Aufgabe ist Gourgeist:,"Also sobald Gourgeist (sein Name oder sein Bild) auf dem Bildschirm erscheint, drücken Sie so schnell wie möglich die Leertaste. Drücken Sie die Leertaste, immer wenn Sie ein Bild von Gourgeist oder das Wort GOURGEIST sehen. 

Drücken Sie die Leertaste, um die Aufgabe zu starten.",target5,stimuli/t5.jpg,98,62,stimuli/blank.jpg,blank,False,None,,,,,,,,,,,,,,0,0,0,0,,,,,0,0,0,4,0,61,61,61,,,,,,,,,,,,,,,,,,,,,,,,,,,,,,,,,,,,,,,,,,,,,,,,,,,,,CS1_USpos,None,1,,,,,,,,,,,,,,,,,,20,w,98,n,2019_Dec_04_1057,ec_RRR,3.0.4,59.92692510779117,
Hutter,Das Zielwesen für diese Aufgabe ist Gourgeist:,"Also sobald Gourgeist (sein Name oder sein Bild) auf dem Bildschirm erscheint, drücken Sie so schnell wie möglich die Leertaste. Drücken Sie die Leertaste, immer wenn Sie ein Bild von Gourgeist oder das Wort GOURGEIST sehen. 

Drücken Sie die Leertaste, um die Aufgabe zu starten.",target5,stimuli/t5.jpg,98,63,stimuli/filler52.jpg,filler,False,None,,,,,,,,,,,,,,0,0,0,0,,,,,0,0,0,4,0,62,62,62,,,,,,,,,,,,,,,,,,,,,,,,,,,,,,,,,,,,,,,,,,,,,,,,,,,,,CS1_USpos,None,1,,,,,,,,,,,,,,,,,,20,w,98,n,2019_Dec_04_1057,ec_RRR,3.0.4,59.92692510779117,
Hutter,Das Zielwesen für diese Aufgabe ist Gourgeist:,"Also sobald Gourgeist (sein Name oder sein Bild) auf dem Bildschirm erscheint, drücken Sie so schnell wie möglich die Leertaste. Drücken Sie die Leertaste, immer wenn Sie ein Bild von Gourgeist oder das Wort GOURGEIST sehen. 

Drücken Sie die Leertaste, um die Aufgabe zu starten.",target5,stimuli/t5.jpg,98,64,stimuli/filler23.jpg,filler,False,None,,,,,,,,,,,,,,0,0,0,0,,,,,0,0,0,4,0,63,63,63,,,,,,,,,,,,,,,,,,,,,,,,,,,,,,,,,,,,,,,,,,,,,,,,,,,,,CS1_USpos,None,1,,,,,,,,,,,,,,,,,,20,w,98,n,2019_Dec_04_1057,ec_RRR,3.0.4,59.92692510779117,
Hutter,Das Zielwesen für diese Aufgabe ist Gourgeist:,"Also sobald Gourgeist (sein Name oder sein Bild) auf dem Bildschirm erscheint, drücken Sie so schnell wie möglich die Leertaste. Drücken Sie die Leertaste, immer wenn Sie ein Bild von Gourgeist oder das Wort GOURGEIST sehen. 

Drücken Sie die Leertaste, um die Aufgabe zu starten.",target5,stimuli/t5.jpg,98,65,stimuli/filler50.jpg,filler,False,None,,,,,,,,,,,,,,0,0,0,0,,,,,0,0,0,4,0,64,64,64,,,,,,,,,,,,,,,,,,,,,,,,,,,,,,,,,,,,,,,,,,,,,,,,,,,,,CS1_USpos,None,1,,,,,,,,,,,,,,,,,,20,w,98,n,2019_Dec_04_1057,ec_RRR,3.0.4,59.92692510779117,
Hutter,Das Zielwesen für diese Aufgabe ist Gourgeist:,"Also sobald Gourgeist (sein Name oder sein Bild) auf dem Bildschirm erscheint, drücken Sie so schnell wie möglich die Leertaste. Drücken Sie die Leertaste, immer wenn Sie ein Bild von Gourgeist oder das Wort GOURGEIST sehen. 

Drücken Sie die Leertaste, um die Aufgabe zu starten.",target5,stimuli/t5.jpg,98,66,stimuli/filler35.jpg,filler,False,None,,,,,,,,,,,,,,0,0,0,0,,,,,0,0,0,4,0,65,65,65,,,,,,,,,,,,,,,,,,,,,,,,,,,,,,,,,,,,,,,,,,,,,,,,,,,,,CS1_USpos,None,1,,,,,,,,,,,,,,,,,,20,w,98,n,2019_Dec_04_1057,ec_RRR,3.0.4,59.92692510779117,
Hutter,Das Zielwesen für diese Aufgabe ist Gourgeist:,"Also sobald Gourgeist (sein Name oder sein Bild) auf dem Bildschirm erscheint, drücken Sie so schnell wie möglich die Leertaste. Drücken Sie die Leertaste, immer wenn Sie ein Bild von Gourgeist oder das Wort GOURGEIST sehen. 

Drücken Sie die Leertaste, um die Aufgabe zu starten.",target5,stimuli/t5.jpg,98,67,stimuli/filler18.jpg,filler,False,None,,,,,,,,,,,,,,0,0,0,0,,,,,0,0,0,4,0,66,66,66,,,,,,,,,,,,,,,,,,,,,,,,,,,,,,,,,,,,,,,,,,,,,,,,,,,,,CS1_USpos,None,1,,,,,,,,,,,,,,,,,,20,w,98,n,2019_Dec_04_1057,ec_RRR,3.0.4,59.92692510779117,
Hutter,Das Zielwesen für diese Aufgabe ist Gourgeist:,"Also sobald Gourgeist (sein Name oder sein Bild) auf dem Bildschirm erscheint, drücken Sie so schnell wie möglich die Leertaste. Drücken Sie die Leertaste, immer wenn Sie ein Bild von Gourgeist oder das Wort GOURGEIST sehen. 

Drücken Sie die Leertaste, um die Aufgabe zu starten.",target5,stimuli/t5.jpg,98,68,stimuli/filler26.jpg,filler,False,None,,,,,,,,,,,,,,0,0,0,0,,,,,0,0,0,4,0,67,67,67,,,,,,,,,,,,,,,,,,,,,,,,,,,,,,,,,,,,,,,,,,,,,,,,,,,,,CS1_USpos,None,1,,,,,,,,,,,,,,,,,,20,w,98,n,2019_Dec_04_1057,ec_RRR,3.0.4,59.92692510779117,
Hutter,Das Zielwesen für diese Aufgabe ist Gourgeist:,"Also sobald Gourgeist (sein Name oder sein Bild) auf dem Bildschirm erscheint, drücken Sie so schnell wie möglich die Leertaste. Drücken Sie die Leertaste, immer wenn Sie ein Bild von Gourgeist oder das Wort GOURGEIST sehen. 

Drücken Sie die Leertaste, um die Aufgabe zu starten.",target5,stimuli/t5.jpg,98,69,stimuli/filler37.jpg,filler,False,None,,,,,,,,,,,,,,0,0,0,0,,,,,0,0,0,4,0,68,68,68,,,,,,,,,,,,,,,,,,,,,,,,,,,,,,,,,,,,,,,,,,,,,,,,,,,,,CS1_USpos,None,1,,,,,,,,,,,,,,,,,,20,w,98,n,2019_Dec_04_1057,ec_RRR,3.0.4,59.92692510779117,
Hutter,Das Zielwesen für diese Aufgabe ist Gourgeist:,"Also sobald Gourgeist (sein Name oder sein Bild) auf dem Bildschirm erscheint, drücken Sie so schnell wie möglich die Leertaste. Drücken Sie die Leertaste, immer wenn Sie ein Bild von Gourgeist oder das Wort GOURGEIST sehen. 

Drücken Sie die Leertaste, um die Aufgabe zu starten.",target5,stimuli/t5.jpg,98,70,stimuli/blank.jpg,blank,False,None,,,,,,,,,,,,,,0,0,0,0,,,,,0,0,0,4,0,69,69,69,,,,,,,,,,,,,,,,,,,,,,,,,,,,,,,,,,,,,,,,,,,,,,,,,,,,,CS1_USpos,None,1,,,,,,,,,,,,,,,,,,20,w,98,n,2019_Dec_04_1057,ec_RRR,3.0.4,59.92692510779117,
Hutter,Das Zielwesen für diese Aufgabe ist Gourgeist:,"Also sobald Gourgeist (sein Name oder sein Bild) auf dem Bildschirm erscheint, drücken Sie so schnell wie möglich die Leertaste. Drücken Sie die Leertaste, immer wenn Sie ein Bild von Gourgeist oder das Wort GOURGEIST sehen. 

Drücken Sie die Leertaste, um die Aufgabe zu starten.",target5,stimuli/t5.jpg,98,71,stimuli/cs1_pos1.jpg,CSUS,False,None,,,,,,,,,,,,,,0,0,0,0,,,,,0,0,0,4,0,70,70,70,,,,,,,,,,,,,,,,,,,,,,,,,,,,,,,,,,,,,,,,,,,,,,,,,,,,,CS1_USpos,None,1,,,,,,,,,,,,,,,,,,20,w,98,n,2019_Dec_04_1057,ec_RRR,3.0.4,59.92692510779117,
Hutter,Das Zielwesen für diese Aufgabe ist Gourgeist:,"Also sobald Gourgeist (sein Name oder sein Bild) auf dem Bildschirm erscheint, drücken Sie so schnell wie möglich die Leertaste. Drücken Sie die Leertaste, immer wenn Sie ein Bild von Gourgeist oder das Wort GOURGEIST sehen. 

Drücken Sie die Leertaste, um die Aufgabe zu starten.",target5,stimuli/t5.jpg,98,72,stimuli/blank.jpg,blank,False,None,,,,,,,,,,,,,,0,0,0,0,,,,,0,0,0,4,0,71,71,71,,,,,,,,,,,,,,,,,,,,,,,,,,,,,,,,,,,,,,,,,,,,,,,,,,,,,CS1_USpos,None,1,,,,,,,,,,,,,,,,,,20,w,98,n,2019_Dec_04_1057,ec_RRR,3.0.4,59.92692510779117,
Hutter,Das Zielwesen für diese Aufgabe ist Gourgeist:,"Also sobald Gourgeist (sein Name oder sein Bild) auf dem Bildschirm erscheint, drücken Sie so schnell wie möglich die Leertaste. Drücken Sie die Leertaste, immer wenn Sie ein Bild von Gourgeist oder das Wort GOURGEIST sehen. 

Drücken Sie die Leertaste, um die Aufgabe zu starten.",target5,stimuli/t5.jpg,98,73,stimuli/target5_7.jpg,target,True,space,,,,,,,,,,,,,,0,0,0,0,,,,,0,0,0,4,0,72,72,72,,,,,,,,,,,,,,,,,,,,,,,,,,,,,,,,,,,,,,,,,,,,,,,,,,,,,CS1_USpos,space,1,0.5552431000005527,,,,,,,,,,,,,,,,,20,w,98,n,2019_Dec_04_1057,ec_RRR,3.0.4,59.92692510779117,
Hutter,Das Zielwesen für diese Aufgabe ist Gourgeist:,"Also sobald Gourgeist (sein Name oder sein Bild) auf dem Bildschirm erscheint, drücken Sie so schnell wie möglich die Leertaste. Drücken Sie die Leertaste, immer wenn Sie ein Bild von Gourgeist oder das Wort GOURGEIST sehen. 

Drücken Sie die Leertaste, um die Aufgabe zu starten.",target5,stimuli/t5.jpg,98,74,stimuli/filler16.jpg,filler,False,None,,,,,,,,,,,,,,0,0,0,0,,,,,0,0,0,4,0,73,73,73,,,,,,,,,,,,,,,,,,,,,,,,,,,,,,,,,,,,,,,,,,,,,,,,,,,,,CS1_USpos,None,1,,,,,,,,,,,,,,,,,,20,w,98,n,2019_Dec_04_1057,ec_RRR,3.0.4,59.92692510779117,
Hutter,Das Zielwesen für diese Aufgabe ist Gourgeist:,"Also sobald Gourgeist (sein Name oder sein Bild) auf dem Bildschirm erscheint, drücken Sie so schnell wie möglich die Leertaste. Drücken Sie die Leertaste, immer wenn Sie ein Bild von Gourgeist oder das Wort GOURGEIST sehen. 

Drücken Sie die Leertaste, um die Aufgabe zu starten.",target5,stimuli/t5.jpg,98,75,stimuli/filler42.jpg,filler,False,None,,,,,,,,,,,,,,0,0,0,0,,,,,0,0,0,4,0,74,74,74,,,,,,,,,,,,,,,,,,,,,,,,,,,,,,,,,,,,,,,,,,,,,,,,,,,,,CS1_USpos,None,1,,,,,,,,,,,,,,,,,,20,w,98,n,2019_Dec_04_1057,ec_RRR,3.0.4,59.92692510779117,
Hutter,Das Zielwesen für diese Aufgabe ist Gourgeist:,"Also sobald Gourgeist (sein Name oder sein Bild) auf dem Bildschirm erscheint, drücken Sie so schnell wie möglich die Leertaste. Drücken Sie die Leertaste, immer wenn Sie ein Bild von Gourgeist oder das Wort GOURGEIST sehen. 

Drücken Sie die Leertaste, um die Aufgabe zu starten.",target5,stimuli/t5.jpg,98,76,stimuli/filler45.jpg,filler,False,None,,,,,,,,,,,,,,0,0,0,0,,,,,0,0,0,4,0,75,75,75,,,,,,,,,,,,,,,,,,,,,,,,,,,,,,,,,,,,,,,,,,,,,,,,,,,,,CS1_USpos,None,1,,,,,,,,,,,,,,,,,,20,w,98,n,2019_Dec_04_1057,ec_RRR,3.0.4,59.92692510779117,
Hutter,Das Zielwesen für diese Aufgabe ist Gourgeist:,"Also sobald Gourgeist (sein Name oder sein Bild) auf dem Bildschirm erscheint, drücken Sie so schnell wie möglich die Leertaste. Drücken Sie die Leertaste, immer wenn Sie ein Bild von Gourgeist oder das Wort GOURGEIST sehen. 

Drücken Sie die Leertaste, um die Aufgabe zu starten.",target5,stimuli/t5.jpg,98,77,stimuli/target5_4.jpg,target,True,space,,,,,,,,,,,,,,0,0,0,0,,,,,0,0,0,4,0,76,76,76,,,,,,,,,,,,,,,,,,,,,,,,,,,,,,,,,,,,,,,,,,,,,,,,,,,,,CS1_USpos,space,1,0.4392735999999786,,,,,,,,,,,,,,,,,20,w,98,n,2019_Dec_04_1057,ec_RRR,3.0.4,59.92692510779117,
Hutter,Das Zielwesen für diese Aufgabe ist Gourgeist:,"Also sobald Gourgeist (sein Name oder sein Bild) auf dem Bildschirm erscheint, drücken Sie so schnell wie möglich die Leertaste. Drücken Sie die Leertaste, immer wenn Sie ein Bild von Gourgeist oder das Wort GOURGEIST sehen. 

Drücken Sie die Leertaste, um die Aufgabe zu starten.",target5,stimuli/t5.jpg,98,78,stimuli/filler11.jpg,filler,False,None,,,,,,,,,,,,,,0,0,0,0,,,,,0,0,0,4,0,77,77,77,,,,,,,,,,,,,,,,,,,,,,,,,,,,,,,,,,,,,,,,,,,,,,,,,,,,,CS1_USpos,None,1,,,,,,,,,,,,,,,,,,20,w,98,n,2019_Dec_04_1057,ec_RRR,3.0.4,59.92692510779117,
Hutter,Das Zielwesen für diese Aufgabe ist Gourgeist:,"Also sobald Gourgeist (sein Name oder sein Bild) auf dem Bildschirm erscheint, drücken Sie so schnell wie möglich die Leertaste. Drücken Sie die Leertaste, immer wenn Sie ein Bild von Gourgeist oder das Wort GOURGEIST sehen. 

Drücken Sie die Leertaste, um die Aufgabe zu starten.",target5,stimuli/t5.jpg,98,79,stimuli/filler38.jpg,filler,False,None,,,,,,,,,,,,,,0,0,0,0,,,,,0,0,0,4,0,78,78,78,,,,,,,,,,,,,,,,,,,,,,,,,,,,,,,,,,,,,,,,,,,,,,,,,,,,,CS1_USpos,None,1,,,,,,,,,,,,,,,,,,20,w,98,n,2019_Dec_04_1057,ec_RRR,3.0.4,59.92692510779117,
Hutter,Das Zielwesen für diese Aufgabe ist Gourgeist:,"Also sobald Gourgeist (sein Name oder sein Bild) auf dem Bildschirm erscheint, drücken Sie so schnell wie möglich die Leertaste. Drücken Sie die Leertaste, immer wenn Sie ein Bild von Gourgeist oder das Wort GOURGEIST sehen. 

Drücken Sie die Leertaste, um die Aufgabe zu starten.",target5,stimuli/t5.jpg,98,80,stimuli/blank.jpg,blank,False,None,,,,,,,,,,,,,,0,0,0,0,,,,,0,0,0,4,0,79,79,79,,,,,,,,,,,,,,,,,,,,,,,,,,,,,,,,,,,,,,,,,,,,,,,,,,,,,CS1_USpos,None,1,,,,,,,,,,,,,,,,,,20,w,98,n,2019_Dec_04_1057,ec_RRR,3.0.4,59.92692510779117,
Hutter,Das Zielwesen für diese Aufgabe ist Gourgeist:,"Also sobald Gourgeist (sein Name oder sein Bild) auf dem Bildschirm erscheint, drücken Sie so schnell wie möglich die Leertaste. Drücken Sie die Leertaste, immer wenn Sie ein Bild von Gourgeist oder das Wort GOURGEIST sehen. 

Drücken Sie die Leertaste, um die Aufgabe zu starten.",target5,stimuli/t5.jpg,98,81,stimuli/cs2_neg11.jpg,CSUS,False,None,,,,,,,,,,,,,,0,0,0,0,,,,,0,0,0,4,0,80,80,80,,,,,,,,,,,,,,,,,,,,,,,,,,,,,,,,,,,,,,,,,,,,,,,,,,,,,CS1_USpos,None,1,,,,,,,,,,,,,,,,,,20,w,98,n,2019_Dec_04_1057,ec_RRR,3.0.4,59.92692510779117,
Hutter,Das Zielwesen für diese Aufgabe ist Gourgeist:,"Also sobald Gourgeist (sein Name oder sein Bild) auf dem Bildschirm erscheint, drücken Sie so schnell wie möglich die Leertaste. Drücken Sie die Leertaste, immer wenn Sie ein Bild von Gourgeist oder das Wort GOURGEIST sehen. 

Drücken Sie die Leertaste, um die Aufgabe zu starten.",target5,stimuli/t5.jpg,98,82,stimuli/blank.jpg,blank,False,None,,,,,,,,,,,,,,0,0,0,0,,,,,0,0,0,4,0,81,81,81,,,,,,,,,,,,,,,,,,,,,,,,,,,,,,,,,,,,,,,,,,,,,,,,,,,,,CS1_USpos,None,1,,,,,,,,,,,,,,,,,,20,w,98,n,2019_Dec_04_1057,ec_RRR,3.0.4,59.92692510779117,
Hutter,Das Zielwesen für diese Aufgabe ist Gourgeist:,"Also sobald Gourgeist (sein Name oder sein Bild) auf dem Bildschirm erscheint, drücken Sie so schnell wie möglich die Leertaste. Drücken Sie die Leertaste, immer wenn Sie ein Bild von Gourgeist oder das Wort GOURGEIST sehen. 

Drücken Sie die Leertaste, um die Aufgabe zu starten.",target5,stimuli/t5.jpg,98,83,stimuli/filler34.jpg,filler,False,None,,,,,,,,,,,,,,0,0,0,0,,,,,0,0,0,4,0,82,82,82,,,,,,,,,,,,,,,,,,,,,,,,,,,,,,,,,,,,,,,,,,,,,,,,,,,,,CS1_USpos,None,1,,,,,,,,,,,,,,,,,,20,w,98,n,2019_Dec_04_1057,ec_RRR,3.0.4,59.92692510779117,
Hutter,Das Zielwesen für diese Aufgabe ist Gourgeist:,"Also sobald Gourgeist (sein Name oder sein Bild) auf dem Bildschirm erscheint, drücken Sie so schnell wie möglich die Leertaste. Drücken Sie die Leertaste, immer wenn Sie ein Bild von Gourgeist oder das Wort GOURGEIST sehen. 

Drücken Sie die Leertaste, um die Aufgabe zu starten.",target5,stimuli/t5.jpg,98,84,stimuli/filler17.jpg,filler,False,None,,,,,,,,,,,,,,0,0,0,0,,,,,0,0,0,4,0,83,83,83,,,,,,,,,,,,,,,,,,,,,,,,,,,,,,,,,,,,,,,,,,,,,,,,,,,,,CS1_USpos,None,1,,,,,,,,,,,,,,,,,,20,w,98,n,2019_Dec_04_1057,ec_RRR,3.0.4,59.92692510779117,
Hutter,Das Zielwesen für diese Aufgabe ist Gourgeist:,"Also sobald Gourgeist (sein Name oder sein Bild) auf dem Bildschirm erscheint, drücken Sie so schnell wie möglich die Leertaste. Drücken Sie die Leertaste, immer wenn Sie ein Bild von Gourgeist oder das Wort GOURGEIST sehen. 

Drücken Sie die Leertaste, um die Aufgabe zu starten.",target5,stimuli/t5.jpg,98,85,stimuli/target5_9.jpg,target,True,space,,,,,,,,,,,,,,0,0,0,0,,,,,0,0,0,4,0,84,84,84,,,,,,,,,,,,,,,,,,,,,,,,,,,,,,,,,,,,,,,,,,,,,,,,,,,,,CS1_USpos,space,1,0.6545758000002024,,,,,,,,,,,,,,,,,20,w,98,n,2019_Dec_04_1057,ec_RRR,3.0.4,59.92692510779117,
Hutter,Das Zielwesen für diese Aufgabe ist Gourgeist:,"Also sobald Gourgeist (sein Name oder sein Bild) auf dem Bildschirm erscheint, drücken Sie so schnell wie möglich die Leertaste. Drücken Sie die Leertaste, immer wenn Sie ein Bild von Gourgeist oder das Wort GOURGEIST sehen. 

Drücken Sie die Leertaste, um die Aufgabe zu starten.",target5,stimuli/t5.jpg,98,86,stimuli/filler4.jpg,filler,False,None,,,,,,,,,,,,,,0,0,0,0,,,,,0,0,0,4,0,85,85,85,,,,,,,,,,,,,,,,,,,,,,,,,,,,,,,,,,,,,,,,,,,,,,,,,,,,,CS1_USpos,None,1,,,,,,,,,,,,,,,,,,20,w,98,n,2019_Dec_04_1057,ec_RRR,3.0.4,59.92692510779117,
Hutter,Das Zielwesen für diese Aufgabe ist Zorua:,"Also sobald Zorua (sein Name oder sein Bild) auf dem Bildschirm erscheint, drücken Sie so schnell wie möglich die Leertaste. Drücken Sie die Leertaste, immer wenn Sie ein Bild von Zorua oder das Wort ZORUA sehen. 

Drücken Sie die Leertaste, um die Aufgabe zu starten.",target2,stimuli/t2.jpg,98,1,stimuli/filler29.jpg,filler,False,None,,,,,,,,,,,,,,0,0,0,0,,,,,0,1,1,1,0,0,0,0,,,,,,,,,,,,,,,,,,,,,,,,,,,,,,,,,,,,,,,,,,,,,,,,,,,,,CS1_USpos,None,1,,,,,,,,,,,,,,,,,,20,w,98,n,2019_Dec_04_1057,ec_RRR,3.0.4,59.92692510779117,
Hutter,Das Zielwesen für diese Aufgabe ist Zorua:,"Also sobald Zorua (sein Name oder sein Bild) auf dem Bildschirm erscheint, drücken Sie so schnell wie möglich die Leertaste. Drücken Sie die Leertaste, immer wenn Sie ein Bild von Zorua oder das Wort ZORUA sehen. 

Drücken Sie die Leertaste, um die Aufgabe zu starten.",target2,stimuli/t2.jpg,98,2,stimuli/filler18.jpg,filler,False,None,,,,,,,,,,,,,,0,0,0,0,,,,,0,1,1,1,0,1,1,1,,,,,,,,,,,,,,,,,,,,,,,,,,,,,,,,,,,,,,,,,,,,,,,,,,,,,CS1_USpos,None,1,,,,,,,,,,,,,,,,,,20,w,98,n,2019_Dec_04_1057,ec_RRR,3.0.4,59.92692510779117,
Hutter,Das Zielwesen für diese Aufgabe ist Zorua:,"Also sobald Zorua (sein Name oder sein Bild) auf dem Bildschirm erscheint, drücken Sie so schnell wie möglich die Leertaste. Drücken Sie die Leertaste, immer wenn Sie ein Bild von Zorua oder das Wort ZORUA sehen. 

Drücken Sie die Leertaste, um die Aufgabe zu starten.",target2,stimuli/t2.jpg,98,3,stimuli/filler35.jpg,filler,False,None,,,,,,,,,,,,,,0,0,0,0,,,,,0,1,1,1,0,2,2,2,,,,,,,,,,,,,,,,,,,,,,,,,,,,,,,,,,,,,,,,,,,,,,,,,,,,,CS1_USpos,None,1,,,,,,,,,,,,,,,,,,20,w,98,n,2019_Dec_04_1057,ec_RRR,3.0.4,59.92692510779117,
Hutter,Das Zielwesen für diese Aufgabe ist Zorua:,"Also sobald Zorua (sein Name oder sein Bild) auf dem Bildschirm erscheint, drücken Sie so schnell wie möglich die Leertaste. Drücken Sie die Leertaste, immer wenn Sie ein Bild von Zorua oder das Wort ZORUA sehen. 

Drücken Sie die Leertaste, um die Aufgabe zu starten.",target2,stimuli/t2.jpg,98,4,stimuli/filler31.jpg,filler,False,None,,,,,,,,,,,,,,0,0,0,0,,,,,0,1,1,1,0,3,3,3,,,,,,,,,,,,,,,,,,,,,,,,,,,,,,,,,,,,,,,,,,,,,,,,,,,,,CS1_USpos,None,1,,,,,,,,,,,,,,,,,,20,w,98,n,2019_Dec_04_1057,ec_RRR,3.0.4,59.92692510779117,
Hutter,Das Zielwesen für diese Aufgabe ist Zorua:,"Also sobald Zorua (sein Name oder sein Bild) auf dem Bildschirm erscheint, drücken Sie so schnell wie möglich die Leertaste. Drücken Sie die Leertaste, immer wenn Sie ein Bild von Zorua oder das Wort ZORUA sehen. 

Drücken Sie die Leertaste, um die Aufgabe zu starten.",target2,stimuli/t2.jpg,98,5,stimuli/filler49.jpg,filler,False,None,,,,,,,,,,,,,,0,0,0,0,,,,,0,1,1,1,0,4,4,4,,,,,,,,,,,,,,,,,,,,,,,,,,,,,,,,,,,,,,,,,,,,,,,,,,,,,CS1_USpos,None,1,,,,,,,,,,,,,,,,,,20,w,98,n,2019_Dec_04_1057,ec_RRR,3.0.4,59.92692510779117,
Hutter,Das Zielwesen für diese Aufgabe ist Zorua:,"Also sobald Zorua (sein Name oder sein Bild) auf dem Bildschirm erscheint, drücken Sie so schnell wie möglich die Leertaste. Drücken Sie die Leertaste, immer wenn Sie ein Bild von Zorua oder das Wort ZORUA sehen. 

Drücken Sie die Leertaste, um die Aufgabe zu starten.",target2,stimuli/t2.jpg,98,6,stimuli/filler11.jpg,filler,False,None,,,,,,,,,,,,,,0,0,0,0,,,,,0,1,1,1,0,5,5,5,,,,,,,,,,,,,,,,,,,,,,,,,,,,,,,,,,,,,,,,,,,,,,,,,,,,,CS1_USpos,None,1,,,,,,,,,,,,,,,,,,20,w,98,n,2019_Dec_04_1057,ec_RRR,3.0.4,59.92692510779117,
Hutter,Das Zielwesen für diese Aufgabe ist Zorua:,"Also sobald Zorua (sein Name oder sein Bild) auf dem Bildschirm erscheint, drücken Sie so schnell wie möglich die Leertaste. Drücken Sie die Leertaste, immer wenn Sie ein Bild von Zorua oder das Wort ZORUA sehen. 

Drücken Sie die Leertaste, um die Aufgabe zu starten.",target2,stimuli/t2.jpg,98,7,stimuli/filler20.jpg,filler,False,None,,,,,,,,,,,,,,0,0,0,0,,,,,0,1,1,1,0,6,6,6,,,,,,,,,,,,,,,,,,,,,,,,,,,,,,,,,,,,,,,,,,,,,,,,,,,,,CS1_USpos,None,1,,,,,,,,,,,,,,,,,,20,w,98,n,2019_Dec_04_1057,ec_RRR,3.0.4,59.92692510779117,
Hutter,Das Zielwesen für diese Aufgabe ist Zorua:,"Also sobald Zorua (sein Name oder sein Bild) auf dem Bildschirm erscheint, drücken Sie so schnell wie möglich die Leertaste. Drücken Sie die Leertaste, immer wenn Sie ein Bild von Zorua oder das Wort ZORUA sehen. 

Drücken Sie die Leertaste, um die Aufgabe zu starten.",target2,stimuli/t2.jpg,98,8,stimuli/filler9.jpg,filler,False,None,,,,,,,,,,,,,,0,0,0,0,,,,,0,1,1,1,0,7,7,7,,,,,,,,,,,,,,,,,,,,,,,,,,,,,,,,,,,,,,,,,,,,,,,,,,,,,CS1_USpos,None,1,,,,,,,,,,,,,,,,,,20,w,98,n,2019_Dec_04_1057,ec_RRR,3.0.4,59.92692510779117,
Hutter,Das Zielwesen für diese Aufgabe ist Zorua:,"Also sobald Zorua (sein Name oder sein Bild) auf dem Bildschirm erscheint, drücken Sie so schnell wie möglich die Leertaste. Drücken Sie die Leertaste, immer wenn Sie ein Bild von Zorua oder das Wort ZORUA sehen. 

Drücken Sie die Leertaste, um die Aufgabe zu starten.",target2,stimuli/t2.jpg,98,9,stimuli/filler33.jpg,filler,False,None,,,,,,,,,,,,,,0,0,0,0,,,,,0,1,1,1,0,8,8,8,,,,,,,,,,,,,,,,,,,,,,,,,,,,,,,,,,,,,,,,,,,,,,,,,,,,,CS1_USpos,None,1,,,,,,,,,,,,,,,,,,20,w,98,n,2019_Dec_04_1057,ec_RRR,3.0.4,59.92692510779117,
Hutter,Das Zielwesen für diese Aufgabe ist Zorua:,"Also sobald Zorua (sein Name oder sein Bild) auf dem Bildschirm erscheint, drücken Sie so schnell wie möglich die Leertaste. Drücken Sie die Leertaste, immer wenn Sie ein Bild von Zorua oder das Wort ZORUA sehen. 

Drücken Sie die Leertaste, um die Aufgabe zu starten.",target2,stimuli/t2.jpg,98,10,stimuli/blank.jpg,blank,False,None,,,,,,,,,,,,,,0,0,0,0,,,,,0,1,1,1,0,9,9,9,,,,,,,,,,,,,,,,,,,,,,,,,,,,,,,,,,,,,,,,,,,,,,,,,,,,,CS1_USpos,None,1,,,,,,,,,,,,,,,,,,20,w,98,n,2019_Dec_04_1057,ec_RRR,3.0.4,59.92692510779117,
Hutter,Das Zielwesen für diese Aufgabe ist Zorua:,"Also sobald Zorua (sein Name oder sein Bild) auf dem Bildschirm erscheint, drücken Sie so schnell wie möglich die Leertaste. Drücken Sie die Leertaste, immer wenn Sie ein Bild von Zorua oder das Wort ZORUA sehen. 

Drücken Sie die Leertaste, um die Aufgabe zu starten.",target2,stimuli/t2.jpg,98,11,stimuli/cs1_pos6.jpg,CSUS,False,None,,,,,,,,,,,,,,0,0,0,0,,,,,0,1,1,1,0,10,10,10,,,,,,,,,,,,,,,,,,,,,,,,,,,,,,,,,,,,,,,,,,,,,,,,,,,,,CS1_USpos,None,1,,,,,,,,,,,,,,,,,,20,w,98,n,2019_Dec_04_1057,ec_RRR,3.0.4,59.92692510779117,
Hutter,Das Zielwesen für diese Aufgabe ist Zorua:,"Also sobald Zorua (sein Name oder sein Bild) auf dem Bildschirm erscheint, drücken Sie so schnell wie möglich die Leertaste. Drücken Sie die Leertaste, immer wenn Sie ein Bild von Zorua oder das Wort ZORUA sehen. 

Drücken Sie die Leertaste, um die Aufgabe zu starten.",target2,stimuli/t2.jpg,98,12,stimuli/blank.jpg,blank,False,None,,,,,,,,,,,,,,0,0,0,0,,,,,0,1,1,1,0,11,11,11,,,,,,,,,,,,,,,,,,,,,,,,,,,,,,,,,,,,,,,,,,,,,,,,,,,,,CS1_USpos,None,1,,,,,,,,,,,,,,,,,,20,w,98,n,2019_Dec_04_1057,ec_RRR,3.0.4,59.92692510779117,
Hutter,Das Zielwesen für diese Aufgabe ist Zorua:,"Also sobald Zorua (sein Name oder sein Bild) auf dem Bildschirm erscheint, drücken Sie so schnell wie möglich die Leertaste. Drücken Sie die Leertaste, immer wenn Sie ein Bild von Zorua oder das Wort ZORUA sehen. 

Drücken Sie die Leertaste, um die Aufgabe zu starten.",target2,stimuli/t2.jpg,98,13,stimuli/filler28.jpg,filler,False,None,,,,,,,,,,,,,,0,0,0,0,,,,,0,1,1,1,0,12,12,12,,,,,,,,,,,,,,,,,,,,,,,,,,,,,,,,,,,,,,,,,,,,,,,,,,,,,CS1_USpos,None,1,,,,,,,,,,,,,,,,,,20,w,98,n,2019_Dec_04_1057,ec_RRR,3.0.4,59.92692510779117,
Hutter,Das Zielwesen für diese Aufgabe ist Zorua:,"Also sobald Zorua (sein Name oder sein Bild) auf dem Bildschirm erscheint, drücken Sie so schnell wie möglich die Leertaste. Drücken Sie die Leertaste, immer wenn Sie ein Bild von Zorua oder das Wort ZORUA sehen. 

Drücken Sie die Leertaste, um die Aufgabe zu starten.",target2,stimuli/t2.jpg,98,14,stimuli/filler17.jpg,filler,False,None,,,,,,,,,,,,,,0,0,0,0,,,,,0,1,1,1,0,13,13,13,,,,,,,,,,,,,,,,,,,,,,,,,,,,,,,,,,,,,,,,,,,,,,,,,,,,,CS1_USpos,None,1,,,,,,,,,,,,,,,,,,20,w,98,n,2019_Dec_04_1057,ec_RRR,3.0.4,59.92692510779117,
Hutter,Das Zielwesen für diese Aufgabe ist Zorua:,"Also sobald Zorua (sein Name oder sein Bild) auf dem Bildschirm erscheint, drücken Sie so schnell wie möglich die Leertaste. Drücken Sie die Leertaste, immer wenn Sie ein Bild von Zorua oder das Wort ZORUA sehen. 

Drücken Sie die Leertaste, um die Aufgabe zu starten.",target2,stimuli/t2.jpg,98,15,stimuli/filler5.jpg,filler,False,None,,,,,,,,,,,,,,0,0,0,0,,,,,0,1,1,1,0,14,14,14,,,,,,,,,,,,,,,,,,,,,,,,,,,,,,,,,,,,,,,,,,,,,,,,,,,,,CS1_USpos,None,1,,,,,,,,,,,,,,,,,,20,w,98,n,2019_Dec_04_1057,ec_RRR,3.0.4,59.92692510779117,
Hutter,Das Zielwesen für diese Aufgabe ist Zorua:,"Also sobald Zorua (sein Name oder sein Bild) auf dem Bildschirm erscheint, drücken Sie so schnell wie möglich die Leertaste. Drücken Sie die Leertaste, immer wenn Sie ein Bild von Zorua oder das Wort ZORUA sehen. 

Drücken Sie die Leertaste, um die Aufgabe zu starten.",target2,stimuli/t2.jpg,98,16,stimuli/target2_1.jpg,target,True,space,,,,,,,,,,,,,,0,0,0,0,,,,,0,1,1,1,0,15,15,15,,,,,,,,,,,,,,,,,,,,,,,,,,,,,,,,,,,,,,,,,,,,,,,,,,,,,CS1_USpos,space,1,0.4538934000001973,,,,,,,,,,,,,,,,,20,w,98,n,2019_Dec_04_1057,ec_RRR,3.0.4,59.92692510779117,
Hutter,Das Zielwesen für diese Aufgabe ist Zorua:,"Also sobald Zorua (sein Name oder sein Bild) auf dem Bildschirm erscheint, drücken Sie so schnell wie möglich die Leertaste. Drücken Sie die Leertaste, immer wenn Sie ein Bild von Zorua oder das Wort ZORUA sehen. 

Drücken Sie die Leertaste, um die Aufgabe zu starten.",target2,stimuli/t2.jpg,98,17,stimuli/filler16.jpg,filler,False,None,,,,,,,,,,,,,,0,0,0,0,,,,,0,1,1,1,0,16,16,16,,,,,,,,,,,,,,,,,,,,,,,,,,,,,,,,,,,,,,,,,,,,,,,,,,,,,CS1_USpos,None,1,,,,,,,,,,,,,,,,,,20,w,98,n,2019_Dec_04_1057,ec_RRR,3.0.4,59.92692510779117,
Hutter,Das Zielwesen für diese Aufgabe ist Zorua:,"Also sobald Zorua (sein Name oder sein Bild) auf dem Bildschirm erscheint, drücken Sie so schnell wie möglich die Leertaste. Drücken Sie die Leertaste, immer wenn Sie ein Bild von Zorua oder das Wort ZORUA sehen. 

Drücken Sie die Leertaste, um die Aufgabe zu starten.",target2,stimuli/t2.jpg,98,18,stimuli/filler42.jpg,filler,False,None,,,,,,,,,,,,,,0,0,0,0,,,,,0,1,1,1,0,17,17,17,,,,,,,,,,,,,,,,,,,,,,,,,,,,,,,,,,,,,,,,,,,,,,,,,,,,,CS1_USpos,None,1,,,,,,,,,,,,,,,,,,20,w,98,n,2019_Dec_04_1057,ec_RRR,3.0.4,59.92692510779117,
Hutter,Das Zielwesen für diese Aufgabe ist Zorua:,"Also sobald Zorua (sein Name oder sein Bild) auf dem Bildschirm erscheint, drücken Sie so schnell wie möglich die Leertaste. Drücken Sie die Leertaste, immer wenn Sie ein Bild von Zorua oder das Wort ZORUA sehen. 

Drücken Sie die Leertaste, um die Aufgabe zu starten.",target2,stimuli/t2.jpg,98,19,stimuli/filler37.jpg,filler,False,None,,,,,,,,,,,,,,0,0,0,0,,,,,0,1,1,1,0,18,18,18,,,,,,,,,,,,,,,,,,,,,,,,,,,,,,,,,,,,,,,,,,,,,,,,,,,,,CS1_USpos,None,1,,,,,,,,,,,,,,,,,,20,w,98,n,2019_Dec_04_1057,ec_RRR,3.0.4,59.92692510779117,
Hutter,Das Zielwesen für diese Aufgabe ist Zorua:,"Also sobald Zorua (sein Name oder sein Bild) auf dem Bildschirm erscheint, drücken Sie so schnell wie möglich die Leertaste. Drücken Sie die Leertaste, immer wenn Sie ein Bild von Zorua oder das Wort ZORUA sehen. 

Drücken Sie die Leertaste, um die Aufgabe zu starten.",target2,stimuli/t2.jpg,98,20,stimuli/blank.jpg,blank,False,None,,,,,,,,,,,,,,0,0,0,0,,,,,0,1,1,1,0,19,19,19,,,,,,,,,,,,,,,,,,,,,,,,,,,,,,,,,,,,,,,,,,,,,,,,,,,,,CS1_USpos,None,1,,,,,,,,,,,,,,,,,,20,w,98,n,2019_Dec_04_1057,ec_RRR,3.0.4,59.92692510779117,
Hutter,Das Zielwesen für diese Aufgabe ist Zorua:,"Also sobald Zorua (sein Name oder sein Bild) auf dem Bildschirm erscheint, drücken Sie so schnell wie möglich die Leertaste. Drücken Sie die Leertaste, immer wenn Sie ein Bild von Zorua oder das Wort ZORUA sehen. 

Drücken Sie die Leertaste, um die Aufgabe zu starten.",target2,stimuli/t2.jpg,98,21,stimuli/cs2_neg19.jpg,CSUS,False,None,,,,,,,,,,,,,,0,0,0,0,,,,,0,1,1,1,0,20,20,20,,,,,,,,,,,,,,,,,,,,,,,,,,,,,,,,,,,,,,,,,,,,,,,,,,,,,CS1_USpos,None,1,,,,,,,,,,,,,,,,,,20,w,98,n,2019_Dec_04_1057,ec_RRR,3.0.4,59.92692510779117,
Hutter,Das Zielwesen für diese Aufgabe ist Zorua:,"Also sobald Zorua (sein Name oder sein Bild) auf dem Bildschirm erscheint, drücken Sie so schnell wie möglich die Leertaste. Drücken Sie die Leertaste, immer wenn Sie ein Bild von Zorua oder das Wort ZORUA sehen. 

Drücken Sie die Leertaste, um die Aufgabe zu starten.",target2,stimuli/t2.jpg,98,22,stimuli/blank.jpg,blank,False,None,,,,,,,,,,,,,,0,0,0,0,,,,,0,1,1,1,0,21,21,21,,,,,,,,,,,,,,,,,,,,,,,,,,,,,,,,,,,,,,,,,,,,,,,,,,,,,CS1_USpos,None,1,,,,,,,,,,,,,,,,,,20,w,98,n,2019_Dec_04_1057,ec_RRR,3.0.4,59.92692510779117,
Hutter,Das Zielwesen für diese Aufgabe ist Zorua:,"Also sobald Zorua (sein Name oder sein Bild) auf dem Bildschirm erscheint, drücken Sie so schnell wie möglich die Leertaste. Drücken Sie die Leertaste, immer wenn Sie ein Bild von Zorua oder das Wort ZORUA sehen. 

Drücken Sie die Leertaste, um die Aufgabe zu starten.",target2,stimuli/t2.jpg,98,23,stimuli/filler22.jpg,filler,False,None,,,,,,,,,,,,,,0,0,0,0,,,,,0,1,1,1,0,22,22,22,,,,,,,,,,,,,,,,,,,,,,,,,,,,,,,,,,,,,,,,,,,,,,,,,,,,,CS1_USpos,None,1,,,,,,,,,,,,,,,,,,20,w,98,n,2019_Dec_04_1057,ec_RRR,3.0.4,59.92692510779117,
Hutter,Das Zielwesen für diese Aufgabe ist Zorua:,"Also sobald Zorua (sein Name oder sein Bild) auf dem Bildschirm erscheint, drücken Sie so schnell wie möglich die Leertaste. Drücken Sie die Leertaste, immer wenn Sie ein Bild von Zorua oder das Wort ZORUA sehen. 

Drücken Sie die Leertaste, um die Aufgabe zu starten.",target2,stimuli/t2.jpg,98,24,stimuli/target2_8.jpg,target,True,space,,,,,,,,,,,,,,0,0,0,0,,,,,0,1,1,1,0,23,23,23,,,,,,,,,,,,,,,,,,,,,,,,,,,,,,,,,,,,,,,,,,,,,,,,,,,,,CS1_USpos,space,1,0.7214720000001762,,,,,,,,,,,,,,,,,20,w,98,n,2019_Dec_04_1057,ec_RRR,3.0.4,59.92692510779117,
Hutter,Das Zielwesen für diese Aufgabe ist Zorua:,"Also sobald Zorua (sein Name oder sein Bild) auf dem Bildschirm erscheint, drücken Sie so schnell wie möglich die Leertaste. Drücken Sie die Leertaste, immer wenn Sie ein Bild von Zorua oder das Wort ZORUA sehen. 

Drücken Sie die Leertaste, um die Aufgabe zu starten.",target2,stimuli/t2.jpg,98,25,stimuli/filler36.jpg,filler,False,None,,,,,,,,,,,,,,0,0,0,0,,,,,0,1,1,1,0,24,24,24,,,,,,,,,,,,,,,,,,,,,,,,,,,,,,,,,,,,,,,,,,,,,,,,,,,,,CS1_USpos,None,1,,,,,,,,,,,,,,,,,,20,w,98,n,2019_Dec_04_1057,ec_RRR,3.0.4,59.92692510779117,
Hutter,Das Zielwesen für diese Aufgabe ist Zorua:,"Also sobald Zorua (sein Name oder sein Bild) auf dem Bildschirm erscheint, drücken Sie so schnell wie möglich die Leertaste. Drücken Sie die Leertaste, immer wenn Sie ein Bild von Zorua oder das Wort ZORUA sehen. 

Drücken Sie die Leertaste, um die Aufgabe zu starten.",target2,stimuli/t2.jpg,98,26,stimuli/filler6.jpg,filler,False,None,,,,,,,,,,,,,,0,0,0,0,,,,,0,1,1,1,0,25,25,25,,,,,,,,,,,,,,,,,,,,,,,,,,,,,,,,,,,,,,,,,,,,,,,,,,,,,CS1_USpos,None,1,,,,,,,,,,,,,,,,,,20,w,98,n,2019_Dec_04_1057,ec_RRR,3.0.4,59.92692510779117,
Hutter,Das Zielwesen für diese Aufgabe ist Zorua:,"Also sobald Zorua (sein Name oder sein Bild) auf dem Bildschirm erscheint, drücken Sie so schnell wie möglich die Leertaste. Drücken Sie die Leertaste, immer wenn Sie ein Bild von Zorua oder das Wort ZORUA sehen. 

Drücken Sie die Leertaste, um die Aufgabe zu starten.",target2,stimuli/t2.jpg,98,27,stimuli/filler48.jpg,filler,False,None,,,,,,,,,,,,,,0,0,0,0,,,,,0,1,1,1,0,26,26,26,,,,,,,,,,,,,,,,,,,,,,,,,,,,,,,,,,,,,,,,,,,,,,,,,,,,,CS1_USpos,None,1,,,,,,,,,,,,,,,,,,20,w,98,n,2019_Dec_04_1057,ec_RRR,3.0.4,59.92692510779117,
Hutter,Das Zielwesen für diese Aufgabe ist Zorua:,"Also sobald Zorua (sein Name oder sein Bild) auf dem Bildschirm erscheint, drücken Sie so schnell wie möglich die Leertaste. Drücken Sie die Leertaste, immer wenn Sie ein Bild von Zorua oder das Wort ZORUA sehen. 

Drücken Sie die Leertaste, um die Aufgabe zu starten.",target2,stimuli/t2.jpg,98,28,stimuli/target2_7.jpg,target,True,space,,,,,,,,,,,,,,0,0,0,0,,,,,0,1,1,1,0,27,27,27,,,,,,,,,,,,,,,,,,,,,,,,,,,,,,,,,,,,,,,,,,,,,,,,,,,,,CS1_USpos,space,1,0.6381541000000652,,,,,,,,,,,,,,,,,20,w,98,n,2019_Dec_04_1057,ec_RRR,3.0.4,59.92692510779117,
Hutter,Das Zielwesen für diese Aufgabe ist Zorua:,"Also sobald Zorua (sein Name oder sein Bild) auf dem Bildschirm erscheint, drücken Sie so schnell wie möglich die Leertaste. Drücken Sie die Leertaste, immer wenn Sie ein Bild von Zorua oder das Wort ZORUA sehen. 

Drücken Sie die Leertaste, um die Aufgabe zu starten.",target2,stimuli/t2.jpg,98,29,stimuli/target2_2.jpg,target,True,space,,,,,,,,,,,,,,0,0,0,0,,,,,0,1,1,1,0,28,28,28,,,,,,,,,,,,,,,,,,,,,,,,,,,,,,,,,,,,,,,,,,,,,,,,,,,,,CS1_USpos,space,1,1.1045753999997032,,,,,,,,,,,,,,,,,20,w,98,n,2019_Dec_04_1057,ec_RRR,3.0.4,59.92692510779117,
Hutter,Das Zielwesen für diese Aufgabe ist Zorua:,"Also sobald Zorua (sein Name oder sein Bild) auf dem Bildschirm erscheint, drücken Sie so schnell wie möglich die Leertaste. Drücken Sie die Leertaste, immer wenn Sie ein Bild von Zorua oder das Wort ZORUA sehen. 

Drücken Sie die Leertaste, um die Aufgabe zu starten.",target2,stimuli/t2.jpg,98,30,stimuli/blank.jpg,blank,False,None,,,,,,,,,,,,,,0,0,0,0,,,,,0,1,1,1,0,29,29,29,,,,,,,,,,,,,,,,,,,,,,,,,,,,,,,,,,,,,,,,,,,,,,,,,,,,,CS1_USpos,None,1,,,,,,,,,,,,,,,,,,20,w,98,n,2019_Dec_04_1057,ec_RRR,3.0.4,59.92692510779117,
Hutter,Das Zielwesen für diese Aufgabe ist Zorua:,"Also sobald Zorua (sein Name oder sein Bild) auf dem Bildschirm erscheint, drücken Sie so schnell wie möglich die Leertaste. Drücken Sie die Leertaste, immer wenn Sie ein Bild von Zorua oder das Wort ZORUA sehen. 

Drücken Sie die Leertaste, um die Aufgabe zu starten.",target2,stimuli/t2.jpg,98,31,stimuli/cs1_pos11.jpg,CSUS,False,None,,,,,,,,,,,,,,0,0,0,0,,,,,0,1,1,1,0,30,30,30,,,,,,,,,,,,,,,,,,,,,,,,,,,,,,,,,,,,,,,,,,,,,,,,,,,,,CS1_USpos,None,1,,,,,,,,,,,,,,,,,,20,w,98,n,2019_Dec_04_1057,ec_RRR,3.0.4,59.92692510779117,
Hutter,Das Zielwesen für diese Aufgabe ist Zorua:,"Also sobald Zorua (sein Name oder sein Bild) auf dem Bildschirm erscheint, drücken Sie so schnell wie möglich die Leertaste. Drücken Sie die Leertaste, immer wenn Sie ein Bild von Zorua oder das Wort ZORUA sehen. 

Drücken Sie die Leertaste, um die Aufgabe zu starten.",target2,stimuli/t2.jpg,98,32,stimuli/blank.jpg,blank,False,None,,,,,,,,,,,,,,0,0,0,0,,,,,0,1,1,1,0,31,31,31,,,,,,,,,,,,,,,,,,,,,,,,,,,,,,,,,,,,,,,,,,,,,,,,,,,,,CS1_USpos,None,1,,,,,,,,,,,,,,,,,,20,w,98,n,2019_Dec_04_1057,ec_RRR,3.0.4,59.92692510779117,
Hutter,Das Zielwesen für diese Aufgabe ist Zorua:,"Also sobald Zorua (sein Name oder sein Bild) auf dem Bildschirm erscheint, drücken Sie so schnell wie möglich die Leertaste. Drücken Sie die Leertaste, immer wenn Sie ein Bild von Zorua oder das Wort ZORUA sehen. 

Drücken Sie die Leertaste, um die Aufgabe zu starten.",target2,stimuli/t2.jpg,98,33,stimuli/filler13.jpg,filler,False,None,,,,,,,,,,,,,,0,0,0,0,,,,,0,1,1,1,0,32,32,32,,,,,,,,,,,,,,,,,,,,,,,,,,,,,,,,,,,,,,,,,,,,,,,,,,,,,CS1_USpos,None,1,,,,,,,,,,,,,,,,,,20,w,98,n,2019_Dec_04_1057,ec_RRR,3.0.4,59.92692510779117,
Hutter,Das Zielwesen für diese Aufgabe ist Zorua:,"Also sobald Zorua (sein Name oder sein Bild) auf dem Bildschirm erscheint, drücken Sie so schnell wie möglich die Leertaste. Drücken Sie die Leertaste, immer wenn Sie ein Bild von Zorua oder das Wort ZORUA sehen. 

Drücken Sie die Leertaste, um die Aufgabe zu starten.",target2,stimuli/t2.jpg,98,34,stimuli/filler45.jpg,filler,False,None,,,,,,,,,,,,,,0,0,0,0,,,,,0,1,1,1,0,33,33,33,,,,,,,,,,,,,,,,,,,,,,,,,,,,,,,,,,,,,,,,,,,,,,,,,,,,,CS1_USpos,None,1,,,,,,,,,,,,,,,,,,20,w,98,n,2019_Dec_04_1057,ec_RRR,3.0.4,59.92692510779117,
Hutter,Das Zielwesen für diese Aufgabe ist Zorua:,"Also sobald Zorua (sein Name oder sein Bild) auf dem Bildschirm erscheint, drücken Sie so schnell wie möglich die Leertaste. Drücken Sie die Leertaste, immer wenn Sie ein Bild von Zorua oder das Wort ZORUA sehen. 

Drücken Sie die Leertaste, um die Aufgabe zu starten.",target2,stimuli/t2.jpg,98,35,stimuli/filler2.jpg,filler,False,None,,,,,,,,,,,,,,0,0,0,0,,,,,0,1,1,1,0,34,34,34,,,,,,,,,,,,,,,,,,,,,,,,,,,,,,,,,,,,,,,,,,,,,,,,,,,,,CS1_USpos,None,1,,,,,,,,,,,,,,,,,,20,w,98,n,2019_Dec_04_1057,ec_RRR,3.0.4,59.92692510779117,
Hutter,Das Zielwesen für diese Aufgabe ist Zorua:,"Also sobald Zorua (sein Name oder sein Bild) auf dem Bildschirm erscheint, drücken Sie so schnell wie möglich die Leertaste. Drücken Sie die Leertaste, immer wenn Sie ein Bild von Zorua oder das Wort ZORUA sehen. 

Drücken Sie die Leertaste, um die Aufgabe zu starten.",target2,stimuli/t2.jpg,98,36,stimuli/filler8.jpg,filler,False,None,,,,,,,,,,,,,,0,0,0,0,,,,,0,1,1,1,0,35,35,35,,,,,,,,,,,,,,,,,,,,,,,,,,,,,,,,,,,,,,,,,,,,,,,,,,,,,CS1_USpos,None,1,,,,,,,,,,,,,,,,,,20,w,98,n,2019_Dec_04_1057,ec_RRR,3.0.4,59.92692510779117,
Hutter,Das Zielwesen für diese Aufgabe ist Zorua:,"Also sobald Zorua (sein Name oder sein Bild) auf dem Bildschirm erscheint, drücken Sie so schnell wie möglich die Leertaste. Drücken Sie die Leertaste, immer wenn Sie ein Bild von Zorua oder das Wort ZORUA sehen. 

Drücken Sie die Leertaste, um die Aufgabe zu starten.",target2,stimuli/t2.jpg,98,37,stimuli/filler39.jpg,filler,False,None,,,,,,,,,,,,,,0,0,0,0,,,,,0,1,1,1,0,36,36,36,,,,,,,,,,,,,,,,,,,,,,,,,,,,,,,,,,,,,,,,,,,,,,,,,,,,,CS1_USpos,None,1,,,,,,,,,,,,,,,,,,20,w,98,n,2019_Dec_04_1057,ec_RRR,3.0.4,59.92692510779117,
Hutter,Das Zielwesen für diese Aufgabe ist Zorua:,"Also sobald Zorua (sein Name oder sein Bild) auf dem Bildschirm erscheint, drücken Sie so schnell wie möglich die Leertaste. Drücken Sie die Leertaste, immer wenn Sie ein Bild von Zorua oder das Wort ZORUA sehen. 

Drücken Sie die Leertaste, um die Aufgabe zu starten.",target2,stimuli/t2.jpg,98,38,stimuli/filler47.jpg,filler,False,None,,,,,,,,,,,,,,0,0,0,0,,,,,0,1,1,1,0,37,37,37,,,,,,,,,,,,,,,,,,,,,,,,,,,,,,,,,,,,,,,,,,,,,,,,,,,,,CS1_USpos,None,1,,,,,,,,,,,,,,,,,,20,w,98,n,2019_Dec_04_1057,ec_RRR,3.0.4,59.92692510779117,
Hutter,Das Zielwesen für diese Aufgabe ist Zorua:,"Also sobald Zorua (sein Name oder sein Bild) auf dem Bildschirm erscheint, drücken Sie so schnell wie möglich die Leertaste. Drücken Sie die Leertaste, immer wenn Sie ein Bild von Zorua oder das Wort ZORUA sehen. 

Drücken Sie die Leertaste, um die Aufgabe zu starten.",target2,stimuli/t2.jpg,98,39,stimuli/filler44.jpg,filler,False,None,,,,,,,,,,,,,,0,0,0,0,,,,,0,1,1,1,0,38,38,38,,,,,,,,,,,,,,,,,,,,,,,,,,,,,,,,,,,,,,,,,,,,,,,,,,,,,CS1_USpos,None,1,,,,,,,,,,,,,,,,,,20,w,98,n,2019_Dec_04_1057,ec_RRR,3.0.4,59.92692510779117,
Hutter,Das Zielwesen für diese Aufgabe ist Zorua:,"Also sobald Zorua (sein Name oder sein Bild) auf dem Bildschirm erscheint, drücken Sie so schnell wie möglich die Leertaste. Drücken Sie die Leertaste, immer wenn Sie ein Bild von Zorua oder das Wort ZORUA sehen. 

Drücken Sie die Leertaste, um die Aufgabe zu starten.",target2,stimuli/t2.jpg,98,40,stimuli/blank.jpg,blank,False,None,,,,,,,,,,,,,,0,0,0,0,,,,,0,1,1,1,0,39,39,39,,,,,,,,,,,,,,,,,,,,,,,,,,,,,,,,,,,,,,,,,,,,,,,,,,,,,CS1_USpos,None,1,,,,,,,,,,,,,,,,,,20,w,98,n,2019_Dec_04_1057,ec_RRR,3.0.4,59.92692510779117,
Hutter,Das Zielwesen für diese Aufgabe ist Zorua:,"Also sobald Zorua (sein Name oder sein Bild) auf dem Bildschirm erscheint, drücken Sie so schnell wie möglich die Leertaste. Drücken Sie die Leertaste, immer wenn Sie ein Bild von Zorua oder das Wort ZORUA sehen. 

Drücken Sie die Leertaste, um die Aufgabe zu starten.",target2,stimuli/t2.jpg,98,41,stimuli/cs2_neg16.jpg,CSUS,False,None,,,,,,,,,,,,,,0,0,0,0,,,,,0,1,1,1,0,40,40,40,,,,,,,,,,,,,,,,,,,,,,,,,,,,,,,,,,,,,,,,,,,,,,,,,,,,,CS1_USpos,None,1,,,,,,,,,,,,,,,,,,20,w,98,n,2019_Dec_04_1057,ec_RRR,3.0.4,59.92692510779117,
Hutter,Das Zielwesen für diese Aufgabe ist Zorua:,"Also sobald Zorua (sein Name oder sein Bild) auf dem Bildschirm erscheint, drücken Sie so schnell wie möglich die Leertaste. Drücken Sie die Leertaste, immer wenn Sie ein Bild von Zorua oder das Wort ZORUA sehen. 

Drücken Sie die Leertaste, um die Aufgabe zu starten.",target2,stimuli/t2.jpg,98,42,stimuli/blank.jpg,blank,False,None,,,,,,,,,,,,,,0,0,0,0,,,,,0,1,1,1,0,41,41,41,,,,,,,,,,,,,,,,,,,,,,,,,,,,,,,,,,,,,,,,,,,,,,,,,,,,,CS1_USpos,None,1,,,,,,,,,,,,,,,,,,20,w,98,n,2019_Dec_04_1057,ec_RRR,3.0.4,59.92692510779117,
Hutter,Das Zielwesen für diese Aufgabe ist Zorua:,"Also sobald Zorua (sein Name oder sein Bild) auf dem Bildschirm erscheint, drücken Sie so schnell wie möglich die Leertaste. Drücken Sie die Leertaste, immer wenn Sie ein Bild von Zorua oder das Wort ZORUA sehen. 

Drücken Sie die Leertaste, um die Aufgabe zu starten.",target2,stimuli/t2.jpg,98,43,stimuli/filler24.jpg,filler,False,None,,,,,,,,,,,,,,0,0,0,0,,,,,0,1,1,1,0,42,42,42,,,,,,,,,,,,,,,,,,,,,,,,,,,,,,,,,,,,,,,,,,,,,,,,,,,,,CS1_USpos,None,1,,,,,,,,,,,,,,,,,,20,w,98,n,2019_Dec_04_1057,ec_RRR,3.0.4,59.92692510779117,
Hutter,Das Zielwesen für diese Aufgabe ist Zorua:,"Also sobald Zorua (sein Name oder sein Bild) auf dem Bildschirm erscheint, drücken Sie so schnell wie möglich die Leertaste. Drücken Sie die Leertaste, immer wenn Sie ein Bild von Zorua oder das Wort ZORUA sehen. 

Drücken Sie die Leertaste, um die Aufgabe zu starten.",target2,stimuli/t2.jpg,98,44,stimuli/filler27.jpg,filler,False,None,,,,,,,,,,,,,,0,0,0,0,,,,,0,1,1,1,0,43,43,43,,,,,,,,,,,,,,,,,,,,,,,,,,,,,,,,,,,,,,,,,,,,,,,,,,,,,CS1_USpos,None,1,,,,,,,,,,,,,,,,,,20,w,98,n,2019_Dec_04_1057,ec_RRR,3.0.4,59.92692510779117,
Hutter,Das Zielwesen für diese Aufgabe ist Zorua:,"Also sobald Zorua (sein Name oder sein Bild) auf dem Bildschirm erscheint, drücken Sie so schnell wie möglich die Leertaste. Drücken Sie die Leertaste, immer wenn Sie ein Bild von Zorua oder das Wort ZORUA sehen. 

Drücken Sie die Leertaste, um die Aufgabe zu starten.",target2,stimuli/t2.jpg,98,45,stimuli/filler25.jpg,filler,False,None,,,,,,,,,,,,,,0,0,0,0,,,,,0,1,1,1,0,44,44,44,,,,,,,,,,,,,,,,,,,,,,,,,,,,,,,,,,,,,,,,,,,,,,,,,,,,,CS1_USpos,None,1,,,,,,,,,,,,,,,,,,20,w,98,n,2019_Dec_04_1057,ec_RRR,3.0.4,59.92692510779117,
Hutter,Das Zielwesen für diese Aufgabe ist Zorua:,"Also sobald Zorua (sein Name oder sein Bild) auf dem Bildschirm erscheint, drücken Sie so schnell wie möglich die Leertaste. Drücken Sie die Leertaste, immer wenn Sie ein Bild von Zorua oder das Wort ZORUA sehen. 

Drücken Sie die Leertaste, um die Aufgabe zu starten.",target2,stimuli/t2.jpg,98,46,stimuli/filler43.jpg,filler,False,None,,,,,,,,,,,,,,0,0,0,0,,,,,0,1,1,1,0,45,45,45,,,,,,,,,,,,,,,,,,,,,,,,,,,,,,,,,,,,,,,,,,,,,,,,,,,,,CS1_USpos,None,1,,,,,,,,,,,,,,,,,,20,w,98,n,2019_Dec_04_1057,ec_RRR,3.0.4,59.92692510779117,
Hutter,Das Zielwesen für diese Aufgabe ist Zorua:,"Also sobald Zorua (sein Name oder sein Bild) auf dem Bildschirm erscheint, drücken Sie so schnell wie möglich die Leertaste. Drücken Sie die Leertaste, immer wenn Sie ein Bild von Zorua oder das Wort ZORUA sehen. 

Drücken Sie die Leertaste, um die Aufgabe zu starten.",target2,stimuli/t2.jpg,98,47,stimuli/filler38.jpg,filler,False,None,,,,,,,,,,,,,,0,0,0,0,,,,,0,1,1,1,0,46,46,46,,,,,,,,,,,,,,,,,,,,,,,,,,,,,,,,,,,,,,,,,,,,,,,,,,,,,CS1_USpos,None,1,,,,,,,,,,,,,,,,,,20,w,98,n,2019_Dec_04_1057,ec_RRR,3.0.4,59.92692510779117,
Hutter,Das Zielwesen für diese Aufgabe ist Zorua:,"Also sobald Zorua (sein Name oder sein Bild) auf dem Bildschirm erscheint, drücken Sie so schnell wie möglich die Leertaste. Drücken Sie die Leertaste, immer wenn Sie ein Bild von Zorua oder das Wort ZORUA sehen. 

Drücken Sie die Leertaste, um die Aufgabe zu starten.",target2,stimuli/t2.jpg,98,48,stimuli/filler3.jpg,filler,False,None,,,,,,,,,,,,,,0,0,0,0,,,,,0,1,1,1,0,47,47,47,,,,,,,,,,,,,,,,,,,,,,,,,,,,,,,,,,,,,,,,,,,,,,,,,,,,,CS1_USpos,None,1,,,,,,,,,,,,,,,,,,20,w,98,n,2019_Dec_04_1057,ec_RRR,3.0.4,59.92692510779117,
Hutter,Das Zielwesen für diese Aufgabe ist Zorua:,"Also sobald Zorua (sein Name oder sein Bild) auf dem Bildschirm erscheint, drücken Sie so schnell wie möglich die Leertaste. Drücken Sie die Leertaste, immer wenn Sie ein Bild von Zorua oder das Wort ZORUA sehen. 

Drücken Sie die Leertaste, um die Aufgabe zu starten.",target2,stimuli/t2.jpg,98,49,stimuli/target2_5.jpg,target,True,space,,,,,,,,,,,,,,0,0,0,0,,,,,0,1,1,1,0,48,48,48,,,,,,,,,,,,,,,,,,,,,,,,,,,,,,,,,,,,,,,,,,,,,,,,,,,,,CS1_USpos,space,1,0.5540410000003249,,,,,,,,,,,,,,,,,20,w,98,n,2019_Dec_04_1057,ec_RRR,3.0.4,59.92692510779117,
Hutter,Das Zielwesen für diese Aufgabe ist Zorua:,"Also sobald Zorua (sein Name oder sein Bild) auf dem Bildschirm erscheint, drücken Sie so schnell wie möglich die Leertaste. Drücken Sie die Leertaste, immer wenn Sie ein Bild von Zorua oder das Wort ZORUA sehen. 

Drücken Sie die Leertaste, um die Aufgabe zu starten.",target2,stimuli/t2.jpg,98,50,stimuli/blank.jpg,blank,False,None,,,,,,,,,,,,,,0,0,0,0,,,,,0,1,1,1,0,49,49,49,,,,,,,,,,,,,,,,,,,,,,,,,,,,,,,,,,,,,,,,,,,,,,,,,,,,,CS1_USpos,None,1,,,,,,,,,,,,,,,,,,20,w,98,n,2019_Dec_04_1057,ec_RRR,3.0.4,59.92692510779117,
Hutter,Das Zielwesen für diese Aufgabe ist Zorua:,"Also sobald Zorua (sein Name oder sein Bild) auf dem Bildschirm erscheint, drücken Sie so schnell wie möglich die Leertaste. Drücken Sie die Leertaste, immer wenn Sie ein Bild von Zorua oder das Wort ZORUA sehen. 

Drücken Sie die Leertaste, um die Aufgabe zu starten.",target2,stimuli/t2.jpg,98,51,stimuli/cs1_pos9.jpg,CSUS,False,None,,,,,,,,,,,,,,0,0,0,0,,,,,0,1,1,1,0,50,50,50,,,,,,,,,,,,,,,,,,,,,,,,,,,,,,,,,,,,,,,,,,,,,,,,,,,,,CS1_USpos,None,1,,,,,,,,,,,,,,,,,,20,w,98,n,2019_Dec_04_1057,ec_RRR,3.0.4,59.92692510779117,
Hutter,Das Zielwesen für diese Aufgabe ist Zorua:,"Also sobald Zorua (sein Name oder sein Bild) auf dem Bildschirm erscheint, drücken Sie so schnell wie möglich die Leertaste. Drücken Sie die Leertaste, immer wenn Sie ein Bild von Zorua oder das Wort ZORUA sehen. 

Drücken Sie die Leertaste, um die Aufgabe zu starten.",target2,stimuli/t2.jpg,98,52,stimuli/blank.jpg,blank,False,None,,,,,,,,,,,,,,0,0,0,0,,,,,0,1,1,1,0,51,51,51,,,,,,,,,,,,,,,,,,,,,,,,,,,,,,,,,,,,,,,,,,,,,,,,,,,,,CS1_USpos,None,1,,,,,,,,,,,,,,,,,,20,w,98,n,2019_Dec_04_1057,ec_RRR,3.0.4,59.92692510779117,
Hutter,Das Zielwesen für diese Aufgabe ist Zorua:,"Also sobald Zorua (sein Name oder sein Bild) auf dem Bildschirm erscheint, drücken Sie so schnell wie möglich die Leertaste. Drücken Sie die Leertaste, immer wenn Sie ein Bild von Zorua oder das Wort ZORUA sehen. 

Drücken Sie die Leertaste, um die Aufgabe zu starten.",target2,stimuli/t2.jpg,98,53,stimuli/filler46.jpg,filler,False,None,,,,,,,,,,,,,,0,0,0,0,,,,,0,1,1,1,0,52,52,52,,,,,,,,,,,,,,,,,,,,,,,,,,,,,,,,,,,,,,,,,,,,,,,,,,,,,CS1_USpos,None,1,,,,,,,,,,,,,,,,,,20,w,98,n,2019_Dec_04_1057,ec_RRR,3.0.4,59.92692510779117,
Hutter,Das Zielwesen für diese Aufgabe ist Zorua:,"Also sobald Zorua (sein Name oder sein Bild) auf dem Bildschirm erscheint, drücken Sie so schnell wie möglich die Leertaste. Drücken Sie die Leertaste, immer wenn Sie ein Bild von Zorua oder das Wort ZORUA sehen. 

Drücken Sie die Leertaste, um die Aufgabe zu starten.",target2,stimuli/t2.jpg,98,54,stimuli/filler26.jpg,filler,False,None,,,,,,,,,,,,,,0,0,0,0,,,,,0,1,1,1,0,53,53,53,,,,,,,,,,,,,,,,,,,,,,,,,,,,,,,,,,,,,,,,,,,,,,,,,,,,,CS1_USpos,None,1,,,,,,,,,,,,,,,,,,20,w,98,n,2019_Dec_04_1057,ec_RRR,3.0.4,59.92692510779117,
Hutter,Das Zielwesen für diese Aufgabe ist Zorua:,"Also sobald Zorua (sein Name oder sein Bild) auf dem Bildschirm erscheint, drücken Sie so schnell wie möglich die Leertaste. Drücken Sie die Leertaste, immer wenn Sie ein Bild von Zorua oder das Wort ZORUA sehen. 

Drücken Sie die Leertaste, um die Aufgabe zu starten.",target2,stimuli/t2.jpg,98,55,stimuli/filler40.jpg,filler,False,None,,,,,,,,,,,,,,0,0,0,0,,,,,0,1,1,1,0,54,54,54,,,,,,,,,,,,,,,,,,,,,,,,,,,,,,,,,,,,,,,,,,,,,,,,,,,,,CS1_USpos,None,1,,,,,,,,,,,,,,,,,,20,w,98,n,2019_Dec_04_1057,ec_RRR,3.0.4,59.92692510779117,
Hutter,Das Zielwesen für diese Aufgabe ist Zorua:,"Also sobald Zorua (sein Name oder sein Bild) auf dem Bildschirm erscheint, drücken Sie so schnell wie möglich die Leertaste. Drücken Sie die Leertaste, immer wenn Sie ein Bild von Zorua oder das Wort ZORUA sehen. 

Drücken Sie die Leertaste, um die Aufgabe zu starten.",target2,stimuli/t2.jpg,98,56,stimuli/filler7.jpg,filler,False,None,,,,,,,,,,,,,,0,0,0,0,,,,,0,1,1,1,0,55,55,55,,,,,,,,,,,,,,,,,,,,,,,,,,,,,,,,,,,,,,,,,,,,,,,,,,,,,CS1_USpos,None,1,,,,,,,,,,,,,,,,,,20,w,98,n,2019_Dec_04_1057,ec_RRR,3.0.4,59.92692510779117,
Hutter,Das Zielwesen für diese Aufgabe ist Zorua:,"Also sobald Zorua (sein Name oder sein Bild) auf dem Bildschirm erscheint, drücken Sie so schnell wie möglich die Leertaste. Drücken Sie die Leertaste, immer wenn Sie ein Bild von Zorua oder das Wort ZORUA sehen. 

Drücken Sie die Leertaste, um die Aufgabe zu starten.",target2,stimuli/t2.jpg,98,57,stimuli/filler52.jpg,filler,False,None,,,,,,,,,,,,,,0,0,0,0,,,,,0,1,1,1,0,56,56,56,,,,,,,,,,,,,,,,,,,,,,,,,,,,,,,,,,,,,,,,,,,,,,,,,,,,,CS1_USpos,None,1,,,,,,,,,,,,,,,,,,20,w,98,n,2019_Dec_04_1057,ec_RRR,3.0.4,59.92692510779117,
Hutter,Das Zielwesen für diese Aufgabe ist Zorua:,"Also sobald Zorua (sein Name oder sein Bild) auf dem Bildschirm erscheint, drücken Sie so schnell wie möglich die Leertaste. Drücken Sie die Leertaste, immer wenn Sie ein Bild von Zorua oder das Wort ZORUA sehen. 

Drücken Sie die Leertaste, um die Aufgabe zu starten.",target2,stimuli/t2.jpg,98,58,stimuli/filler10.jpg,filler,False,None,,,,,,,,,,,,,,0,0,0,0,,,,,0,1,1,1,0,57,57,57,,,,,,,,,,,,,,,,,,,,,,,,,,,,,,,,,,,,,,,,,,,,,,,,,,,,,CS1_USpos,None,1,,,,,,,,,,,,,,,,,,20,w,98,n,2019_Dec_04_1057,ec_RRR,3.0.4,59.92692510779117,
Hutter,Das Zielwesen für diese Aufgabe ist Zorua:,"Also sobald Zorua (sein Name oder sein Bild) auf dem Bildschirm erscheint, drücken Sie so schnell wie möglich die Leertaste. Drücken Sie die Leertaste, immer wenn Sie ein Bild von Zorua oder das Wort ZORUA sehen. 

Drücken Sie die Leertaste, um die Aufgabe zu starten.",target2,stimuli/t2.jpg,98,59,stimuli/target2_10.jpg,target,True,space,,,,,,,,,,,,,,0,0,0,0,,,,,0,1,1,1,0,58,58,58,,,,,,,,,,,,,,,,,,,,,,,,,,,,,,,,,,,,,,,,,,,,,,,,,,,,,CS1_USpos,space,1,0.48762970000007044,,,,,,,,,,,,,,,,,20,w,98,n,2019_Dec_04_1057,ec_RRR,3.0.4,59.92692510779117,
Hutter,Das Zielwesen für diese Aufgabe ist Zorua:,"Also sobald Zorua (sein Name oder sein Bild) auf dem Bildschirm erscheint, drücken Sie so schnell wie möglich die Leertaste. Drücken Sie die Leertaste, immer wenn Sie ein Bild von Zorua oder das Wort ZORUA sehen. 

Drücken Sie die Leertaste, um die Aufgabe zu starten.",target2,stimuli/t2.jpg,98,60,stimuli/blank.jpg,blank,False,None,,,,,,,,,,,,,,0,0,0,0,,,,,0,1,1,1,0,59,59,59,,,,,,,,,,,,,,,,,,,,,,,,,,,,,,,,,,,,,,,,,,,,,,,,,,,,,CS1_USpos,None,1,,,,,,,,,,,,,,,,,,20,w,98,n,2019_Dec_04_1057,ec_RRR,3.0.4,59.92692510779117,
Hutter,Das Zielwesen für diese Aufgabe ist Zorua:,"Also sobald Zorua (sein Name oder sein Bild) auf dem Bildschirm erscheint, drücken Sie so schnell wie möglich die Leertaste. Drücken Sie die Leertaste, immer wenn Sie ein Bild von Zorua oder das Wort ZORUA sehen. 

Drücken Sie die Leertaste, um die Aufgabe zu starten.",target2,stimuli/t2.jpg,98,61,stimuli/cs2_neg8.jpg,CSUS,False,None,,,,,,,,,,,,,,0,0,0,0,,,,,0,1,1,1,0,60,60,60,,,,,,,,,,,,,,,,,,,,,,,,,,,,,,,,,,,,,,,,,,,,,,,,,,,,,CS1_USpos,None,1,,,,,,,,,,,,,,,,,,20,w,98,n,2019_Dec_04_1057,ec_RRR,3.0.4,59.92692510779117,
Hutter,Das Zielwesen für diese Aufgabe ist Zorua:,"Also sobald Zorua (sein Name oder sein Bild) auf dem Bildschirm erscheint, drücken Sie so schnell wie möglich die Leertaste. Drücken Sie die Leertaste, immer wenn Sie ein Bild von Zorua oder das Wort ZORUA sehen. 

Drücken Sie die Leertaste, um die Aufgabe zu starten.",target2,stimuli/t2.jpg,98,62,stimuli/blank.jpg,blank,False,None,,,,,,,,,,,,,,0,0,0,0,,,,,0,1,1,1,0,61,61,61,,,,,,,,,,,,,,,,,,,,,,,,,,,,,,,,,,,,,,,,,,,,,,,,,,,,,CS1_USpos,None,1,,,,,,,,,,,,,,,,,,20,w,98,n,2019_Dec_04_1057,ec_RRR,3.0.4,59.92692510779117,
Hutter,Das Zielwesen für diese Aufgabe ist Zorua:,"Also sobald Zorua (sein Name oder sein Bild) auf dem Bildschirm erscheint, drücken Sie so schnell wie möglich die Leertaste. Drücken Sie die Leertaste, immer wenn Sie ein Bild von Zorua oder das Wort ZORUA sehen. 

Drücken Sie die Leertaste, um die Aufgabe zu starten.",target2,stimuli/t2.jpg,98,63,stimuli/filler41.jpg,filler,False,None,,,,,,,,,,,,,,0,0,0,0,,,,,0,1,1,1,0,62,62,62,,,,,,,,,,,,,,,,,,,,,,,,,,,,,,,,,,,,,,,,,,,,,,,,,,,,,CS1_USpos,None,1,,,,,,,,,,,,,,,,,,20,w,98,n,2019_Dec_04_1057,ec_RRR,3.0.4,59.92692510779117,
Hutter,Das Zielwesen für diese Aufgabe ist Zorua:,"Also sobald Zorua (sein Name oder sein Bild) auf dem Bildschirm erscheint, drücken Sie so schnell wie möglich die Leertaste. Drücken Sie die Leertaste, immer wenn Sie ein Bild von Zorua oder das Wort ZORUA sehen. 

Drücken Sie die Leertaste, um die Aufgabe zu starten.",target2,stimuli/t2.jpg,98,64,stimuli/filler23.jpg,filler,False,None,,,,,,,,,,,,,,0,0,0,0,,,,,0,1,1,1,0,63,63,63,,,,,,,,,,,,,,,,,,,,,,,,,,,,,,,,,,,,,,,,,,,,,,,,,,,,,CS1_USpos,None,1,,,,,,,,,,,,,,,,,,20,w,98,n,2019_Dec_04_1057,ec_RRR,3.0.4,59.92692510779117,
Hutter,Das Zielwesen für diese Aufgabe ist Zorua:,"Also sobald Zorua (sein Name oder sein Bild) auf dem Bildschirm erscheint, drücken Sie so schnell wie möglich die Leertaste. Drücken Sie die Leertaste, immer wenn Sie ein Bild von Zorua oder das Wort ZORUA sehen. 

Drücken Sie die Leertaste, um die Aufgabe zu starten.",target2,stimuli/t2.jpg,98,65,stimuli/filler4.jpg,filler,False,None,,,,,,,,,,,,,,0,0,0,0,,,,,0,1,1,1,0,64,64,64,,,,,,,,,,,,,,,,,,,,,,,,,,,,,,,,,,,,,,,,,,,,,,,,,,,,,CS1_USpos,None,1,,,,,,,,,,,,,,,,,,20,w,98,n,2019_Dec_04_1057,ec_RRR,3.0.4,59.92692510779117,
Hutter,Das Zielwesen für diese Aufgabe ist Zorua:,"Also sobald Zorua (sein Name oder sein Bild) auf dem Bildschirm erscheint, drücken Sie so schnell wie möglich die Leertaste. Drücken Sie die Leertaste, immer wenn Sie ein Bild von Zorua oder das Wort ZORUA sehen. 

Drücken Sie die Leertaste, um die Aufgabe zu starten.",target2,stimuli/t2.jpg,98,66,stimuli/target2_3.jpg,target,True,space,,,,,,,,,,,,,,0,0,0,0,,,,,0,1,1,1,0,65,65,65,,,,,,,,,,,,,,,,,,,,,,,,,,,,,,,,,,,,,,,,,,,,,,,,,,,,,CS1_USpos,space,1,0.5552594000000681,,,,,,,,,,,,,,,,,20,w,98,n,2019_Dec_04_1057,ec_RRR,3.0.4,59.92692510779117,
Hutter,Das Zielwesen für diese Aufgabe ist Zorua:,"Also sobald Zorua (sein Name oder sein Bild) auf dem Bildschirm erscheint, drücken Sie so schnell wie möglich die Leertaste. Drücken Sie die Leertaste, immer wenn Sie ein Bild von Zorua oder das Wort ZORUA sehen. 

Drücken Sie die Leertaste, um die Aufgabe zu starten.",target2,stimuli/t2.jpg,98,67,stimuli/filler30.jpg,filler,False,None,,,,,,,,,,,,,,0,0,0,0,,,,,0,1,1,1,0,66,66,66,,,,,,,,,,,,,,,,,,,,,,,,,,,,,,,,,,,,,,,,,,,,,,,,,,,,,CS1_USpos,None,1,,,,,,,,,,,,,,,,,,20,w,98,n,2019_Dec_04_1057,ec_RRR,3.0.4,59.92692510779117,
Hutter,Das Zielwesen für diese Aufgabe ist Zorua:,"Also sobald Zorua (sein Name oder sein Bild) auf dem Bildschirm erscheint, drücken Sie so schnell wie möglich die Leertaste. Drücken Sie die Leertaste, immer wenn Sie ein Bild von Zorua oder das Wort ZORUA sehen. 

Drücken Sie die Leertaste, um die Aufgabe zu starten.",target2,stimuli/t2.jpg,98,68,stimuli/target2_6.jpg,target,True,space,,,,,,,,,,,,,,0,0,0,0,,,,,0,1,1,1,0,67,67,67,,,,,,,,,,,,,,,,,,,,,,,,,,,,,,,,,,,,,,,,,,,,,,,,,,,,,CS1_USpos,space,1,0.5047631999996156,,,,,,,,,,,,,,,,,20,w,98,n,2019_Dec_04_1057,ec_RRR,3.0.4,59.92692510779117,
Hutter,Das Zielwesen für diese Aufgabe ist Zorua:,"Also sobald Zorua (sein Name oder sein Bild) auf dem Bildschirm erscheint, drücken Sie so schnell wie möglich die Leertaste. Drücken Sie die Leertaste, immer wenn Sie ein Bild von Zorua oder das Wort ZORUA sehen. 

Drücken Sie die Leertaste, um die Aufgabe zu starten.",target2,stimuli/t2.jpg,98,69,stimuli/filler34.jpg,filler,False,None,,,,,,,,,,,,,,0,0,0,0,,,,,0,1,1,1,0,68,68,68,,,,,,,,,,,,,,,,,,,,,,,,,,,,,,,,,,,,,,,,,,,,,,,,,,,,,CS1_USpos,None,1,,,,,,,,,,,,,,,,,,20,w,98,n,2019_Dec_04_1057,ec_RRR,3.0.4,59.92692510779117,
Hutter,Das Zielwesen für diese Aufgabe ist Zorua:,"Also sobald Zorua (sein Name oder sein Bild) auf dem Bildschirm erscheint, drücken Sie so schnell wie möglich die Leertaste. Drücken Sie die Leertaste, immer wenn Sie ein Bild von Zorua oder das Wort ZORUA sehen. 

Drücken Sie die Leertaste, um die Aufgabe zu starten.",target2,stimuli/t2.jpg,98,70,stimuli/blank.jpg,blank,False,None,,,,,,,,,,,,,,0,0,0,0,,,,,0,1,1,1,0,69,69,69,,,,,,,,,,,,,,,,,,,,,,,,,,,,,,,,,,,,,,,,,,,,,,,,,,,,,CS1_USpos,None,1,,,,,,,,,,,,,,,,,,20,w,98,n,2019_Dec_04_1057,ec_RRR,3.0.4,59.92692510779117,
Hutter,Das Zielwesen für diese Aufgabe ist Zorua:,"Also sobald Zorua (sein Name oder sein Bild) auf dem Bildschirm erscheint, drücken Sie so schnell wie möglich die Leertaste. Drücken Sie die Leertaste, immer wenn Sie ein Bild von Zorua oder das Wort ZORUA sehen. 

Drücken Sie die Leertaste, um die Aufgabe zu starten.",target2,stimuli/t2.jpg,98,71,stimuli/cs1_pos20.jpg,CSUS,False,None,,,,,,,,,,,,,,0,0,0,0,,,,,0,1,1,1,0,70,70,70,,,,,,,,,,,,,,,,,,,,,,,,,,,,,,,,,,,,,,,,,,,,,,,,,,,,,CS1_USpos,None,1,,,,,,,,,,,,,,,,,,20,w,98,n,2019_Dec_04_1057,ec_RRR,3.0.4,59.92692510779117,
Hutter,Das Zielwesen für diese Aufgabe ist Zorua:,"Also sobald Zorua (sein Name oder sein Bild) auf dem Bildschirm erscheint, drücken Sie so schnell wie möglich die Leertaste. Drücken Sie die Leertaste, immer wenn Sie ein Bild von Zorua oder das Wort ZORUA sehen. 

Drücken Sie die Leertaste, um die Aufgabe zu starten.",target2,stimuli/t2.jpg,98,72,stimuli/blank.jpg,blank,False,None,,,,,,,,,,,,,,0,0,0,0,,,,,0,1,1,1,0,71,71,71,,,,,,,,,,,,,,,,,,,,,,,,,,,,,,,,,,,,,,,,,,,,,,,,,,,,,CS1_USpos,None,1,,,,,,,,,,,,,,,,,,20,w,98,n,2019_Dec_04_1057,ec_RRR,3.0.4,59.92692510779117,
Hutter,Das Zielwesen für diese Aufgabe ist Zorua:,"Also sobald Zorua (sein Name oder sein Bild) auf dem Bildschirm erscheint, drücken Sie so schnell wie möglich die Leertaste. Drücken Sie die Leertaste, immer wenn Sie ein Bild von Zorua oder das Wort ZORUA sehen. 

Drücken Sie die Leertaste, um die Aufgabe zu starten.",target2,stimuli/t2.jpg,98,73,stimuli/filler14.jpg,filler,False,None,,,,,,,,,,,,,,0,0,0,0,,,,,0,1,1,1,0,72,72,72,,,,,,,,,,,,,,,,,,,,,,,,,,,,,,,,,,,,,,,,,,,,,,,,,,,,,CS1_USpos,None,1,,,,,,,,,,,,,,,,,,20,w,98,n,2019_Dec_04_1057,ec_RRR,3.0.4,59.92692510779117,
Hutter,Das Zielwesen für diese Aufgabe ist Zorua:,"Also sobald Zorua (sein Name oder sein Bild) auf dem Bildschirm erscheint, drücken Sie so schnell wie möglich die Leertaste. Drücken Sie die Leertaste, immer wenn Sie ein Bild von Zorua oder das Wort ZORUA sehen. 

Drücken Sie die Leertaste, um die Aufgabe zu starten.",target2,stimuli/t2.jpg,98,74,stimuli/filler15.jpg,filler,False,None,,,,,,,,,,,,,,0,0,0,0,,,,,0,1,1,1,0,73,73,73,,,,,,,,,,,,,,,,,,,,,,,,,,,,,,,,,,,,,,,,,,,,,,,,,,,,,CS1_USpos,None,1,,,,,,,,,,,,,,,,,,20,w,98,n,2019_Dec_04_1057,ec_RRR,3.0.4,59.92692510779117,
Hutter,Das Zielwesen für diese Aufgabe ist Zorua:,"Also sobald Zorua (sein Name oder sein Bild) auf dem Bildschirm erscheint, drücken Sie so schnell wie möglich die Leertaste. Drücken Sie die Leertaste, immer wenn Sie ein Bild von Zorua oder das Wort ZORUA sehen. 

Drücken Sie die Leertaste, um die Aufgabe zu starten.",target2,stimuli/t2.jpg,98,75,stimuli/filler51.jpg,filler,False,None,,,,,,,,,,,,,,0,0,0,0,,,,,0,1,1,1,0,74,74,74,,,,,,,,,,,,,,,,,,,,,,,,,,,,,,,,,,,,,,,,,,,,,,,,,,,,,CS1_USpos,None,1,,,,,,,,,,,,,,,,,,20,w,98,n,2019_Dec_04_1057,ec_RRR,3.0.4,59.92692510779117,
Hutter,Das Zielwesen für diese Aufgabe ist Zorua:,"Also sobald Zorua (sein Name oder sein Bild) auf dem Bildschirm erscheint, drücken Sie so schnell wie möglich die Leertaste. Drücken Sie die Leertaste, immer wenn Sie ein Bild von Zorua oder das Wort ZORUA sehen. 

Drücken Sie die Leertaste, um die Aufgabe zu starten.",target2,stimuli/t2.jpg,98,76,stimuli/target2_9.jpg,target,True,space,,,,,,,,,,,,,,0,0,0,0,,,,,0,1,1,1,0,75,75,75,,,,,,,,,,,,,,,,,,,,,,,,,,,,,,,,,,,,,,,,,,,,,,,,,,,,,CS1_USpos,space,1,0.6049478000004456,,,,,,,,,,,,,,,,,20,w,98,n,2019_Dec_04_1057,ec_RRR,3.0.4,59.92692510779117,
Hutter,Das Zielwesen für diese Aufgabe ist Zorua:,"Also sobald Zorua (sein Name oder sein Bild) auf dem Bildschirm erscheint, drücken Sie so schnell wie möglich die Leertaste. Drücken Sie die Leertaste, immer wenn Sie ein Bild von Zorua oder das Wort ZORUA sehen. 

Drücken Sie die Leertaste, um die Aufgabe zu starten.",target2,stimuli/t2.jpg,98,77,stimuli/filler32.jpg,filler,False,None,,,,,,,,,,,,,,0,0,0,0,,,,,0,1,1,1,0,76,76,76,,,,,,,,,,,,,,,,,,,,,,,,,,,,,,,,,,,,,,,,,,,,,,,,,,,,,CS1_USpos,None,1,,,,,,,,,,,,,,,,,,20,w,98,n,2019_Dec_04_1057,ec_RRR,3.0.4,59.92692510779117,
Hutter,Das Zielwesen für diese Aufgabe ist Zorua:,"Also sobald Zorua (sein Name oder sein Bild) auf dem Bildschirm erscheint, drücken Sie so schnell wie möglich die Leertaste. Drücken Sie die Leertaste, immer wenn Sie ein Bild von Zorua oder das Wort ZORUA sehen. 

Drücken Sie die Leertaste, um die Aufgabe zu starten.",target2,stimuli/t2.jpg,98,78,stimuli/filler50.jpg,filler,False,None,,,,,,,,,,,,,,0,0,0,0,,,,,0,1,1,1,0,77,77,77,,,,,,,,,,,,,,,,,,,,,,,,,,,,,,,,,,,,,,,,,,,,,,,,,,,,,CS1_USpos,None,1,,,,,,,,,,,,,,,,,,20,w,98,n,2019_Dec_04_1057,ec_RRR,3.0.4,59.92692510779117,
Hutter,Das Zielwesen für diese Aufgabe ist Zorua:,"Also sobald Zorua (sein Name oder sein Bild) auf dem Bildschirm erscheint, drücken Sie so schnell wie möglich die Leertaste. Drücken Sie die Leertaste, immer wenn Sie ein Bild von Zorua oder das Wort ZORUA sehen. 

