data_collection_site,instructions_text_top,instructions_text_bottom,block_id,example_image,participant,trial_number,stimulus,trial_type,target_trial,surveillance_correct_response,filler_1_items,filler_2_items,middle_text,left_text,right_text,evaluation_stimulus,left_stimulus,right_stimulus,evaluation_response_indicating_CS1_preferred,awareness_1_question_text,awareness_2a_question_text,awareness_2b_question_text,awareness_2_question_text,record_data_collection_site_variable.thisRepN,record_data_collection_site_variable.thisTrialN,record_data_collection_site_variable.thisN,record_data_collection_site_variable.thisIndex,surveillance_instructions_loop.thisRepN,surveillance_instructions_loop.thisTrialN,surveillance_instructions_loop.thisN,surveillance_instructions_loop.thisIndex,surveillance_blocks_loop.thisRepN,surveillance_blocks_loop.thisTrialN,surveillance_blocks_loop.thisN,surveillance_blocks_loop.thisIndex,surveillance_trials_loop.thisRepN,surveillance_trials_loop.thisTrialN,surveillance_trials_loop.thisN,surveillance_trials_loop.thisIndex,filler_1_instructions_loop.thisRepN,filler_1_instructions_loop.thisTrialN,filler_1_instructions_loop.thisN,filler_1_instructions_loop.thisIndex,filler_1_loop.thisRepN,filler_1_loop.thisTrialN,filler_1_loop.thisN,filler_1_loop.thisIndex,filler_2_instructions_loop.thisRepN,filler_2_instructions_loop.thisTrialN,filler_2_instructions_loop.thisN,filler_2_instructions_loop.thisIndex,filler_2_loop.thisRepN,filler_2_loop.thisTrialN,filler_2_loop.thisN,filler_2_loop.thisIndex,evaluation_instructions_loop.thisRepN,evaluation_instructions_loop.thisTrialN,evaluation_instructions_loop.thisN,evaluation_instructions_loop.thisIndex,evaluation_loop.thisRepN,evaluation_loop.thisTrialN,evaluation_loop.thisN,evaluation_loop.thisIndex,evaluation_trials.thisRepN,evaluation_trials.thisTrialN,evaluation_trials.thisN,evaluation_trials.thisIndex,awareness_instructions_loop.thisRepN,awareness_instructions_loop.thisTrialN,awareness_instructions_loop.thisN,awareness_instructions_loop.thisIndex,awareness_1_trials_loop.thisRepN,awareness_1_trials_loop.thisTrialN,awareness_1_trials_loop.thisN,awareness_1_trials_loop.thisIndex,awareness_2a_trials_loop.thisRepN,awareness_2a_trials_loop.thisTrialN,awareness_2a_trials_loop.thisN,awareness_2a_trials_loop.thisIndex,awareness_2b_trials_loop.thisRepN,awareness_2b_trials_loop.thisTrialN,awareness_2b_trials_loop.thisN,awareness_2b_trials_loop.thisIndex,awareness_2c_trials_loop.thisRepN,awareness_2c_trials_loop.thisTrialN,awareness_2c_trials_loop.thisN,awareness_2c_trials_loop.thisIndex,end_message_loop.thisRepN,end_message_loop.thisTrialN,end_message_loop.thisN,end_message_loop.thisIndex,condition,surveillance_response.keys,surveillance_response.corr,surveillance_response.rt,filler_1_rating.response,filler_1_rating.rt,filler_2_rating.response,filler_2_rating.rt,evaluation_response.keys,evaluation_response.corr,evaluation_response.rt,inputText,awareness_1_response.keys,awareness_1_response.rt,awareness_type_2a_rating.response,awareness_type_2a_rating.rt,awareness_type_2b_rating.response,awareness_type_2b_rating.rt,awareness_type_2c_rating.response,awareness_type_2c_rating.rt,age,gender,participant,UseMonkey,date,expName,psychopyVersion,frameRate,
moran hussey - pilot,"Voor deze taak, is de target figuur Zorua:","Dus wanneer ZORUA (zijn naam of foto) verschijnt op het scherm, druk dan zo snel mogelijk op de spatiebalk. Druk op de spatiebalk wanneer je een foto van Zorua of het woord ZORUA ziet.  

Druk op de spatiebalk om de taak te starten.
",target5,stimuli/t5.jpg,3,1,stimuli/filler27.jpg,filler,False,None,,,,,,,,,,,,,,0,0,0,0,,,,,0,0,0,4,0,0,0,0,,,,,,,,,,,,,,,,,,,,,,,,,,,,,,,,,,,,,,,,,,,,,,,,,,,,,CS1_USneg,None,1,,,,,,,,,,,,,,,,,,46,m,3,n,2019_Apr_05_1027,ec_RRR,3.0.5,74.95823125388698,
moran hussey - pilot,"Voor deze taak, is de target figuur Zorua:","Dus wanneer ZORUA (zijn naam of foto) verschijnt op het scherm, druk dan zo snel mogelijk op de spatiebalk. Druk op de spatiebalk wanneer je een foto van Zorua of het woord ZORUA ziet.  

Druk op de spatiebalk om de taak te starten.
",target5,stimuli/t5.jpg,3,2,stimuli/filler4.jpg,filler,False,None,,,,,,,,,,,,,,0,0,0,0,,,,,0,0,0,4,0,1,1,1,,,,,,,,,,,,,,,,,,,,,,,,,,,,,,,,,,,,,,,,,,,,,,,,,,,,,CS1_USneg,None,1,,,,,,,,,,,,,,,,,,46,m,3,n,2019_Apr_05_1027,ec_RRR,3.0.5,74.95823125388698,
moran hussey - pilot,"Voor deze taak, is de target figuur Zorua:","Dus wanneer ZORUA (zijn naam of foto) verschijnt op het scherm, druk dan zo snel mogelijk op de spatiebalk. Druk op de spatiebalk wanneer je een foto van Zorua of het woord ZORUA ziet.  

Druk op de spatiebalk om de taak te starten.
",target5,stimuli/t5.jpg,3,3,stimuli/filler14.jpg,filler,False,None,,,,,,,,,,,,,,0,0,0,0,,,,,0,0,0,4,0,2,2,2,,,,,,,,,,,,,,,,,,,,,,,,,,,,,,,,,,,,,,,,,,,,,,,,,,,,,CS1_USneg,None,1,,,,,,,,,,,,,,,,,,46,m,3,n,2019_Apr_05_1027,ec_RRR,3.0.5,74.95823125388698,
moran hussey - pilot,"Voor deze taak, is de target figuur Zorua:","Dus wanneer ZORUA (zijn naam of foto) verschijnt op het scherm, druk dan zo snel mogelijk op de spatiebalk. Druk op de spatiebalk wanneer je een foto van Zorua of het woord ZORUA ziet.  

Druk op de spatiebalk om de taak te starten.
",target5,stimuli/t5.jpg,3,4,stimuli/filler37.jpg,filler,False,None,,,,,,,,,,,,,,0,0,0,0,,,,,0,0,0,4,0,3,3,3,,,,,,,,,,,,,,,,,,,,,,,,,,,,,,,,,,,,,,,,,,,,,,,,,,,,,CS1_USneg,None,1,,,,,,,,,,,,,,,,,,46,m,3,n,2019_Apr_05_1027,ec_RRR,3.0.5,74.95823125388698,
moran hussey - pilot,"Voor deze taak, is de target figuur Zorua:","Dus wanneer ZORUA (zijn naam of foto) verschijnt op het scherm, druk dan zo snel mogelijk op de spatiebalk. Druk op de spatiebalk wanneer je een foto van Zorua of het woord ZORUA ziet.  

Druk op de spatiebalk om de taak te starten.
",target5,stimuli/t5.jpg,3,5,stimuli/target5_6.jpg,target,True,space,,,,,,,,,,,,,,0,0,0,0,,,,,0,0,0,4,0,4,4,4,,,,,,,,,,,,,,,,,,,,,,,,,,,,,,,,,,,,,,,,,,,,,,,,,,,,,CS1_USneg,space,1,0.573934483982157,,,,,,,,,,,,,,,,,46,m,3,n,2019_Apr_05_1027,ec_RRR,3.0.5,74.95823125388698,
moran hussey - pilot,"Voor deze taak, is de target figuur Zorua:","Dus wanneer ZORUA (zijn naam of foto) verschijnt op het scherm, druk dan zo snel mogelijk op de spatiebalk. Druk op de spatiebalk wanneer je een foto van Zorua of het woord ZORUA ziet.  

Druk op de spatiebalk om de taak te starten.
",target5,stimuli/t5.jpg,3,6,stimuli/filler44.jpg,filler,False,None,,,,,,,,,,,,,,0,0,0,0,,,,,0,0,0,4,0,5,5,5,,,,,,,,,,,,,,,,,,,,,,,,,,,,,,,,,,,,,,,,,,,,,,,,,,,,,CS1_USneg,None,1,,,,,,,,,,,,,,,,,,46,m,3,n,2019_Apr_05_1027,ec_RRR,3.0.5,74.95823125388698,
moran hussey - pilot,"Voor deze taak, is de target figuur Zorua:","Dus wanneer ZORUA (zijn naam of foto) verschijnt op het scherm, druk dan zo snel mogelijk op de spatiebalk. Druk op de spatiebalk wanneer je een foto van Zorua of het woord ZORUA ziet.  

Druk op de spatiebalk om de taak te starten.
",target5,stimuli/t5.jpg,3,7,stimuli/target5_8.jpg,target,True,space,,,,,,,,,,,,,,0,0,0,0,,,,,0,0,0,4,0,6,6,6,,,,,,,,,,,,,,,,,,,,,,,,,,,,,,,,,,,,,,,,,,,,,,,,,,,,,CS1_USneg,space,1,0.680179467482958,,,,,,,,,,,,,,,,,46,m,3,n,2019_Apr_05_1027,ec_RRR,3.0.5,74.95823125388698,
moran hussey - pilot,"Voor deze taak, is de target figuur Zorua:","Dus wanneer ZORUA (zijn naam of foto) verschijnt op het scherm, druk dan zo snel mogelijk op de spatiebalk. Druk op de spatiebalk wanneer je een foto van Zorua of het woord ZORUA ziet.  

Druk op de spatiebalk om de taak te starten.
",target5,stimuli/t5.jpg,3,8,stimuli/filler25.jpg,filler,False,None,,,,,,,,,,,,,,0,0,0,0,,,,,0,0,0,4,0,7,7,7,,,,,,,,,,,,,,,,,,,,,,,,,,,,,,,,,,,,,,,,,,,,,,,,,,,,,CS1_USneg,None,1,,,,,,,,,,,,,,,,,,46,m,3,n,2019_Apr_05_1027,ec_RRR,3.0.5,74.95823125388698,
moran hussey - pilot,"Voor deze taak, is de target figuur Zorua:","Dus wanneer ZORUA (zijn naam of foto) verschijnt op het scherm, druk dan zo snel mogelijk op de spatiebalk. Druk op de spatiebalk wanneer je een foto van Zorua of het woord ZORUA ziet.  

Druk op de spatiebalk om de taak te starten.
",target5,stimuli/t5.jpg,3,9,stimuli/filler24.jpg,filler,False,None,,,,,,,,,,,,,,0,0,0,0,,,,,0,0,0,4,0,8,8,8,,,,,,,,,,,,,,,,,,,,,,,,,,,,,,,,,,,,,,,,,,,,,,,,,,,,,CS1_USneg,None,1,,,,,,,,,,,,,,,,,,46,m,3,n,2019_Apr_05_1027,ec_RRR,3.0.5,74.95823125388698,
moran hussey - pilot,"Voor deze taak, is de target figuur Zorua:","Dus wanneer ZORUA (zijn naam of foto) verschijnt op het scherm, druk dan zo snel mogelijk op de spatiebalk. Druk op de spatiebalk wanneer je een foto van Zorua of het woord ZORUA ziet.  

Druk op de spatiebalk om de taak te starten.
",target5,stimuli/t5.jpg,3,10,stimuli/blank.jpg,blank,False,None,,,,,,,,,,,,,,0,0,0,0,,,,,0,0,0,4,0,9,9,9,,,,,,,,,,,,,,,,,,,,,,,,,,,,,,,,,,,,,,,,,,,,,,,,,,,,,CS1_USneg,None,1,,,,,,,,,,,,,,,,,,46,m,3,n,2019_Apr_05_1027,ec_RRR,3.0.5,74.95823125388698,
moran hussey - pilot,"Voor deze taak, is de target figuur Zorua:","Dus wanneer ZORUA (zijn naam of foto) verschijnt op het scherm, druk dan zo snel mogelijk op de spatiebalk. Druk op de spatiebalk wanneer je een foto van Zorua of het woord ZORUA ziet.  

Druk op de spatiebalk om de taak te starten.
",target5,stimuli/t5.jpg,3,11,stimuli/cs1_neg4.jpg,CSUS,False,None,,,,,,,,,,,,,,0,0,0,0,,,,,0,0,0,4,0,10,10,10,,,,,,,,,,,,,,,,,,,,,,,,,,,,,,,,,,,,,,,,,,,,,,,,,,,,,CS1_USneg,None,1,,,,,,,,,,,,,,,,,,46,m,3,n,2019_Apr_05_1027,ec_RRR,3.0.5,74.95823125388698,
moran hussey - pilot,"Voor deze taak, is de target figuur Zorua:","Dus wanneer ZORUA (zijn naam of foto) verschijnt op het scherm, druk dan zo snel mogelijk op de spatiebalk. Druk op de spatiebalk wanneer je een foto van Zorua of het woord ZORUA ziet.  

Druk op de spatiebalk om de taak te starten.
",target5,stimuli/t5.jpg,3,12,stimuli/blank.jpg,blank,False,None,,,,,,,,,,,,,,0,0,0,0,,,,,0,0,0,4,0,11,11,11,,,,,,,,,,,,,,,,,,,,,,,,,,,,,,,,,,,,,,,,,,,,,,,,,,,,,CS1_USneg,None,1,,,,,,,,,,,,,,,,,,46,m,3,n,2019_Apr_05_1027,ec_RRR,3.0.5,74.95823125388698,
moran hussey - pilot,"Voor deze taak, is de target figuur Zorua:","Dus wanneer ZORUA (zijn naam of foto) verschijnt op het scherm, druk dan zo snel mogelijk op de spatiebalk. Druk op de spatiebalk wanneer je een foto van Zorua of het woord ZORUA ziet.  

Druk op de spatiebalk om de taak te starten.
",target5,stimuli/t5.jpg,3,13,stimuli/filler36.jpg,filler,False,None,,,,,,,,,,,,,,0,0,0,0,,,,,0,0,0,4,0,12,12,12,,,,,,,,,,,,,,,,,,,,,,,,,,,,,,,,,,,,,,,,,,,,,,,,,,,,,CS1_USneg,None,1,,,,,,,,,,,,,,,,,,46,m,3,n,2019_Apr_05_1027,ec_RRR,3.0.5,74.95823125388698,
moran hussey - pilot,"Voor deze taak, is de target figuur Zorua:","Dus wanneer ZORUA (zijn naam of foto) verschijnt op het scherm, druk dan zo snel mogelijk op de spatiebalk. Druk op de spatiebalk wanneer je een foto van Zorua of het woord ZORUA ziet.  

Druk op de spatiebalk om de taak te starten.
",target5,stimuli/t5.jpg,3,14,stimuli/filler28.jpg,filler,False,None,,,,,,,,,,,,,,0,0,0,0,,,,,0,0,0,4,0,13,13,13,,,,,,,,,,,,,,,,,,,,,,,,,,,,,,,,,,,,,,,,,,,,,,,,,,,,,CS1_USneg,None,1,,,,,,,,,,,,,,,,,,46,m,3,n,2019_Apr_05_1027,ec_RRR,3.0.5,74.95823125388698,
moran hussey - pilot,"Voor deze taak, is de target figuur Zorua:","Dus wanneer ZORUA (zijn naam of foto) verschijnt op het scherm, druk dan zo snel mogelijk op de spatiebalk. Druk op de spatiebalk wanneer je een foto van Zorua of het woord ZORUA ziet.  

Druk op de spatiebalk om de taak te starten.
",target5,stimuli/t5.jpg,3,15,stimuli/filler45.jpg,filler,False,None,,,,,,,,,,,,,,0,0,0,0,,,,,0,0,0,4,0,14,14,14,,,,,,,,,,,,,,,,,,,,,,,,,,,,,,,,,,,,,,,,,,,,,,,,,,,,,CS1_USneg,None,1,,,,,,,,,,,,,,,,,,46,m,3,n,2019_Apr_05_1027,ec_RRR,3.0.5,74.95823125388698,
moran hussey - pilot,"Voor deze taak, is de target figuur Zorua:","Dus wanneer ZORUA (zijn naam of foto) verschijnt op het scherm, druk dan zo snel mogelijk op de spatiebalk. Druk op de spatiebalk wanneer je een foto van Zorua of het woord ZORUA ziet.  

Druk op de spatiebalk om de taak te starten.
",target5,stimuli/t5.jpg,3,16,stimuli/filler10.jpg,filler,False,None,,,,,,,,,,,,,,0,0,0,0,,,,,0,0,0,4,0,15,15,15,,,,,,,,,,,,,,,,,,,,,,,,,,,,,,,,,,,,,,,,,,,,,,,,,,,,,CS1_USneg,None,1,,,,,,,,,,,,,,,,,,46,m,3,n,2019_Apr_05_1027,ec_RRR,3.0.5,74.95823125388698,
moran hussey - pilot,"Voor deze taak, is de target figuur Zorua:","Dus wanneer ZORUA (zijn naam of foto) verschijnt op het scherm, druk dan zo snel mogelijk op de spatiebalk. Druk op de spatiebalk wanneer je een foto van Zorua of het woord ZORUA ziet.  

Druk op de spatiebalk om de taak te starten.
",target5,stimuli/t5.jpg,3,17,stimuli/filler40.jpg,filler,False,None,,,,,,,,,,,,,,0,0,0,0,,,,,0,0,0,4,0,16,16,16,,,,,,,,,,,,,,,,,,,,,,,,,,,,,,,,,,,,,,,,,,,,,,,,,,,,,CS1_USneg,None,1,,,,,,,,,,,,,,,,,,46,m,3,n,2019_Apr_05_1027,ec_RRR,3.0.5,74.95823125388698,
moran hussey - pilot,"Voor deze taak, is de target figuur Zorua:","Dus wanneer ZORUA (zijn naam of foto) verschijnt op het scherm, druk dan zo snel mogelijk op de spatiebalk. Druk op de spatiebalk wanneer je een foto van Zorua of het woord ZORUA ziet.  

Druk op de spatiebalk om de taak te starten.
",target5,stimuli/t5.jpg,3,18,stimuli/filler20.jpg,filler,False,None,,,,,,,,,,,,,,0,0,0,0,,,,,0,0,0,4,0,17,17,17,,,,,,,,,,,,,,,,,,,,,,,,,,,,,,,,,,,,,,,,,,,,,,,,,,,,,CS1_USneg,None,1,,,,,,,,,,,,,,,,,,46,m,3,n,2019_Apr_05_1027,ec_RRR,3.0.5,74.95823125388698,
moran hussey - pilot,"Voor deze taak, is de target figuur Zorua:","Dus wanneer ZORUA (zijn naam of foto) verschijnt op het scherm, druk dan zo snel mogelijk op de spatiebalk. Druk op de spatiebalk wanneer je een foto van Zorua of het woord ZORUA ziet.  

Druk op de spatiebalk om de taak te starten.
",target5,stimuli/t5.jpg,3,19,stimuli/filler29.jpg,filler,False,None,,,,,,,,,,,,,,0,0,0,0,,,,,0,0,0,4,0,18,18,18,,,,,,,,,,,,,,,,,,,,,,,,,,,,,,,,,,,,,,,,,,,,,,,,,,,,,CS1_USneg,None,1,,,,,,,,,,,,,,,,,,46,m,3,n,2019_Apr_05_1027,ec_RRR,3.0.5,74.95823125388698,
moran hussey - pilot,"Voor deze taak, is de target figuur Zorua:","Dus wanneer ZORUA (zijn naam of foto) verschijnt op het scherm, druk dan zo snel mogelijk op de spatiebalk. Druk op de spatiebalk wanneer je een foto van Zorua of het woord ZORUA ziet.  

Druk op de spatiebalk om de taak te starten.
",target5,stimuli/t5.jpg,3,20,stimuli/blank.jpg,blank,False,None,,,,,,,,,,,,,,0,0,0,0,,,,,0,0,0,4,0,19,19,19,,,,,,,,,,,,,,,,,,,,,,,,,,,,,,,,,,,,,,,,,,,,,,,,,,,,,CS1_USneg,None,1,,,,,,,,,,,,,,,,,,46,m,3,n,2019_Apr_05_1027,ec_RRR,3.0.5,74.95823125388698,
moran hussey - pilot,"Voor deze taak, is de target figuur Zorua:","Dus wanneer ZORUA (zijn naam of foto) verschijnt op het scherm, druk dan zo snel mogelijk op de spatiebalk. Druk op de spatiebalk wanneer je een foto van Zorua of het woord ZORUA ziet.  

Druk op de spatiebalk om de taak te starten.
",target5,stimuli/t5.jpg,3,21,stimuli/cs2_pos17.jpg,CSUS,False,None,,,,,,,,,,,,,,0,0,0,0,,,,,0,0,0,4,0,20,20,20,,,,,,,,,,,,,,,,,,,,,,,,,,,,,,,,,,,,,,,,,,,,,,,,,,,,,CS1_USneg,None,1,,,,,,,,,,,,,,,,,,46,m,3,n,2019_Apr_05_1027,ec_RRR,3.0.5,74.95823125388698,
moran hussey - pilot,"Voor deze taak, is de target figuur Zorua:","Dus wanneer ZORUA (zijn naam of foto) verschijnt op het scherm, druk dan zo snel mogelijk op de spatiebalk. Druk op de spatiebalk wanneer je een foto van Zorua of het woord ZORUA ziet.  

Druk op de spatiebalk om de taak te starten.
",target5,stimuli/t5.jpg,3,22,stimuli/blank.jpg,blank,False,None,,,,,,,,,,,,,,0,0,0,0,,,,,0,0,0,4,0,21,21,21,,,,,,,,,,,,,,,,,,,,,,,,,,,,,,,,,,,,,,,,,,,,,,,,,,,,,CS1_USneg,None,1,,,,,,,,,,,,,,,,,,46,m,3,n,2019_Apr_05_1027,ec_RRR,3.0.5,74.95823125388698,
moran hussey - pilot,"Voor deze taak, is de target figuur Zorua:","Dus wanneer ZORUA (zijn naam of foto) verschijnt op het scherm, druk dan zo snel mogelijk op de spatiebalk. Druk op de spatiebalk wanneer je een foto van Zorua of het woord ZORUA ziet.  

Druk op de spatiebalk om de taak te starten.
",target5,stimuli/t5.jpg,3,23,stimuli/filler32.jpg,filler,False,None,,,,,,,,,,,,,,0,0,0,0,,,,,0,0,0,4,0,22,22,22,,,,,,,,,,,,,,,,,,,,,,,,,,,,,,,,,,,,,,,,,,,,,,,,,,,,,CS1_USneg,None,1,,,,,,,,,,,,,,,,,,46,m,3,n,2019_Apr_05_1027,ec_RRR,3.0.5,74.95823125388698,
moran hussey - pilot,"Voor deze taak, is de target figuur Zorua:","Dus wanneer ZORUA (zijn naam of foto) verschijnt op het scherm, druk dan zo snel mogelijk op de spatiebalk. Druk op de spatiebalk wanneer je een foto van Zorua of het woord ZORUA ziet.  

Druk op de spatiebalk om de taak te starten.
",target5,stimuli/t5.jpg,3,24,stimuli/filler41.jpg,filler,False,None,,,,,,,,,,,,,,0,0,0,0,,,,,0,0,0,4,0,23,23,23,,,,,,,,,,,,,,,,,,,,,,,,,,,,,,,,,,,,,,,,,,,,,,,,,,,,,CS1_USneg,None,1,,,,,,,,,,,,,,,,,,46,m,3,n,2019_Apr_05_1027,ec_RRR,3.0.5,74.95823125388698,
moran hussey - pilot,"Voor deze taak, is de target figuur Zorua:","Dus wanneer ZORUA (zijn naam of foto) verschijnt op het scherm, druk dan zo snel mogelijk op de spatiebalk. Druk op de spatiebalk wanneer je een foto van Zorua of het woord ZORUA ziet.  

Druk op de spatiebalk om de taak te starten.
",target5,stimuli/t5.jpg,3,25,stimuli/filler26.jpg,filler,False,None,,,,,,,,,,,,,,0,0,0,0,,,,,0,0,0,4,0,24,24,24,,,,,,,,,,,,,,,,,,,,,,,,,,,,,,,,,,,,,,,,,,,,,,,,,,,,,CS1_USneg,None,1,,,,,,,,,,,,,,,,,,46,m,3,n,2019_Apr_05_1027,ec_RRR,3.0.5,74.95823125388698,
moran hussey - pilot,"Voor deze taak, is de target figuur Zorua:","Dus wanneer ZORUA (zijn naam of foto) verschijnt op het scherm, druk dan zo snel mogelijk op de spatiebalk. Druk op de spatiebalk wanneer je een foto van Zorua of het woord ZORUA ziet.  

Druk op de spatiebalk om de taak te starten.
",target5,stimuli/t5.jpg,3,26,stimuli/target5_5.jpg,target,True,space,,,,,,,,,,,,,,0,0,0,0,,,,,0,0,0,4,0,25,25,25,,,,,,,,,,,,,,,,,,,,,,,,,,,,,,,,,,,,,,,,,,,,,,,,,,,,,CS1_USneg,space,1,0.44032398075796664,,,,,,,,,,,,,,,,,46,m,3,n,2019_Apr_05_1027,ec_RRR,3.0.5,74.95823125388698,
moran hussey - pilot,"Voor deze taak, is de target figuur Zorua:","Dus wanneer ZORUA (zijn naam of foto) verschijnt op het scherm, druk dan zo snel mogelijk op de spatiebalk. Druk op de spatiebalk wanneer je een foto van Zorua of het woord ZORUA ziet.  

Druk op de spatiebalk om de taak te starten.
",target5,stimuli/t5.jpg,3,27,stimuli/filler6.jpg,filler,False,None,,,,,,,,,,,,,,0,0,0,0,,,,,0,0,0,4,0,26,26,26,,,,,,,,,,,,,,,,,,,,,,,,,,,,,,,,,,,,,,,,,,,,,,,,,,,,,CS1_USneg,None,1,,,,,,,,,,,,,,,,,,46,m,3,n,2019_Apr_05_1027,ec_RRR,3.0.5,74.95823125388698,
moran hussey - pilot,"Voor deze taak, is de target figuur Zorua:","Dus wanneer ZORUA (zijn naam of foto) verschijnt op het scherm, druk dan zo snel mogelijk op de spatiebalk. Druk op de spatiebalk wanneer je een foto van Zorua of het woord ZORUA ziet.  

Druk op de spatiebalk om de taak te starten.
",target5,stimuli/t5.jpg,3,28,stimuli/filler48.jpg,filler,False,None,,,,,,,,,,,,,,0,0,0,0,,,,,0,0,0,4,0,27,27,27,,,,,,,,,,,,,,,,,,,,,,,,,,,,,,,,,,,,,,,,,,,,,,,,,,,,,CS1_USneg,None,1,,,,,,,,,,,,,,,,,,46,m,3,n,2019_Apr_05_1027,ec_RRR,3.0.5,74.95823125388698,
moran hussey - pilot,"Voor deze taak, is de target figuur Zorua:","Dus wanneer ZORUA (zijn naam of foto) verschijnt op het scherm, druk dan zo snel mogelijk op de spatiebalk. Druk op de spatiebalk wanneer je een foto van Zorua of het woord ZORUA ziet.  

Druk op de spatiebalk om de taak te starten.
",target5,stimuli/t5.jpg,3,29,stimuli/filler11.jpg,filler,False,None,,,,,,,,,,,,,,0,0,0,0,,,,,0,0,0,4,0,28,28,28,,,,,,,,,,,,,,,,,,,,,,,,,,,,,,,,,,,,,,,,,,,,,,,,,,,,,CS1_USneg,None,1,,,,,,,,,,,,,,,,,,46,m,3,n,2019_Apr_05_1027,ec_RRR,3.0.5,74.95823125388698,
moran hussey - pilot,"Voor deze taak, is de target figuur Zorua:","Dus wanneer ZORUA (zijn naam of foto) verschijnt op het scherm, druk dan zo snel mogelijk op de spatiebalk. Druk op de spatiebalk wanneer je een foto van Zorua of het woord ZORUA ziet.  

Druk op de spatiebalk om de taak te starten.
",target5,stimuli/t5.jpg,3,30,stimuli/blank.jpg,blank,False,None,,,,,,,,,,,,,,0,0,0,0,,,,,0,0,0,4,0,29,29,29,,,,,,,,,,,,,,,,,,,,,,,,,,,,,,,,,,,,,,,,,,,,,,,,,,,,,CS1_USneg,None,1,,,,,,,,,,,,,,,,,,46,m,3,n,2019_Apr_05_1027,ec_RRR,3.0.5,74.95823125388698,
moran hussey - pilot,"Voor deze taak, is de target figuur Zorua:","Dus wanneer ZORUA (zijn naam of foto) verschijnt op het scherm, druk dan zo snel mogelijk op de spatiebalk. Druk op de spatiebalk wanneer je een foto van Zorua of het woord ZORUA ziet.  

Druk op de spatiebalk om de taak te starten.
",target5,stimuli/t5.jpg,3,31,stimuli/cs1_neg20.jpg,CSUS,False,None,,,,,,,,,,,,,,0,0,0,0,,,,,0,0,0,4,0,30,30,30,,,,,,,,,,,,,,,,,,,,,,,,,,,,,,,,,,,,,,,,,,,,,,,,,,,,,CS1_USneg,None,1,,,,,,,,,,,,,,,,,,46,m,3,n,2019_Apr_05_1027,ec_RRR,3.0.5,74.95823125388698,
moran hussey - pilot,"Voor deze taak, is de target figuur Zorua:","Dus wanneer ZORUA (zijn naam of foto) verschijnt op het scherm, druk dan zo snel mogelijk op de spatiebalk. Druk op de spatiebalk wanneer je een foto van Zorua of het woord ZORUA ziet.  

Druk op de spatiebalk om de taak te starten.
",target5,stimuli/t5.jpg,3,32,stimuli/blank.jpg,blank,False,None,,,,,,,,,,,,,,0,0,0,0,,,,,0,0,0,4,0,31,31,31,,,,,,,,,,,,,,,,,,,,,,,,,,,,,,,,,,,,,,,,,,,,,,,,,,,,,CS1_USneg,None,1,,,,,,,,,,,,,,,,,,46,m,3,n,2019_Apr_05_1027,ec_RRR,3.0.5,74.95823125388698,
moran hussey - pilot,"Voor deze taak, is de target figuur Zorua:","Dus wanneer ZORUA (zijn naam of foto) verschijnt op het scherm, druk dan zo snel mogelijk op de spatiebalk. Druk op de spatiebalk wanneer je een foto van Zorua of het woord ZORUA ziet.  

Druk op de spatiebalk om de taak te starten.
",target5,stimuli/t5.jpg,3,33,stimuli/filler52.jpg,filler,False,None,,,,,,,,,,,,,,0,0,0,0,,,,,0,0,0,4,0,32,32,32,,,,,,,,,,,,,,,,,,,,,,,,,,,,,,,,,,,,,,,,,,,,,,,,,,,,,CS1_USneg,None,1,,,,,,,,,,,,,,,,,,46,m,3,n,2019_Apr_05_1027,ec_RRR,3.0.5,74.95823125388698,
moran hussey - pilot,"Voor deze taak, is de target figuur Zorua:","Dus wanneer ZORUA (zijn naam of foto) verschijnt op het scherm, druk dan zo snel mogelijk op de spatiebalk. Druk op de spatiebalk wanneer je een foto van Zorua of het woord ZORUA ziet.  

Druk op de spatiebalk om de taak te starten.
",target5,stimuli/t5.jpg,3,34,stimuli/filler7.jpg,filler,False,None,,,,,,,,,,,,,,0,0,0,0,,,,,0,0,0,4,0,33,33,33,,,,,,,,,,,,,,,,,,,,,,,,,,,,,,,,,,,,,,,,,,,,,,,,,,,,,CS1_USneg,None,1,,,,,,,,,,,,,,,,,,46,m,3,n,2019_Apr_05_1027,ec_RRR,3.0.5,74.95823125388698,
moran hussey - pilot,"Voor deze taak, is de target figuur Zorua:","Dus wanneer ZORUA (zijn naam of foto) verschijnt op het scherm, druk dan zo snel mogelijk op de spatiebalk. Druk op de spatiebalk wanneer je een foto van Zorua of het woord ZORUA ziet.  

Druk op de spatiebalk om de taak te starten.
",target5,stimuli/t5.jpg,3,35,stimuli/filler22.jpg,filler,False,None,,,,,,,,,,,,,,0,0,0,0,,,,,0,0,0,4,0,34,34,34,,,,,,,,,,,,,,,,,,,,,,,,,,,,,,,,,,,,,,,,,,,,,,,,,,,,,CS1_USneg,None,1,,,,,,,,,,,,,,,,,,46,m,3,n,2019_Apr_05_1027,ec_RRR,3.0.5,74.95823125388698,
moran hussey - pilot,"Voor deze taak, is de target figuur Zorua:","Dus wanneer ZORUA (zijn naam of foto) verschijnt op het scherm, druk dan zo snel mogelijk op de spatiebalk. Druk op de spatiebalk wanneer je een foto van Zorua of het woord ZORUA ziet.  

Druk op de spatiebalk om de taak te starten.
",target5,stimuli/t5.jpg,3,36,stimuli/filler21.jpg,filler,False,None,,,,,,,,,,,,,,0,0,0,0,,,,,0,0,0,4,0,35,35,35,,,,,,,,,,,,,,,,,,,,,,,,,,,,,,,,,,,,,,,,,,,,,,,,,,,,,CS1_USneg,None,1,,,,,,,,,,,,,,,,,,46,m,3,n,2019_Apr_05_1027,ec_RRR,3.0.5,74.95823125388698,
moran hussey - pilot,"Voor deze taak, is de target figuur Zorua:","Dus wanneer ZORUA (zijn naam of foto) verschijnt op het scherm, druk dan zo snel mogelijk op de spatiebalk. Druk op de spatiebalk wanneer je een foto van Zorua of het woord ZORUA ziet.  

Druk op de spatiebalk om de taak te starten.
",target5,stimuli/t5.jpg,3,37,stimuli/filler38.jpg,filler,False,None,,,,,,,,,,,,,,0,0,0,0,,,,,0,0,0,4,0,36,36,36,,,,,,,,,,,,,,,,,,,,,,,,,,,,,,,,,,,,,,,,,,,,,,,,,,,,,CS1_USneg,None,1,,,,,,,,,,,,,,,,,,46,m,3,n,2019_Apr_05_1027,ec_RRR,3.0.5,74.95823125388698,
moran hussey - pilot,"Voor deze taak, is de target figuur Zorua:","Dus wanneer ZORUA (zijn naam of foto) verschijnt op het scherm, druk dan zo snel mogelijk op de spatiebalk. Druk op de spatiebalk wanneer je een foto van Zorua of het woord ZORUA ziet.  

Druk op de spatiebalk om de taak te starten.
",target5,stimuli/t5.jpg,3,38,stimuli/filler50.jpg,filler,False,None,,,,,,,,,,,,,,0,0,0,0,,,,,0,0,0,4,0,37,37,37,,,,,,,,,,,,,,,,,,,,,,,,,,,,,,,,,,,,,,,,,,,,,,,,,,,,,CS1_USneg,None,1,,,,,,,,,,,,,,,,,,46,m,3,n,2019_Apr_05_1027,ec_RRR,3.0.5,74.95823125388698,
moran hussey - pilot,"Voor deze taak, is de target figuur Zorua:","Dus wanneer ZORUA (zijn naam of foto) verschijnt op het scherm, druk dan zo snel mogelijk op de spatiebalk. Druk op de spatiebalk wanneer je een foto van Zorua of het woord ZORUA ziet.  

Druk op de spatiebalk om de taak te starten.
",target5,stimuli/t5.jpg,3,39,stimuli/target5_10.jpg,target,True,space,,,,,,,,,,,,,,0,0,0,0,,,,,0,0,0,4,0,38,38,38,,,,,,,,,,,,,,,,,,,,,,,,,,,,,,,,,,,,,,,,,,,,,,,,,,,,,CS1_USneg,space,1,0.42790176637936383,,,,,,,,,,,,,,,,,46,m,3,n,2019_Apr_05_1027,ec_RRR,3.0.5,74.95823125388698,
moran hussey - pilot,"Voor deze taak, is de target figuur Zorua:","Dus wanneer ZORUA (zijn naam of foto) verschijnt op het scherm, druk dan zo snel mogelijk op de spatiebalk. Druk op de spatiebalk wanneer je een foto van Zorua of het woord ZORUA ziet.  

Druk op de spatiebalk om de taak te starten.
",target5,stimuli/t5.jpg,3,40,stimuli/blank.jpg,blank,False,None,,,,,,,,,,,,,,0,0,0,0,,,,,0,0,0,4,0,39,39,39,,,,,,,,,,,,,,,,,,,,,,,,,,,,,,,,,,,,,,,,,,,,,,,,,,,,,CS1_USneg,None,1,,,,,,,,,,,,,,,,,,46,m,3,n,2019_Apr_05_1027,ec_RRR,3.0.5,74.95823125388698,
moran hussey - pilot,"Voor deze taak, is de target figuur Zorua:","Dus wanneer ZORUA (zijn naam of foto) verschijnt op het scherm, druk dan zo snel mogelijk op de spatiebalk. Druk op de spatiebalk wanneer je een foto van Zorua of het woord ZORUA ziet.  

Druk op de spatiebalk om de taak te starten.
",target5,stimuli/t5.jpg,3,41,stimuli/cs2_pos7.jpg,CSUS,False,None,,,,,,,,,,,,,,0,0,0,0,,,,,0,0,0,4,0,40,40,40,,,,,,,,,,,,,,,,,,,,,,,,,,,,,,,,,,,,,,,,,,,,,,,,,,,,,CS1_USneg,None,1,,,,,,,,,,,,,,,,,,46,m,3,n,2019_Apr_05_1027,ec_RRR,3.0.5,74.95823125388698,
moran hussey - pilot,"Voor deze taak, is de target figuur Zorua:","Dus wanneer ZORUA (zijn naam of foto) verschijnt op het scherm, druk dan zo snel mogelijk op de spatiebalk. Druk op de spatiebalk wanneer je een foto van Zorua of het woord ZORUA ziet.  

Druk op de spatiebalk om de taak te starten.
",target5,stimuli/t5.jpg,3,42,stimuli/blank.jpg,blank,False,None,,,,,,,,,,,,,,0,0,0,0,,,,,0,0,0,4,0,41,41,41,,,,,,,,,,,,,,,,,,,,,,,,,,,,,,,,,,,,,,,,,,,,,,,,,,,,,CS1_USneg,None,1,,,,,,,,,,,,,,,,,,46,m,3,n,2019_Apr_05_1027,ec_RRR,3.0.5,74.95823125388698,
moran hussey - pilot,"Voor deze taak, is de target figuur Zorua:","Dus wanneer ZORUA (zijn naam of foto) verschijnt op het scherm, druk dan zo snel mogelijk op de spatiebalk. Druk op de spatiebalk wanneer je een foto van Zorua of het woord ZORUA ziet.  

Druk op de spatiebalk om de taak te starten.
",target5,stimuli/t5.jpg,3,43,stimuli/target5_2.jpg,target,True,space,,,,,,,,,,,,,,0,0,0,0,,,,,0,0,0,4,0,42,42,42,,,,,,,,,,,,,,,,,,,,,,,,,,,,,,,,,,,,,,,,,,,,,,,,,,,,,CS1_USneg,space,1,0.4272311693057418,,,,,,,,,,,,,,,,,46,m,3,n,2019_Apr_05_1027,ec_RRR,3.0.5,74.95823125388698,
moran hussey - pilot,"Voor deze taak, is de target figuur Zorua:","Dus wanneer ZORUA (zijn naam of foto) verschijnt op het scherm, druk dan zo snel mogelijk op de spatiebalk. Druk op de spatiebalk wanneer je een foto van Zorua of het woord ZORUA ziet.  

Druk op de spatiebalk om de taak te starten.
",target5,stimuli/t5.jpg,3,44,stimuli/filler15.jpg,filler,False,None,,,,,,,,,,,,,,0,0,0,0,,,,,0,0,0,4,0,43,43,43,,,,,,,,,,,,,,,,,,,,,,,,,,,,,,,,,,,,,,,,,,,,,,,,,,,,,CS1_USneg,None,1,,,,,,,,,,,,,,,,,,46,m,3,n,2019_Apr_05_1027,ec_RRR,3.0.5,74.95823125388698,
moran hussey - pilot,"Voor deze taak, is de target figuur Zorua:","Dus wanneer ZORUA (zijn naam of foto) verschijnt op het scherm, druk dan zo snel mogelijk op de spatiebalk. Druk op de spatiebalk wanneer je een foto van Zorua of het woord ZORUA ziet.  

Druk op de spatiebalk om de taak te starten.
",target5,stimuli/t5.jpg,3,45,stimuli/filler43.jpg,filler,False,None,,,,,,,,,,,,,,0,0,0,0,,,,,0,0,0,4,0,44,44,44,,,,,,,,,,,,,,,,,,,,,,,,,,,,,,,,,,,,,,,,,,,,,,,,,,,,,CS1_USneg,None,1,,,,,,,,,,,,,,,,,,46,m,3,n,2019_Apr_05_1027,ec_RRR,3.0.5,74.95823125388698,
moran hussey - pilot,"Voor deze taak, is de target figuur Zorua:","Dus wanneer ZORUA (zijn naam of foto) verschijnt op het scherm, druk dan zo snel mogelijk op de spatiebalk. Druk op de spatiebalk wanneer je een foto van Zorua of het woord ZORUA ziet.  

Druk op de spatiebalk om de taak te starten.
",target5,stimuli/t5.jpg,3,46,stimuli/filler13.jpg,filler,False,None,,,,,,,,,,,,,,0,0,0,0,,,,,0,0,0,4,0,45,45,45,,,,,,,,,,,,,,,,,,,,,,,,,,,,,,,,,,,,,,,,,,,,,,,,,,,,,CS1_USneg,None,1,,,,,,,,,,,,,,,,,,46,m,3,n,2019_Apr_05_1027,ec_RRR,3.0.5,74.95823125388698,
moran hussey - pilot,"Voor deze taak, is de target figuur Zorua:","Dus wanneer ZORUA (zijn naam of foto) verschijnt op het scherm, druk dan zo snel mogelijk op de spatiebalk. Druk op de spatiebalk wanneer je een foto van Zorua of het woord ZORUA ziet.  

Druk op de spatiebalk om de taak te starten.
",target5,stimuli/t5.jpg,3,47,stimuli/filler18.jpg,filler,False,None,,,,,,,,,,,,,,0,0,0,0,,,,,0,0,0,4,0,46,46,46,,,,,,,,,,,,,,,,,,,,,,,,,,,,,,,,,,,,,,,,,,,,,,,,,,,,,CS1_USneg,None,1,,,,,,,,,,,,,,,,,,46,m,3,n,2019_Apr_05_1027,ec_RRR,3.0.5,74.95823125388698,
moran hussey - pilot,"Voor deze taak, is de target figuur Zorua:","Dus wanneer ZORUA (zijn naam of foto) verschijnt op het scherm, druk dan zo snel mogelijk op de spatiebalk. Druk op de spatiebalk wanneer je een foto van Zorua of het woord ZORUA ziet.  

Druk op de spatiebalk om de taak te starten.
",target5,stimuli/t5.jpg,3,48,stimuli/filler9.jpg,filler,False,None,,,,,,,,,,,,,,0,0,0,0,,,,,0,0,0,4,0,47,47,47,,,,,,,,,,,,,,,,,,,,,,,,,,,,,,,,,,,,,,,,,,,,,,,,,,,,,CS1_USneg,None,1,,,,,,,,,,,,,,,,,,46,m,3,n,2019_Apr_05_1027,ec_RRR,3.0.5,74.95823125388698,
moran hussey - pilot,"Voor deze taak, is de target figuur Zorua:","Dus wanneer ZORUA (zijn naam of foto) verschijnt op het scherm, druk dan zo snel mogelijk op de spatiebalk. Druk op de spatiebalk wanneer je een foto van Zorua of het woord ZORUA ziet.  

Druk op de spatiebalk om de taak te starten.
",target5,stimuli/t5.jpg,3,49,stimuli/filler8.jpg,filler,False,None,,,,,,,,,,,,,,0,0,0,0,,,,,0,0,0,4,0,48,48,48,,,,,,,,,,,,,,,,,,,,,,,,,,,,,,,,,,,,,,,,,,,,,,,,,,,,,CS1_USneg,None,1,,,,,,,,,,,,,,,,,,46,m,3,n,2019_Apr_05_1027,ec_RRR,3.0.5,74.95823125388698,
moran hussey - pilot,"Voor deze taak, is de target figuur Zorua:","Dus wanneer ZORUA (zijn naam of foto) verschijnt op het scherm, druk dan zo snel mogelijk op de spatiebalk. Druk op de spatiebalk wanneer je een foto van Zorua of het woord ZORUA ziet.  

Druk op de spatiebalk om de taak te starten.
",target5,stimuli/t5.jpg,3,50,stimuli/blank.jpg,blank,False,None,,,,,,,,,,,,,,0,0,0,0,,,,,0,0,0,4,0,49,49,49,,,,,,,,,,,,,,,,,,,,,,,,,,,,,,,,,,,,,,,,,,,,,,,,,,,,,CS1_USneg,None,1,,,,,,,,,,,,,,,,,,46,m,3,n,2019_Apr_05_1027,ec_RRR,3.0.5,74.95823125388698,
moran hussey - pilot,"Voor deze taak, is de target figuur Zorua:","Dus wanneer ZORUA (zijn naam of foto) verschijnt op het scherm, druk dan zo snel mogelijk op de spatiebalk. Druk op de spatiebalk wanneer je een foto van Zorua of het woord ZORUA ziet.  

Druk op de spatiebalk om de taak te starten.
",target5,stimuli/t5.jpg,3,51,stimuli/cs1_neg15.jpg,CSUS,False,None,,,,,,,,,,,,,,0,0,0,0,,,,,0,0,0,4,0,50,50,50,,,,,,,,,,,,,,,,,,,,,,,,,,,,,,,,,,,,,,,,,,,,,,,,,,,,,CS1_USneg,None,1,,,,,,,,,,,,,,,,,,46,m,3,n,2019_Apr_05_1027,ec_RRR,3.0.5,74.95823125388698,
moran hussey - pilot,"Voor deze taak, is de target figuur Zorua:","Dus wanneer ZORUA (zijn naam of foto) verschijnt op het scherm, druk dan zo snel mogelijk op de spatiebalk. Druk op de spatiebalk wanneer je een foto van Zorua of het woord ZORUA ziet.  

Druk op de spatiebalk om de taak te starten.
",target5,stimuli/t5.jpg,3,52,stimuli/blank.jpg,blank,False,None,,,,,,,,,,,,,,0,0,0,0,,,,,0,0,0,4,0,51,51,51,,,,,,,,,,,,,,,,,,,,,,,,,,,,,,,,,,,,,,,,,,,,,,,,,,,,,CS1_USneg,None,1,,,,,,,,,,,,,,,,,,46,m,3,n,2019_Apr_05_1027,ec_RRR,3.0.5,74.95823125388698,
moran hussey - pilot,"Voor deze taak, is de target figuur Zorua:","Dus wanneer ZORUA (zijn naam of foto) verschijnt op het scherm, druk dan zo snel mogelijk op de spatiebalk. Druk op de spatiebalk wanneer je een foto van Zorua of het woord ZORUA ziet.  

Druk op de spatiebalk om de taak te starten.
",target5,stimuli/t5.jpg,3,53,stimuli/filler47.jpg,filler,False,None,,,,,,,,,,,,,,0,0,0,0,,,,,0,0,0,4,0,52,52,52,,,,,,,,,,,,,,,,,,,,,,,,,,,,,,,,,,,,,,,,,,,,,,,,,,,,,CS1_USneg,None,1,,,,,,,,,,,,,,,,,,46,m,3,n,2019_Apr_05_1027,ec_RRR,3.0.5,74.95823125388698,
moran hussey - pilot,"Voor deze taak, is de target figuur Zorua:","Dus wanneer ZORUA (zijn naam of foto) verschijnt op het scherm, druk dan zo snel mogelijk op de spatiebalk. Druk op de spatiebalk wanneer je een foto van Zorua of het woord ZORUA ziet.  

Druk op de spatiebalk om de taak te starten.
",target5,stimuli/t5.jpg,3,54,stimuli/filler39.jpg,filler,False,None,,,,,,,,,,,,,,0,0,0,0,,,,,0,0,0,4,0,53,53,53,,,,,,,,,,,,,,,,,,,,,,,,,,,,,,,,,,,,,,,,,,,,,,,,,,,,,CS1_USneg,None,1,,,,,,,,,,,,,,,,,,46,m,3,n,2019_Apr_05_1027,ec_RRR,3.0.5,74.95823125388698,
moran hussey - pilot,"Voor deze taak, is de target figuur Zorua:","Dus wanneer ZORUA (zijn naam of foto) verschijnt op het scherm, druk dan zo snel mogelijk op de spatiebalk. Druk op de spatiebalk wanneer je een foto van Zorua of het woord ZORUA ziet.  

Druk op de spatiebalk om de taak te starten.
",target5,stimuli/t5.jpg,3,55,stimuli/filler12.jpg,filler,False,None,,,,,,,,,,,,,,0,0,0,0,,,,,0,0,0,4,0,54,54,54,,,,,,,,,,,,,,,,,,,,,,,,,,,,,,,,,,,,,,,,,,,,,,,,,,,,,CS1_USneg,None,1,,,,,,,,,,,,,,,,,,46,m,3,n,2019_Apr_05_1027,ec_RRR,3.0.5,74.95823125388698,
moran hussey - pilot,"Voor deze taak, is de target figuur Zorua:","Dus wanneer ZORUA (zijn naam of foto) verschijnt op het scherm, druk dan zo snel mogelijk op de spatiebalk. Druk op de spatiebalk wanneer je een foto van Zorua of het woord ZORUA ziet.  

Druk op de spatiebalk om de taak te starten.
",target5,stimuli/t5.jpg,3,56,stimuli/filler49.jpg,filler,False,None,,,,,,,,,,,,,,0,0,0,0,,,,,0,0,0,4,0,55,55,55,,,,,,,,,,,,,,,,,,,,,,,,,,,,,,,,,,,,,,,,,,,,,,,,,,,,,CS1_USneg,None,1,,,,,,,,,,,,,,,,,,46,m,3,n,2019_Apr_05_1027,ec_RRR,3.0.5,74.95823125388698,
moran hussey - pilot,"Voor deze taak, is de target figuur Zorua:","Dus wanneer ZORUA (zijn naam of foto) verschijnt op het scherm, druk dan zo snel mogelijk op de spatiebalk. Druk op de spatiebalk wanneer je een foto van Zorua of het woord ZORUA ziet.  

Druk op de spatiebalk om de taak te starten.
",target5,stimuli/t5.jpg,3,57,stimuli/filler3.jpg,filler,False,None,,,,,,,,,,,,,,0,0,0,0,,,,,0,0,0,4,0,56,56,56,,,,,,,,,,,,,,,,,,,,,,,,,,,,,,,,,,,,,,,,,,,,,,,,,,,,,CS1_USneg,None,1,,,,,,,,,,,,,,,,,,46,m,3,n,2019_Apr_05_1027,ec_RRR,3.0.5,74.95823125388698,
moran hussey - pilot,"Voor deze taak, is de target figuur Zorua:","Dus wanneer ZORUA (zijn naam of foto) verschijnt op het scherm, druk dan zo snel mogelijk op de spatiebalk. Druk op de spatiebalk wanneer je een foto van Zorua of het woord ZORUA ziet.  

Druk op de spatiebalk om de taak te starten.
",target5,stimuli/t5.jpg,3,58,stimuli/filler42.jpg,filler,False,None,,,,,,,,,,,,,,0,0,0,0,,,,,0,0,0,4,0,57,57,57,,,,,,,,,,,,,,,,,,,,,,,,,,,,,,,,,,,,,,,,,,,,,,,,,,,,,CS1_USneg,None,1,,,,,,,,,,,,,,,,,,46,m,3,n,2019_Apr_05_1027,ec_RRR,3.0.5,74.95823125388698,
moran hussey - pilot,"Voor deze taak, is de target figuur Zorua:","Dus wanneer ZORUA (zijn naam of foto) verschijnt op het scherm, druk dan zo snel mogelijk op de spatiebalk. Druk op de spatiebalk wanneer je een foto van Zorua of het woord ZORUA ziet.  

Druk op de spatiebalk om de taak te starten.
",target5,stimuli/t5.jpg,3,59,stimuli/filler31.jpg,filler,False,None,,,,,,,,,,,,,,0,0,0,0,,,,,0,0,0,4,0,58,58,58,,,,,,,,,,,,,,,,,,,,,,,,,,,,,,,,,,,,,,,,,,,,,,,,,,,,,CS1_USneg,None,1,,,,,,,,,,,,,,,,,,46,m,3,n,2019_Apr_05_1027,ec_RRR,3.0.5,74.95823125388698,
moran hussey - pilot,"Voor deze taak, is de target figuur Zorua:","Dus wanneer ZORUA (zijn naam of foto) verschijnt op het scherm, druk dan zo snel mogelijk op de spatiebalk. Druk op de spatiebalk wanneer je een foto van Zorua of het woord ZORUA ziet.  

Druk op de spatiebalk om de taak te starten.
",target5,stimuli/t5.jpg,3,60,stimuli/blank.jpg,blank,False,None,,,,,,,,,,,,,,0,0,0,0,,,,,0,0,0,4,0,59,59,59,,,,,,,,,,,,,,,,,,,,,,,,,,,,,,,,,,,,,,,,,,,,,,,,,,,,,CS1_USneg,None,1,,,,,,,,,,,,,,,,,,46,m,3,n,2019_Apr_05_1027,ec_RRR,3.0.5,74.95823125388698,
moran hussey - pilot,"Voor deze taak, is de target figuur Zorua:","Dus wanneer ZORUA (zijn naam of foto) verschijnt op het scherm, druk dan zo snel mogelijk op de spatiebalk. Druk op de spatiebalk wanneer je een foto van Zorua of het woord ZORUA ziet.  

Druk op de spatiebalk om de taak te starten.
",target5,stimuli/t5.jpg,3,61,stimuli/cs2_pos19.jpg,CSUS,False,None,,,,,,,,,,,,,,0,0,0,0,,,,,0,0,0,4,0,60,60,60,,,,,,,,,,,,,,,,,,,,,,,,,,,,,,,,,,,,,,,,,,,,,,,,,,,,,CS1_USneg,None,1,,,,,,,,,,,,,,,,,,46,m,3,n,2019_Apr_05_1027,ec_RRR,3.0.5,74.95823125388698,
moran hussey - pilot,"Voor deze taak, is de target figuur Zorua:","Dus wanneer ZORUA (zijn naam of foto) verschijnt op het scherm, druk dan zo snel mogelijk op de spatiebalk. Druk op de spatiebalk wanneer je een foto van Zorua of het woord ZORUA ziet.  

Druk op de spatiebalk om de taak te starten.
",target5,stimuli/t5.jpg,3,62,stimuli/blank.jpg,blank,False,None,,,,,,,,,,,,,,0,0,0,0,,,,,0,0,0,4,0,61,61,61,,,,,,,,,,,,,,,,,,,,,,,,,,,,,,,,,,,,,,,,,,,,,,,,,,,,,CS1_USneg,None,1,,,,,,,,,,,,,,,,,,46,m,3,n,2019_Apr_05_1027,ec_RRR,3.0.5,74.95823125388698,
moran hussey - pilot,"Voor deze taak, is de target figuur Zorua:","Dus wanneer ZORUA (zijn naam of foto) verschijnt op het scherm, druk dan zo snel mogelijk op de spatiebalk. Druk op de spatiebalk wanneer je een foto van Zorua of het woord ZORUA ziet.  

Druk op de spatiebalk om de taak te starten.
",target5,stimuli/t5.jpg,3,63,stimuli/filler23.jpg,filler,False,None,,,,,,,,,,,,,,0,0,0,0,,,,,0,0,0,4,0,62,62,62,,,,,,,,,,,,,,,,,,,,,,,,,,,,,,,,,,,,,,,,,,,,,,,,,,,,,CS1_USneg,None,1,,,,,,,,,,,,,,,,,,46,m,3,n,2019_Apr_05_1027,ec_RRR,3.0.5,74.95823125388698,
moran hussey - pilot,"Voor deze taak, is de target figuur Zorua:","Dus wanneer ZORUA (zijn naam of foto) verschijnt op het scherm, druk dan zo snel mogelijk op de spatiebalk. Druk op de spatiebalk wanneer je een foto van Zorua of het woord ZORUA ziet.  

Druk op de spatiebalk om de taak te starten.
",target5,stimuli/t5.jpg,3,64,stimuli/target5_1.jpg,target,True,space,,,,,,,,,,,,,,0,0,0,0,,,,,0,0,0,4,0,63,63,63,,,,,,,,,,,,,,,,,,,,,,,,,,,,,,,,,,,,,,,,,,,,,,,,,,,,,CS1_USneg,space,1,0.5847722106263973,,,,,,,,,,,,,,,,,46,m,3,n,2019_Apr_05_1027,ec_RRR,3.0.5,74.95823125388698,
moran hussey - pilot,"Voor deze taak, is de target figuur Zorua:","Dus wanneer ZORUA (zijn naam of foto) verschijnt op het scherm, druk dan zo snel mogelijk op de spatiebalk. Druk op de spatiebalk wanneer je een foto van Zorua of het woord ZORUA ziet.  

Druk op de spatiebalk om de taak te starten.
",target5,stimuli/t5.jpg,3,65,stimuli/filler1.jpg,filler,False,None,,,,,,,,,,,,,,0,0,0,0,,,,,0,0,0,4,0,64,64,64,,,,,,,,,,,,,,,,,,,,,,,,,,,,,,,,,,,,,,,,,,,,,,,,,,,,,CS1_USneg,None,1,,,,,,,,,,,,,,,,,,46,m,3,n,2019_Apr_05_1027,ec_RRR,3.0.5,74.95823125388698,
moran hussey - pilot,"Voor deze taak, is de target figuur Zorua:","Dus wanneer ZORUA (zijn naam of foto) verschijnt op het scherm, druk dan zo snel mogelijk op de spatiebalk. Druk op de spatiebalk wanneer je een foto van Zorua of het woord ZORUA ziet.  

Druk op de spatiebalk om de taak te starten.
",target5,stimuli/t5.jpg,3,66,stimuli/target5_9.jpg,target,True,space,,,,,,,,,,,,,,0,0,0,0,,,,,0,0,0,4,0,65,65,65,,,,,,,,,,,,,,,,,,,,,,,,,,,,,,,,,,,,,,,,,,,,,,,,,,,,,CS1_USneg,space,1,0.494665057543898,,,,,,,,,,,,,,,,,46,m,3,n,2019_Apr_05_1027,ec_RRR,3.0.5,74.95823125388698,
moran hussey - pilot,"Voor deze taak, is de target figuur Zorua:","Dus wanneer ZORUA (zijn naam of foto) verschijnt op het scherm, druk dan zo snel mogelijk op de spatiebalk. Druk op de spatiebalk wanneer je een foto van Zorua of het woord ZORUA ziet.  

Druk op de spatiebalk om de taak te starten.
",target5,stimuli/t5.jpg,3,67,stimuli/filler17.jpg,filler,False,None,,,,,,,,,,,,,,0,0,0,0,,,,,0,0,0,4,0,66,66,66,,,,,,,,,,,,,,,,,,,,,,,,,,,,,,,,,,,,,,,,,,,,,,,,,,,,,CS1_USneg,None,1,,,,,,,,,,,,,,,,,,46,m,3,n,2019_Apr_05_1027,ec_RRR,3.0.5,74.95823125388698,
moran hussey - pilot,"Voor deze taak, is de target figuur Zorua:","Dus wanneer ZORUA (zijn naam of foto) verschijnt op het scherm, druk dan zo snel mogelijk op de spatiebalk. Druk op de spatiebalk wanneer je een foto van Zorua of het woord ZORUA ziet.  

Druk op de spatiebalk om de taak te starten.
",target5,stimuli/t5.jpg,3,68,stimuli/filler34.jpg,filler,False,None,,,,,,,,,,,,,,0,0,0,0,,,,,0,0,0,4,0,67,67,67,,,,,,,,,,,,,,,,,,,,,,,,,,,,,,,,,,,,,,,,,,,,,,,,,,,,,CS1_USneg,None,1,,,,,,,,,,,,,,,,,,46,m,3,n,2019_Apr_05_1027,ec_RRR,3.0.5,74.95823125388698,
moran hussey - pilot,"Voor deze taak, is de target figuur Zorua:","Dus wanneer ZORUA (zijn naam of foto) verschijnt op het scherm, druk dan zo snel mogelijk op de spatiebalk. Druk op de spatiebalk wanneer je een foto van Zorua of het woord ZORUA ziet.  

Druk op de spatiebalk om de taak te starten.
",target5,stimuli/t5.jpg,3,69,stimuli/filler35.jpg,filler,False,None,,,,,,,,,,,,,,0,0,0,0,,,,,0,0,0,4,0,68,68,68,,,,,,,,,,,,,,,,,,,,,,,,,,,,,,,,,,,,,,,,,,,,,,,,,,,,,CS1_USneg,None,1,,,,,,,,,,,,,,,,,,46,m,3,n,2019_Apr_05_1027,ec_RRR,3.0.5,74.95823125388698,
moran hussey - pilot,"Voor deze taak, is de target figuur Zorua:","Dus wanneer ZORUA (zijn naam of foto) verschijnt op het scherm, druk dan zo snel mogelijk op de spatiebalk. Druk op de spatiebalk wanneer je een foto van Zorua of het woord ZORUA ziet.  

Druk op de spatiebalk om de taak te starten.
",target5,stimuli/t5.jpg,3,70,stimuli/blank.jpg,blank,False,None,,,,,,,,,,,,,,0,0,0,0,,,,,0,0,0,4,0,69,69,69,,,,,,,,,,,,,,,,,,,,,,,,,,,,,,,,,,,,,,,,,,,,,,,,,,,,,CS1_USneg,None,1,,,,,,,,,,,,,,,,,,46,m,3,n,2019_Apr_05_1027,ec_RRR,3.0.5,74.95823125388698,
moran hussey - pilot,"Voor deze taak, is de target figuur Zorua:","Dus wanneer ZORUA (zijn naam of foto) verschijnt op het scherm, druk dan zo snel mogelijk op de spatiebalk. Druk op de spatiebalk wanneer je een foto van Zorua of het woord ZORUA ziet.  

Druk op de spatiebalk om de taak te starten.
",target5,stimuli/t5.jpg,3,71,stimuli/cs1_neg16.jpg,CSUS,False,None,,,,,,,,,,,,,,0,0,0,0,,,,,0,0,0,4,0,70,70,70,,,,,,,,,,,,,,,,,,,,,,,,,,,,,,,,,,,,,,,,,,,,,,,,,,,,,CS1_USneg,None,1,,,,,,,,,,,,,,,,,,46,m,3,n,2019_Apr_05_1027,ec_RRR,3.0.5,74.95823125388698,
moran hussey - pilot,"Voor deze taak, is de target figuur Zorua:","Dus wanneer ZORUA (zijn naam of foto) verschijnt op het scherm, druk dan zo snel mogelijk op de spatiebalk. Druk op de spatiebalk wanneer je een foto van Zorua of het woord ZORUA ziet.  

Druk op de spatiebalk om de taak te starten.
",target5,stimuli/t5.jpg,3,72,stimuli/blank.jpg,blank,False,None,,,,,,,,,,,,,,0,0,0,0,,,,,0,0,0,4,0,71,71,71,,,,,,,,,,,,,,,,,,,,,,,,,,,,,,,,,,,,,,,,,,,,,,,,,,,,,CS1_USneg,None,1,,,,,,,,,,,,,,,,,,46,m,3,n,2019_Apr_05_1027,ec_RRR,3.0.5,74.95823125388698,
moran hussey - pilot,"Voor deze taak, is de target figuur Zorua:","Dus wanneer ZORUA (zijn naam of foto) verschijnt op het scherm, druk dan zo snel mogelijk op de spatiebalk. Druk op de spatiebalk wanneer je een foto van Zorua of het woord ZORUA ziet.  

Druk op de spatiebalk om de taak te starten.
",target5,stimuli/t5.jpg,3,73,stimuli/target5_7.jpg,target,True,space,,,,,,,,,,,,,,0,0,0,0,,,,,0,0,0,4,0,72,72,72,,,,,,,,,,,,,,,,,,,,,,,,,,,,,,,,,,,,,,,,,,,,,,,,,,,,,CS1_USneg,space,1,0.5589615368808154,,,,,,,,,,,,,,,,,46,m,3,n,2019_Apr_05_1027,ec_RRR,3.0.5,74.95823125388698,
moran hussey - pilot,"Voor deze taak, is de target figuur Zorua:","Dus wanneer ZORUA (zijn naam of foto) verschijnt op het scherm, druk dan zo snel mogelijk op de spatiebalk. Druk op de spatiebalk wanneer je een foto van Zorua of het woord ZORUA ziet.  

Druk op de spatiebalk om de taak te starten.
",target5,stimuli/t5.jpg,3,74,stimuli/filler33.jpg,filler,False,None,,,,,,,,,,,,,,0,0,0,0,,,,,0,0,0,4,0,73,73,73,,,,,,,,,,,,,,,,,,,,,,,,,,,,,,,,,,,,,,,,,,,,,,,,,,,,,CS1_USneg,None,1,,,,,,,,,,,,,,,,,,46,m,3,n,2019_Apr_05_1027,ec_RRR,3.0.5,74.95823125388698,
moran hussey - pilot,"Voor deze taak, is de target figuur Zorua:","Dus wanneer ZORUA (zijn naam of foto) verschijnt op het scherm, druk dan zo snel mogelijk op de spatiebalk. Druk op de spatiebalk wanneer je een foto van Zorua of het woord ZORUA ziet.  

Druk op de spatiebalk om de taak te starten.
",target5,stimuli/t5.jpg,3,75,stimuli/filler16.jpg,filler,False,None,,,,,,,,,,,,,,0,0,0,0,,,,,0,0,0,4,0,74,74,74,,,,,,,,,,,,,,,,,,,,,,,,,,,,,,,,,,,,,,,,,,,,,,,,,,,,,CS1_USneg,None,1,,,,,,,,,,,,,,,,,,46,m,3,n,2019_Apr_05_1027,ec_RRR,3.0.5,74.95823125388698,
moran hussey - pilot,"Voor deze taak, is de target figuur Zorua:","Dus wanneer ZORUA (zijn naam of foto) verschijnt op het scherm, druk dan zo snel mogelijk op de spatiebalk. Druk op de spatiebalk wanneer je een foto van Zorua of het woord ZORUA ziet.  

Druk op de spatiebalk om de taak te starten.
",target5,stimuli/t5.jpg,3,76,stimuli/filler2.jpg,filler,False,None,,,,,,,,,,,,,,0,0,0,0,,,,,0,0,0,4,0,75,75,75,,,,,,,,,,,,,,,,,,,,,,,,,,,,,,,,,,,,,,,,,,,,,,,,,,,,,CS1_USneg,None,1,,,,,,,,,,,,,,,,,,46,m,3,n,2019_Apr_05_1027,ec_RRR,3.0.5,74.95823125388698,
moran hussey - pilot,"Voor deze taak, is de target figuur Zorua:","Dus wanneer ZORUA (zijn naam of foto) verschijnt op het scherm, druk dan zo snel mogelijk op de spatiebalk. Druk op de spatiebalk wanneer je een foto van Zorua of het woord ZORUA ziet.  

Druk op de spatiebalk om de taak te starten.
",target5,stimuli/t5.jpg,3,77,stimuli/filler5.jpg,filler,False,None,,,,,,,,,,,,,,0,0,0,0,,,,,0,0,0,4,0,76,76,76,,,,,,,,,,,,,,,,,,,,,,,,,,,,,,,,,,,,,,,,,,,,,,,,,,,,,CS1_USneg,None,1,,,,,,,,,,,,,,,,,,46,m,3,n,2019_Apr_05_1027,ec_RRR,3.0.5,74.95823125388698,
moran hussey - pilot,"Voor deze taak, is de target figuur Zorua:","Dus wanneer ZORUA (zijn naam of foto) verschijnt op het scherm, druk dan zo snel mogelijk op de spatiebalk. Druk op de spatiebalk wanneer je een foto van Zorua of het woord ZORUA ziet.  

Druk op de spatiebalk om de taak te starten.
",target5,stimuli/t5.jpg,3,78,stimuli/target5_4.jpg,target,True,space,,,,,,,,,,,,,,0,0,0,0,,,,,0,0,0,4,0,77,77,77,,,,,,,,,,,,,,,,,,,,,,,,,,,,,,,,,,,,,,,,,,,,,,,,,,,,,CS1_USneg,space,1,0.519977210497018,,,,,,,,,,,,,,,,,46,m,3,n,2019_Apr_05_1027,ec_RRR,3.0.5,74.95823125388698,
moran hussey - pilot,"Voor deze taak, is de target figuur Zorua:","Dus wanneer ZORUA (zijn naam of foto) verschijnt op het scherm, druk dan zo snel mogelijk op de spatiebalk. Druk op de spatiebalk wanneer je een foto van Zorua of het woord ZORUA ziet.  

Druk op de spatiebalk om de taak te starten.
",target5,stimuli/t5.jpg,3,79,stimuli/filler46.jpg,filler,False,None,,,,,,,,,,,,,,0,0,0,0,,,,,0,0,0,4,0,78,78,78,,,,,,,,,,,,,,,,,,,,,,,,,,,,,,,,,,,,,,,,,,,,,,,,,,,,,CS1_USneg,None,1,,,,,,,,,,,,,,,,,,46,m,3,n,2019_Apr_05_1027,ec_RRR,3.0.5,74.95823125388698,
moran hussey - pilot,"Voor deze taak, is de target figuur Zorua:","Dus wanneer ZORUA (zijn naam of foto) verschijnt op het scherm, druk dan zo snel mogelijk op de spatiebalk. Druk op de spatiebalk wanneer je een foto van Zorua of het woord ZORUA ziet.  

Druk op de spatiebalk om de taak te starten.
",target5,stimuli/t5.jpg,3,80,stimuli/blank.jpg,blank,False,None,,,,,,,,,,,,,,0,0,0,0,,,,,0,0,0,4,0,79,79,79,,,,,,,,,,,,,,,,,,,,,,,,,,,,,,,,,,,,,,,,,,,,,,,,,,,,,CS1_USneg,None,1,,,,,,,,,,,,,,,,,,46,m,3,n,2019_Apr_05_1027,ec_RRR,3.0.5,74.95823125388698,
moran hussey - pilot,"Voor deze taak, is de target figuur Zorua:","Dus wanneer ZORUA (zijn naam of foto) verschijnt op het scherm, druk dan zo snel mogelijk op de spatiebalk. Druk op de spatiebalk wanneer je een foto van Zorua of het woord ZORUA ziet.  

Druk op de spatiebalk om de taak te starten.
",target5,stimuli/t5.jpg,3,81,stimuli/cs2_pos1.jpg,CSUS,False,None,,,,,,,,,,,,,,0,0,0,0,,,,,0,0,0,4,0,80,80,80,,,,,,,,,,,,,,,,,,,,,,,,,,,,,,,,,,,,,,,,,,,,,,,,,,,,,CS1_USneg,space,0,0.5871146809367929,,,,,,,,,,,,,,,,,46,m,3,n,2019_Apr_05_1027,ec_RRR,3.0.5,74.95823125388698,
moran hussey - pilot,"Voor deze taak, is de target figuur Zorua:","Dus wanneer ZORUA (zijn naam of foto) verschijnt op het scherm, druk dan zo snel mogelijk op de spatiebalk. Druk op de spatiebalk wanneer je een foto van Zorua of het woord ZORUA ziet.  

Druk op de spatiebalk om de taak te starten.
",target5,stimuli/t5.jpg,3,82,stimuli/blank.jpg,blank,False,None,,,,,,,,,,,,,,0,0,0,0,,,,,0,0,0,4,0,81,81,81,,,,,,,,,,,,,,,,,,,,,,,,,,,,,,,,,,,,,,,,,,,,,,,,,,,,,CS1_USneg,None,1,,,,,,,,,,,,,,,,,,46,m,3,n,2019_Apr_05_1027,ec_RRR,3.0.5,74.95823125388698,
moran hussey - pilot,"Voor deze taak, is de target figuur Zorua:","Dus wanneer ZORUA (zijn naam of foto) verschijnt op het scherm, druk dan zo snel mogelijk op de spatiebalk. Druk op de spatiebalk wanneer je een foto van Zorua of het woord ZORUA ziet.  

Druk op de spatiebalk om de taak te starten.
",target5,stimuli/t5.jpg,3,83,stimuli/filler19.jpg,filler,False,None,,,,,,,,,,,,,,0,0,0,0,,,,,0,0,0,4,0,82,82,82,,,,,,,,,,,,,,,,,,,,,,,,,,,,,,,,,,,,,,,,,,,,,,,,,,,,,CS1_USneg,None,1,,,,,,,,,,,,,,,,,,46,m,3,n,2019_Apr_05_1027,ec_RRR,3.0.5,74.95823125388698,
moran hussey - pilot,"Voor deze taak, is de target figuur Zorua:","Dus wanneer ZORUA (zijn naam of foto) verschijnt op het scherm, druk dan zo snel mogelijk op de spatiebalk. Druk op de spatiebalk wanneer je een foto van Zorua of het woord ZORUA ziet.  

Druk op de spatiebalk om de taak te starten.
",target5,stimuli/t5.jpg,3,84,stimuli/filler51.jpg,filler,False,None,,,,,,,,,,,,,,0,0,0,0,,,,,0,0,0,4,0,83,83,83,,,,,,,,,,,,,,,,,,,,,,,,,,,,,,,,,,,,,,,,,,,,,,,,,,,,,CS1_USneg,None,1,,,,,,,,,,,,,,,,,,46,m,3,n,2019_Apr_05_1027,ec_RRR,3.0.5,74.95823125388698,
moran hussey - pilot,"Voor deze taak, is de target figuur Zorua:","Dus wanneer ZORUA (zijn naam of foto) verschijnt op het scherm, druk dan zo snel mogelijk op de spatiebalk. Druk op de spatiebalk wanneer je een foto van Zorua of het woord ZORUA ziet.  

Druk op de spatiebalk om de taak te starten.
",target5,stimuli/t5.jpg,3,85,stimuli/target5_3.jpg,target,True,space,,,,,,,,,,,,,,0,0,0,0,,,,,0,0,0,4,0,84,84,84,,,,,,,,,,,,,,,,,,,,,,,,,,,,,,,,,,,,,,,,,,,,,,,,,,,,,CS1_USneg,space,1,0.4527296419546474,,,,,,,,,,,,,,,,,46,m,3,n,2019_Apr_05_1027,ec_RRR,3.0.5,74.95823125388698,
moran hussey - pilot,"Voor deze taak, is de target figuur Zorua:","Dus wanneer ZORUA (zijn naam of foto) verschijnt op het scherm, druk dan zo snel mogelijk op de spatiebalk. Druk op de spatiebalk wanneer je een foto van Zorua of het woord ZORUA ziet.  

Druk op de spatiebalk om de taak te starten.
",target5,stimuli/t5.jpg,3,86,stimuli/filler30.jpg,filler,False,None,,,,,,,,,,,,,,0,0,0,0,,,,,0,0,0,4,0,85,85,85,,,,,,,,,,,,,,,,,,,,,,,,,,,,,,,,,,,,,,,,,,,,,,,,,,,,,CS1_USneg,None,1,,,,,,,,,,,,,,,,,,46,m,3,n,2019_Apr_05_1027,ec_RRR,3.0.5,74.95823125388698,
moran hussey - pilot,"Voor deze taak, is de target figuur Bergmite:","Dus wanneer wanneer BERGMITE (zijn naam of foto) verschijnt op het scherm, druk dan zo snel mogelijk op de spatiebalk. Druk op de spatiebalk telkens wanneer je een foto van Bergmite of het woord BERGMITE ziet. 

Druk op de spatiebalk om de taak te starten.
",target2,stimuli/t2.jpg,3,1,stimuli/filler40.jpg,filler,False,None,,,,,,,,,,,,,,0,0,0,0,,,,,0,1,1,1,0,0,0,0,,,,,,,,,,,,,,,,,,,,,,,,,,,,,,,,,,,,,,,,,,,,,,,,,,,,,CS1_USneg,None,1,,,,,,,,,,,,,,,,,,46,m,3,n,2019_Apr_05_1027,ec_RRR,3.0.5,74.95823125388698,
moran hussey - pilot,"Voor deze taak, is de target figuur Bergmite:","Dus wanneer wanneer BERGMITE (zijn naam of foto) verschijnt op het scherm, druk dan zo snel mogelijk op de spatiebalk. Druk op de spatiebalk telkens wanneer je een foto van Bergmite of het woord BERGMITE ziet. 

Druk op de spatiebalk om de taak te starten.
",target2,stimuli/t2.jpg,3,2,stimuli/filler23.jpg,filler,False,None,,,,,,,,,,,,,,0,0,0,0,,,,,0,1,1,1,0,1,1,1,,,,,,,,,,,,,,,,,,,,,,,,,,,,,,,,,,,,,,,,,,,,,,,,,,,,,CS1_USneg,None,1,,,,,,,,,,,,,,,,,,46,m,3,n,2019_Apr_05_1027,ec_RRR,3.0.5,74.95823125388698,
moran hussey - pilot,"Voor deze taak, is de target figuur Bergmite:","Dus wanneer wanneer BERGMITE (zijn naam of foto) verschijnt op het scherm, druk dan zo snel mogelijk op de spatiebalk. Druk op de spatiebalk telkens wanneer je een foto van Bergmite of het woord BERGMITE ziet. 

Druk op de spatiebalk om de taak te starten.
",target2,stimuli/t2.jpg,3,3,stimuli/filler8.jpg,filler,False,None,,,,,,,,,,,,,,0,0,0,0,,,,,0,1,1,1,0,2,2,2,,,,,,,,,,,,,,,,,,,,,,,,,,,,,,,,,,,,,,,,,,,,,,,,,,,,,CS1_USneg,None,1,,,,,,,,,,,,,,,,,,46,m,3,n,2019_Apr_05_1027,ec_RRR,3.0.5,74.95823125388698,
moran hussey - pilot,"Voor deze taak, is de target figuur Bergmite:","Dus wanneer wanneer BERGMITE (zijn naam of foto) verschijnt op het scherm, druk dan zo snel mogelijk op de spatiebalk. Druk op de spatiebalk telkens wanneer je een foto van Bergmite of het woord BERGMITE ziet. 

Druk op de spatiebalk om de taak te starten.
",target2,stimuli/t2.jpg,3,4,stimuli/filler4.jpg,filler,False,None,,,,,,,,,,,,,,0,0,0,0,,,,,0,1,1,1,0,3,3,3,,,,,,,,,,,,,,,,,,,,,,,,,,,,,,,,,,,,,,,,,,,,,,,,,,,,,CS1_USneg,None,1,,,,,,,,,,,,,,,,,,46,m,3,n,2019_Apr_05_1027,ec_RRR,3.0.5,74.95823125388698,
moran hussey - pilot,"Voor deze taak, is de target figuur Bergmite:","Dus wanneer wanneer BERGMITE (zijn naam of foto) verschijnt op het scherm, druk dan zo snel mogelijk op de spatiebalk. Druk op de spatiebalk telkens wanneer je een foto van Bergmite of het woord BERGMITE ziet. 

Druk op de spatiebalk om de taak te starten.
",target2,stimuli/t2.jpg,3,5,stimuli/filler33.jpg,filler,False,None,,,,,,,,,,,,,,0,0,0,0,,,,,0,1,1,1,0,4,4,4,,,,,,,,,,,,,,,,,,,,,,,,,,,,,,,,,,,,,,,,,,,,,,,,,,,,,CS1_USneg,None,1,,,,,,,,,,,,,,,,,,46,m,3,n,2019_Apr_05_1027,ec_RRR,3.0.5,74.95823125388698,
moran hussey - pilot,"Voor deze taak, is de target figuur Bergmite:","Dus wanneer wanneer BERGMITE (zijn naam of foto) verschijnt op het scherm, druk dan zo snel mogelijk op de spatiebalk. Druk op de spatiebalk telkens wanneer je een foto van Bergmite of het woord BERGMITE ziet. 

Druk op de spatiebalk om de taak te starten.
",target2,stimuli/t2.jpg,3,6,stimuli/target2_7.jpg,target,True,space,,,,,,,,,,,,,,0,0,0,0,,,,,0,1,1,1,0,5,5,5,,,,,,,,,,,,,,,,,,,,,,,,,,,,,,,,,,,,,,,,,,,,,,,,,,,,,CS1_USneg,space,1,0.5604875109856948,,,,,,,,,,,,,,,,,46,m,3,n,2019_Apr_05_1027,ec_RRR,3.0.5,74.95823125388698,
moran hussey - pilot,"Voor deze taak, is de target figuur Bergmite:","Dus wanneer wanneer BERGMITE (zijn naam of foto) verschijnt op het scherm, druk dan zo snel mogelijk op de spatiebalk. Druk op de spatiebalk telkens wanneer je een foto van Bergmite of het woord BERGMITE ziet. 

Druk op de spatiebalk om de taak te starten.
",target2,stimuli/t2.jpg,3,7,stimuli/filler51.jpg,filler,False,None,,,,,,,,,,,,,,0,0,0,0,,,,,0,1,1,1,0,6,6,6,,,,,,,,,,,,,,,,,,,,,,,,,,,,,,,,,,,,,,,,,,,,,,,,,,,,,CS1_USneg,None,1,,,,,,,,,,,,,,,,,,46,m,3,n,2019_Apr_05_1027,ec_RRR,3.0.5,74.95823125388698,
moran hussey - pilot,"Voor deze taak, is de target figuur Bergmite:","Dus wanneer wanneer BERGMITE (zijn naam of foto) verschijnt op het scherm, druk dan zo snel mogelijk op de spatiebalk. Druk op de spatiebalk telkens wanneer je een foto van Bergmite of het woord BERGMITE ziet. 

Druk op de spatiebalk om de taak te starten.
",target2,stimuli/t2.jpg,3,8,stimuli/filler34.jpg,filler,False,None,,,,,,,,,,,,,,0,0,0,0,,,,,0,1,1,1,0,7,7,7,,,,,,,,,,,,,,,,,,,,,,,,,,,,,,,,,,,,,,,,,,,,,,,,,,,,,CS1_USneg,None,1,,,,,,,,,,,,,,,,,,46,m,3,n,2019_Apr_05_1027,ec_RRR,3.0.5,74.95823125388698,
moran hussey - pilot,"Voor deze taak, is de target figuur Bergmite:","Dus wanneer wanneer BERGMITE (zijn naam of foto) verschijnt op het scherm, druk dan zo snel mogelijk op de spatiebalk. Druk op de spatiebalk telkens wanneer je een foto van Bergmite of het woord BERGMITE ziet. 

Druk op de spatiebalk om de taak te starten.
",target2,stimuli/t2.jpg,3,9,stimuli/target2_4.jpg,target,True,space,,,,,,,,,,,,,,0,0,0,0,,,,,0,1,1,1,0,8,8,8,,,,,,,,,,,,,,,,,,,,,,,,,,,,,,,,,,,,,,,,,,,,,,,,,,,,,CS1_USneg,space,1,0.6657958913419861,,,,,,,,,,,,,,,,,46,m,3,n,2019_Apr_05_1027,ec_RRR,3.0.5,74.95823125388698,
moran hussey - pilot,"Voor deze taak, is de target figuur Bergmite:","Dus wanneer wanneer BERGMITE (zijn naam of foto) verschijnt op het scherm, druk dan zo snel mogelijk op de spatiebalk. Druk op de spatiebalk telkens wanneer je een foto van Bergmite of het woord BERGMITE ziet. 

Druk op de spatiebalk om de taak te starten.
",target2,stimuli/t2.jpg,3,10,stimuli/blank.jpg,blank,False,None,,,,,,,,,,,,,,0,0,0,0,,,,,0,1,1,1,0,9,9,9,,,,,,,,,,,,,,,,,,,,,,,,,,,,,,,,,,,,,,,,,,,,,,,,,,,,,CS1_USneg,None,1,,,,,,,,,,,,,,,,,,46,m,3,n,2019_Apr_05_1027,ec_RRR,3.0.5,74.95823125388698,
moran hussey - pilot,"Voor deze taak, is de target figuur Bergmite:","Dus wanneer wanneer BERGMITE (zijn naam of foto) verschijnt op het scherm, druk dan zo snel mogelijk op de spatiebalk. Druk op de spatiebalk telkens wanneer je een foto van Bergmite of het woord BERGMITE ziet. 

Druk op de spatiebalk om de taak te starten.
",target2,stimuli/t2.jpg,3,11,stimuli/cs1_neg16.jpg,CSUS,False,None,,,,,,,,,,,,,,0,0,0,0,,,,,0,1,1,1,0,10,10,10,,,,,,,,,,,,,,,,,,,,,,,,,,,,,,,,,,,,,,,,,,,,,,,,,,,,,CS1_USneg,None,1,,,,,,,,,,,,,,,,,,46,m,3,n,2019_Apr_05_1027,ec_RRR,3.0.5,74.95823125388698,
moran hussey - pilot,"Voor deze taak, is de target figuur Bergmite:","Dus wanneer wanneer BERGMITE (zijn naam of foto) verschijnt op het scherm, druk dan zo snel mogelijk op de spatiebalk. Druk op de spatiebalk telkens wanneer je een foto van Bergmite of het woord BERGMITE ziet. 

Druk op de spatiebalk om de taak te starten.
",target2,stimuli/t2.jpg,3,12,stimuli/blank.jpg,blank,False,None,,,,,,,,,,,,,,0,0,0,0,,,,,0,1,1,1,0,11,11,11,,,,,,,,,,,,,,,,,,,,,,,,,,,,,,,,,,,,,,,,,,,,,,,,,,,,,CS1_USneg,None,1,,,,,,,,,,,,,,,,,,46,m,3,n,2019_Apr_05_1027,ec_RRR,3.0.5,74.95823125388698,
moran hussey - pilot,"Voor deze taak, is de target figuur Bergmite:","Dus wanneer wanneer BERGMITE (zijn naam of foto) verschijnt op het scherm, druk dan zo snel mogelijk op de spatiebalk. Druk op de spatiebalk telkens wanneer je een foto van Bergmite of het woord BERGMITE ziet. 

Druk op de spatiebalk om de taak te starten.
",target2,stimuli/t2.jpg,3,13,stimuli/target2_1.jpg,target,True,space,,,,,,,,,,,,,,0,0,0,0,,,,,0,1,1,1,0,12,12,12,,,,,,,,,,,,,,,,,,,,,,,,,,,,,,,,,,,,,,,,,,,,,,,,,,,,,CS1_USneg,space,1,0.5327189401432406,,,,,,,,,,,,,,,,,46,m,3,n,2019_Apr_05_1027,ec_RRR,3.0.5,74.95823125388698,
moran hussey - pilot,"Voor deze taak, is de target figuur Bergmite:","Dus wanneer wanneer BERGMITE (zijn naam of foto) verschijnt op het scherm, druk dan zo snel mogelijk op de spatiebalk. Druk op de spatiebalk telkens wanneer je een foto van Bergmite of het woord BERGMITE ziet. 

Druk op de spatiebalk om de taak te starten.
",target2,stimuli/t2.jpg,3,14,stimuli/filler37.jpg,filler,False,None,,,,,,,,,,,,,,0,0,0,0,,,,,0,1,1,1,0,13,13,13,,,,,,,,,,,,,,,,,,,,,,,,,,,,,,,,,,,,,,,,,,,,,,,,,,,,,CS1_USneg,None,1,,,,,,,,,,,,,,,,,,46,m,3,n,2019_Apr_05_1027,ec_RRR,3.0.5,74.95823125388698,
moran hussey - pilot,"Voor deze taak, is de target figuur Bergmite:","Dus wanneer wanneer BERGMITE (zijn naam of foto) verschijnt op het scherm, druk dan zo snel mogelijk op de spatiebalk. Druk op de spatiebalk telkens wanneer je een foto van Bergmite of het woord BERGMITE ziet. 

Druk op de spatiebalk om de taak te starten.
",target2,stimuli/t2.jpg,3,15,stimuli/filler16.jpg,filler,False,None,,,,,,,,,,,,,,0,0,0,0,,,,,0,1,1,1,0,14,14,14,,,,,,,,,,,,,,,,,,,,,,,,,,,,,,,,,,,,,,,,,,,,,,,,,,,,,CS1_USneg,None,1,,,,,,,,,,,,,,,,,,46,m,3,n,2019_Apr_05_1027,ec_RRR,3.0.5,74.95823125388698,
moran hussey - pilot,"Voor deze taak, is de target figuur Bergmite:","Dus wanneer wanneer BERGMITE (zijn naam of foto) verschijnt op het scherm, druk dan zo snel mogelijk op de spatiebalk. Druk op de spatiebalk telkens wanneer je een foto van Bergmite of het woord BERGMITE ziet. 

Druk op de spatiebalk om de taak te starten.
",target2,stimuli/t2.jpg,3,16,stimuli/filler5.jpg,filler,False,None,,,,,,,,,,,,,,0,0,0,0,,,,,0,1,1,1,0,15,15,15,,,,,,,,,,,,,,,,,,,,,,,,,,,,,,,,,,,,,,,,,,,,,,,,,,,,,CS1_USneg,None,1,,,,,,,,,,,,,,,,,,46,m,3,n,2019_Apr_05_1027,ec_RRR,3.0.5,74.95823125388698,
moran hussey - pilot,"Voor deze taak, is de target figuur Bergmite:","Dus wanneer wanneer BERGMITE (zijn naam of foto) verschijnt op het scherm, druk dan zo snel mogelijk op de spatiebalk. Druk op de spatiebalk telkens wanneer je een foto van Bergmite of het woord BERGMITE ziet. 

Druk op de spatiebalk om de taak te starten.
",target2,stimuli/t2.jpg,3,17,stimuli/filler47.jpg,filler,False,None,,,,,,,,,,,,,,0,0,0,0,,,,,0,1,1,1,0,16,16,16,,,,,,,,,,,,,,,,,,,,,,,,,,,,,,,,,,,,,,,,,,,,,,,,,,,,,CS1_USneg,None,1,,,,,,,,,,,,,,,,,,46,m,3,n,2019_Apr_05_1027,ec_RRR,3.0.5,74.95823125388698,
moran hussey - pilot,"Voor deze taak, is de target figuur Bergmite:","Dus wanneer wanneer BERGMITE (zijn naam of foto) verschijnt op het scherm, druk dan zo snel mogelijk op de spatiebalk. Druk op de spatiebalk telkens wanneer je een foto van Bergmite of het woord BERGMITE ziet. 

Druk op de spatiebalk om de taak te starten.
",target2,stimuli/t2.jpg,3,18,stimuli/filler12.jpg,filler,False,None,,,,,,,,,,,,,,0,0,0,0,,,,,0,1,1,1,0,17,17,17,,,,,,,,,,,,,,,,,,,,,,,,,,,,,,,,,,,,,,,,,,,,,,,,,,,,,CS1_USneg,None,1,,,,,,,,,,,,,,,,,,46,m,3,n,2019_Apr_05_1027,ec_RRR,3.0.5,74.95823125388698,
moran hussey - pilot,"Voor deze taak, is de target figuur Bergmite:","Dus wanneer wanneer BERGMITE (zijn naam of foto) verschijnt op het scherm, druk dan zo snel mogelijk op de spatiebalk. Druk op de spatiebalk telkens wanneer je een foto van Bergmite of het woord BERGMITE ziet. 

Druk op de spatiebalk om de taak te starten.
",target2,stimuli/t2.jpg,3,19,stimuli/filler10.jpg,filler,False,None,,,,,,,,,,,,,,0,0,0,0,,,,,0,1,1,1,0,18,18,18,,,,,,,,,,,,,,,,,,,,,,,,,,,,,,,,,,,,,,,,,,,,,,,,,,,,,CS1_USneg,None,1,,,,,,,,,,,,,,,,,,46,m,3,n,2019_Apr_05_1027,ec_RRR,3.0.5,74.95823125388698,
moran hussey - pilot,"Voor deze taak, is de target figuur Bergmite:","Dus wanneer wanneer BERGMITE (zijn naam of foto) verschijnt op het scherm, druk dan zo snel mogelijk op de spatiebalk. Druk op de spatiebalk telkens wanneer je een foto van Bergmite of het woord BERGMITE ziet. 

Druk op de spatiebalk om de taak te starten.
",target2,stimuli/t2.jpg,3,20,stimuli/blank.jpg,blank,False,None,,,,,,,,,,,,,,0,0,0,0,,,,,0,1,1,1,0,19,19,19,,,,,,,,,,,,,,,,,,,,,,,,,,,,,,,,,,,,,,,,,,,,,,,,,,,,,CS1_USneg,None,1,,,,,,,,,,,,,,,,,,46,m,3,n,2019_Apr_05_1027,ec_RRR,3.0.5,74.95823125388698,
moran hussey - pilot,"Voor deze taak, is de target figuur Bergmite:","Dus wanneer wanneer BERGMITE (zijn naam of foto) verschijnt op het scherm, druk dan zo snel mogelijk op de spatiebalk. Druk op de spatiebalk telkens wanneer je een foto van Bergmite of het woord BERGMITE ziet. 

Druk op de spatiebalk om de taak te starten.
",target2,stimuli/t2.jpg,3,21,stimuli/cs2_pos5.jpg,CSUS,False,None,,,,,,,,,,,,,,0,0,0,0,,,,,0,1,1,1,0,20,20,20,,,,,,,,,,,,,,,,,,,,,,,,,,,,,,,,,,,,,,,,,,,,,,,,,,,,,CS1_USneg,None,1,,,,,,,,,,,,,,,,,,46,m,3,n,2019_Apr_05_1027,ec_RRR,3.0.5,74.95823125388698,
moran hussey - pilot,"Voor deze taak, is de target figuur Bergmite:","Dus wanneer wanneer BERGMITE (zijn naam of foto) verschijnt op het scherm, druk dan zo snel mogelijk op de spatiebalk. Druk op de spatiebalk telkens wanneer je een foto van Bergmite of het woord BERGMITE ziet. 

Druk op de spatiebalk om de taak te starten.
",target2,stimuli/t2.jpg,3,22,stimuli/blank.jpg,blank,False,None,,,,,,,,,,,,,,0,0,0,0,,,,,0,1,1,1,0,21,21,21,,,,,,,,,,,,,,,,,,,,,,,,,,,,,,,,,,,,,,,,,,,,,,,,,,,,,CS1_USneg,None,1,,,,,,,,,,,,,,,,,,46,m,3,n,2019_Apr_05_1027,ec_RRR,3.0.5,74.95823125388698,
moran hussey - pilot,"Voor deze taak, is de target figuur Bergmite:","Dus wanneer wanneer BERGMITE (zijn naam of foto) verschijnt op het scherm, druk dan zo snel mogelijk op de spatiebalk. Druk op de spatiebalk telkens wanneer je een foto van Bergmite of het woord BERGMITE ziet. 

Druk op de spatiebalk om de taak te starten.
",target2,stimuli/t2.jpg,3,23,stimuli/filler31.jpg,filler,False,None,,,,,,,,,,,,,,0,0,0,0,,,,,0,1,1,1,0,22,22,22,,,,,,,,,,,,,,,,,,,,,,,,,,,,,,,,,,,,,,,,,,,,,,,,,,,,,CS1_USneg,None,1,,,,,,,,,,,,,,,,,,46,m,3,n,2019_Apr_05_1027,ec_RRR,3.0.5,74.95823125388698,
moran hussey - pilot,"Voor deze taak, is de target figuur Bergmite:","Dus wanneer wanneer BERGMITE (zijn naam of foto) verschijnt op het scherm, druk dan zo snel mogelijk op de spatiebalk. Druk op de spatiebalk telkens wanneer je een foto van Bergmite of het woord BERGMITE ziet. 

Druk op de spatiebalk om de taak te starten.
",target2,stimuli/t2.jpg,3,24,stimuli/filler1.jpg,filler,False,None,,,,,,,,,,,,,,0,0,0,0,,,,,0,1,1,1,0,23,23,23,,,,,,,,,,,,,,,,,,,,,,,,,,,,,,,,,,,,,,,,,,,,,,,,,,,,,CS1_USneg,None,1,,,,,,,,,,,,,,,,,,46,m,3,n,2019_Apr_05_1027,ec_RRR,3.0.5,74.95823125388698,
moran hussey - pilot,"Voor deze taak, is de target figuur Bergmite:","Dus wanneer wanneer BERGMITE (zijn naam of foto) verschijnt op het scherm, druk dan zo snel mogelijk op de spatiebalk. Druk op de spatiebalk telkens wanneer je een foto van Bergmite of het woord BERGMITE ziet. 

Druk op de spatiebalk om de taak te starten.
",target2,stimuli/t2.jpg,3,25,stimuli/filler41.jpg,filler,False,None,,,,,,,,,,,,,,0,0,0,0,,,,,0,1,1,1,0,24,24,24,,,,,,,,,,,,,,,,,,,,,,,,,,,,,,,,,,,,,,,,,,,,,,,,,,,,,CS1_USneg,None,1,,,,,,,,,,,,,,,,,,46,m,3,n,2019_Apr_05_1027,ec_RRR,3.0.5,74.95823125388698,
moran hussey - pilot,"Voor deze taak, is de target figuur Bergmite:","Dus wanneer wanneer BERGMITE (zijn naam of foto) verschijnt op het scherm, druk dan zo snel mogelijk op de spatiebalk. Druk op de spatiebalk telkens wanneer je een foto van Bergmite of het woord BERGMITE ziet. 

Druk op de spatiebalk om de taak te starten.
",target2,stimuli/t2.jpg,3,26,stimuli/filler28.jpg,filler,False,None,,,,,,,,,,,,,,0,0,0,0,,,,,0,1,1,1,0,25,25,25,,,,,,,,,,,,,,,,,,,,,,,,,,,,,,,,,,,,,,,,,,,,,,,,,,,,,CS1_USneg,None,1,,,,,,,,,,,,,,,,,,46,m,3,n,2019_Apr_05_1027,ec_RRR,3.0.5,74.95823125388698,
moran hussey - pilot,"Voor deze taak, is de target figuur Bergmite:","Dus wanneer wanneer BERGMITE (zijn naam of foto) verschijnt op het scherm, druk dan zo snel mogelijk op de spatiebalk. Druk op de spatiebalk telkens wanneer je een foto van Bergmite of het woord BERGMITE ziet. 

Druk op de spatiebalk om de taak te starten.
",target2,stimuli/t2.jpg,3,27,stimuli/filler21.jpg,filler,False,None,,,,,,,,,,,,,,0,0,0,0,,,,,0,1,1,1,0,26,26,26,,,,,,,,,,,,,,,,,,,,,,,,,,,,,,,,,,,,,,,,,,,,,,,,,,,,,CS1_USneg,None,1,,,,,,,,,,,,,,,,,,46,m,3,n,2019_Apr_05_1027,ec_RRR,3.0.5,74.95823125388698,
moran hussey - pilot,"Voor deze taak, is de target figuur Bergmite:","Dus wanneer wanneer BERGMITE (zijn naam of foto) verschijnt op het scherm, druk dan zo snel mogelijk op de spatiebalk. Druk op de spatiebalk telkens wanneer je een foto van Bergmite of het woord BERGMITE ziet. 

Druk op de spatiebalk om de taak te starten.
",target2,stimuli/t2.jpg,3,28,stimuli/filler44.jpg,filler,False,None,,,,,,,,,,,,,,0,0,0,0,,,,,0,1,1,1,0,27,27,27,,,,,,,,,,,,,,,,,,,,,,,,,,,,,,,,,,,,,,,,,,,,,,,,,,,,,CS1_USneg,None,1,,,,,,,,,,,,,,,,,,46,m,3,n,2019_Apr_05_1027,ec_RRR,3.0.5,74.95823125388698,
moran hussey - pilot,"Voor deze taak, is de target figuur Bergmite:","Dus wanneer wanneer BERGMITE (zijn naam of foto) verschijnt op het scherm, druk dan zo snel mogelijk op de spatiebalk. Druk op de spatiebalk telkens wanneer je een foto van Bergmite of het woord BERGMITE ziet. 

Druk op de spatiebalk om de taak te starten.
",target2,stimuli/t2.jpg,3,29,stimuli/filler50.jpg,filler,False,None,,,,,,,,,,,,,,0,0,0,0,,,,,0,1,1,1,0,28,28,28,,,,,,,,,,,,,,,,,,,,,,,,,,,,,,,,,,,,,,,,,,,,,,,,,,,,,CS1_USneg,None,1,,,,,,,,,,,,,,,,,,46,m,3,n,2019_Apr_05_1027,ec_RRR,3.0.5,74.95823125388698,
moran hussey - pilot,"Voor deze taak, is de target figuur Bergmite:","Dus wanneer wanneer BERGMITE (zijn naam of foto) verschijnt op het scherm, druk dan zo snel mogelijk op de spatiebalk. Druk op de spatiebalk telkens wanneer je een foto van Bergmite of het woord BERGMITE ziet. 

Druk op de spatiebalk om de taak te starten.
",target2,stimuli/t2.jpg,3,30,stimuli/blank.jpg,blank,False,None,,,,,,,,,,,,,,0,0,0,0,,,,,0,1,1,1,0,29,29,29,,,,,,,,,,,,,,,,,,,,,,,,,,,,,,,,,,,,,,,,,,,,,,,,,,,,,CS1_USneg,None,1,,,,,,,,,,,,,,,,,,46,m,3,n,2019_Apr_05_1027,ec_RRR,3.0.5,74.95823125388698,
moran hussey - pilot,"Voor deze taak, is de target figuur Bergmite:","Dus wanneer wanneer BERGMITE (zijn naam of foto) verschijnt op het scherm, druk dan zo snel mogelijk op de spatiebalk. Druk op de spatiebalk telkens wanneer je een foto van Bergmite of het woord BERGMITE ziet. 

Druk op de spatiebalk om de taak te starten.
",target2,stimuli/t2.jpg,3,31,stimuli/cs1_neg18.jpg,CSUS,False,None,,,,,,,,,,,,,,0,0,0,0,,,,,0,1,1,1,0,30,30,30,,,,,,,,,,,,,,,,,,,,,,,,,,,,,,,,,,,,,,,,,,,,,,,,,,,,,CS1_USneg,None,1,,,,,,,,,,,,,,,,,,46,m,3,n,2019_Apr_05_1027,ec_RRR,3.0.5,74.95823125388698,
moran hussey - pilot,"Voor deze taak, is de target figuur Bergmite:","Dus wanneer wanneer BERGMITE (zijn naam of foto) verschijnt op het scherm, druk dan zo snel mogelijk op de spatiebalk. Druk op de spatiebalk telkens wanneer je een foto van Bergmite of het woord BERGMITE ziet. 

Druk op de spatiebalk om de taak te starten.
",target2,stimuli/t2.jpg,3,32,stimuli/blank.jpg,blank,False,None,,,,,,,,,,,,,,0,0,0,0,,,,,0,1,1,1,0,31,31,31,,,,,,,,,,,,,,,,,,,,,,,,,,,,,,,,,,,,,,,,,,,,,,,,,,,,,CS1_USneg,None,1,,,,,,,,,,,,,,,,,,46,m,3,n,2019_Apr_05_1027,ec_RRR,3.0.5,74.95823125388698,
moran hussey - pilot,"Voor deze taak, is de target figuur Bergmite:","Dus wanneer wanneer BERGMITE (zijn naam of foto) verschijnt op het scherm, druk dan zo snel mogelijk op de spatiebalk. Druk op de spatiebalk telkens wanneer je een foto van Bergmite of het woord BERGMITE ziet. 

Druk op de spatiebalk om de taak te starten.
",target2,stimuli/t2.jpg,3,33,stimuli/filler32.jpg,filler,False,None,,,,,,,,,,,,,,0,0,0,0,,,,,0,1,1,1,0,32,32,32,,,,,,,,,,,,,,,,,,,,,,,,,,,,,,,,,,,,,,,,,,,,,,,,,,,,,CS1_USneg,None,1,,,,,,,,,,,,,,,,,,46,m,3,n,2019_Apr_05_1027,ec_RRR,3.0.5,74.95823125388698,
moran hussey - pilot,"Voor deze taak, is de target figuur Bergmite:","Dus wanneer wanneer BERGMITE (zijn naam of foto) verschijnt op het scherm, druk dan zo snel mogelijk op de spatiebalk. Druk op de spatiebalk telkens wanneer je een foto van Bergmite of het woord BERGMITE ziet. 

Druk op de spatiebalk om de taak te starten.
",target2,stimuli/t2.jpg,3,34,stimuli/filler3.jpg,filler,False,None,,,,,,,,,,,,,,0,0,0,0,,,,,0,1,1,1,0,33,33,33,,,,,,,,,,,,,,,,,,,,,,,,,,,,,,,,,,,,,,,,,,,,,,,,,,,,,CS1_USneg,None,1,,,,,,,,,,,,,,,,,,46,m,3,n,2019_Apr_05_1027,ec_RRR,3.0.5,74.95823125388698,
moran hussey - pilot,"Voor deze taak, is de target figuur Bergmite:","Dus wanneer wanneer BERGMITE (zijn naam of foto) verschijnt op het scherm, druk dan zo snel mogelijk op de spatiebalk. Druk op de spatiebalk telkens wanneer je een foto van Bergmite of het woord BERGMITE ziet. 

Druk op de spatiebalk om de taak te starten.
",target2,stimuli/t2.jpg,3,35,stimuli/filler39.jpg,filler,False,None,,,,,,,,,,,,,,0,0,0,0,,,,,0,1,1,1,0,34,34,34,,,,,,,,,,,,,,,,,,,,,,,,,,,,,,,,,,,,,,,,,,,,,,,,,,,,,CS1_USneg,None,1,,,,,,,,,,,,,,,,,,46,m,3,n,2019_Apr_05_1027,ec_RRR,3.0.5,74.95823125388698,
moran hussey - pilot,"Voor deze taak, is de target figuur Bergmite:","Dus wanneer wanneer BERGMITE (zijn naam of foto) verschijnt op het scherm, druk dan zo snel mogelijk op de spatiebalk. Druk op de spatiebalk telkens wanneer je een foto van Bergmite of het woord BERGMITE ziet. 

Druk op de spatiebalk om de taak te starten.
",target2,stimuli/t2.jpg,3,36,stimuli/filler48.jpg,filler,False,None,,,,,,,,,,,,,,0,0,0,0,,,,,0,1,1,1,0,35,35,35,,,,,,,,,,,,,,,,,,,,,,,,,,,,,,,,,,,,,,,,,,,,,,,,,,,,,CS1_USneg,None,1,,,,,,,,,,,,,,,,,,46,m,3,n,2019_Apr_05_1027,ec_RRR,3.0.5,74.95823125388698,
moran hussey - pilot,"Voor deze taak, is de target figuur Bergmite:","Dus wanneer wanneer BERGMITE (zijn naam of foto) verschijnt op het scherm, druk dan zo snel mogelijk op de spatiebalk. Druk op de spatiebalk telkens wanneer je een foto van Bergmite of het woord BERGMITE ziet. 

Druk op de spatiebalk om de taak te starten.
",target2,stimuli/t2.jpg,3,37,stimuli/filler24.jpg,filler,False,None,,,,,,,,,,,,,,0,0,0,0,,,,,0,1,1,1,0,36,36,36,,,,,,,,,,,,,,,,,,,,,,,,,,,,,,,,,,,,,,,,,,,,,,,,,,,,,CS1_USneg,None,1,,,,,,,,,,,,,,,,,,46,m,3,n,2019_Apr_05_1027,ec_RRR,3.0.5,74.95823125388698,
moran hussey - pilot,"Voor deze taak, is de target figuur Bergmite:","Dus wanneer wanneer BERGMITE (zijn naam of foto) verschijnt op het scherm, druk dan zo snel mogelijk op de spatiebalk. Druk op de spatiebalk telkens wanneer je een foto van Bergmite of het woord BERGMITE ziet. 

Druk op de spatiebalk om de taak te starten.
",target2,stimuli/t2.jpg,3,38,stimuli/target2_8.jpg,target,True,space,,,,,,,,,,,,,,0,0,0,0,,,,,0,1,1,1,0,37,37,37,,,,,,,,,,,,,,,,,,,,,,,,,,,,,,,,,,,,,,,,,,,,,,,,,,,,,CS1_USneg,space,1,0.5997713348770048,,,,,,,,,,,,,,,,,46,m,3,n,2019_Apr_05_1027,ec_RRR,3.0.5,74.95823125388698,
moran hussey - pilot,"Voor deze taak, is de target figuur Bergmite:","Dus wanneer wanneer BERGMITE (zijn naam of foto) verschijnt op het scherm, druk dan zo snel mogelijk op de spatiebalk. Druk op de spatiebalk telkens wanneer je een foto van Bergmite of het woord BERGMITE ziet. 

Druk op de spatiebalk om de taak te starten.
",target2,stimuli/t2.jpg,3,39,stimuli/target2_10.jpg,target,True,space,,,,,,,,,,,,,,0,0,0,0,,,,,0,1,1,1,0,38,38,38,,,,,,,,,,,,,,,,,,,,,,,,,,,,,,,,,,,,,,,,,,,,,,,,,,,,,CS1_USneg,None,0,,,,,,,,,,,,,,,,,,46,m,3,n,2019_Apr_05_1027,ec_RRR,3.0.5,74.95823125388698,
moran hussey - pilot,"Voor deze taak, is de target figuur Bergmite:","Dus wanneer wanneer BERGMITE (zijn naam of foto) verschijnt op het scherm, druk dan zo snel mogelijk op de spatiebalk. Druk op de spatiebalk telkens wanneer je een foto van Bergmite of het woord BERGMITE ziet. 

Druk op de spatiebalk om de taak te starten.
",target2,stimuli/t2.jpg,3,40,stimuli/blank.jpg,blank,False,None,,,,,,,,,,,,,,0,0,0,0,,,,,0,1,1,1,0,39,39,39,,,,,,,,,,,,,,,,,,,,,,,,,,,,,,,,,,,,,,,,,,,,,,,,,,,,,CS1_USneg,None,1,,,,,,,,,,,,,,,,,,46,m,3,n,2019_Apr_05_1027,ec_RRR,3.0.5,74.95823125388698,
moran hussey - pilot,"Voor deze taak, is de target figuur Bergmite:","Dus wanneer wanneer BERGMITE (zijn naam of foto) verschijnt op het scherm, druk dan zo snel mogelijk op de spatiebalk. Druk op de spatiebalk telkens wanneer je een foto van Bergmite of het woord BERGMITE ziet. 

Druk op de spatiebalk om de taak te starten.
",target2,stimuli/t2.jpg,3,41,stimuli/cs2_pos2.jpg,CSUS,False,None,,,,,,,,,,,,,,0,0,0,0,,,,,0,1,1,1,0,40,40,40,,,,,,,,,,,,,,,,,,,,,,,,,,,,,,,,,,,,,,,,,,,,,,,,,,,,,CS1_USneg,None,1,,,,,,,,,,,,,,,,,,46,m,3,n,2019_Apr_05_1027,ec_RRR,3.0.5,74.95823125388698,
moran hussey - pilot,"Voor deze taak, is de target figuur Bergmite:","Dus wanneer wanneer BERGMITE (zijn naam of foto) verschijnt op het scherm, druk dan zo snel mogelijk op de spatiebalk. Druk op de spatiebalk telkens wanneer je een foto van Bergmite of het woord BERGMITE ziet. 

Druk op de spatiebalk om de taak te starten.
",target2,stimuli/t2.jpg,3,42,stimuli/blank.jpg,blank,False,None,,,,,,,,,,,,,,0,0,0,0,,,,,0,1,1,1,0,41,41,41,,,,,,,,,,,,,,,,,,,,,,,,,,,,,,,,,,,,,,,,,,,,,,,,,,,,,CS1_USneg,None,1,,,,,,,,,,,,,,,,,,46,m,3,n,2019_Apr_05_1027,ec_RRR,3.0.5,74.95823125388698,
moran hussey - pilot,"Voor deze taak, is de target figuur Bergmite:","Dus wanneer wanneer BERGMITE (zijn naam of foto) verschijnt op het scherm, druk dan zo snel mogelijk op de spatiebalk. Druk op de spatiebalk telkens wanneer je een foto van Bergmite of het woord BERGMITE ziet. 

Druk op de spatiebalk om de taak te starten.
",target2,stimuli/t2.jpg,3,43,stimuli/filler13.jpg,filler,False,None,,,,,,,,,,,,,,0,0,0,0,,,,,0,1,1,1,0,42,42,42,,,,,,,,,,,,,,,,,,,,,,,,,,,,,,,,,,,,,,,,,,,,,,,,,,,,,CS1_USneg,None,1,,,,,,,,,,,,,,,,,,46,m,3,n,2019_Apr_05_1027,ec_RRR,3.0.5,74.95823125388698,
moran hussey - pilot,"Voor deze taak, is de target figuur Bergmite:","Dus wanneer wanneer BERGMITE (zijn naam of foto) verschijnt op het scherm, druk dan zo snel mogelijk op de spatiebalk. Druk op de spatiebalk telkens wanneer je een foto van Bergmite of het woord BERGMITE ziet. 

Druk op de spatiebalk om de taak te starten.
",target2,stimuli/t2.jpg,3,44,stimuli/filler7.jpg,filler,False,None,,,,,,,,,,,,,,0,0,0,0,,,,,0,1,1,1,0,43,43,43,,,,,,,,,,,,,,,,,,,,,,,,,,,,,,,,,,,,,,,,,,,,,,,,,,,,,CS1_USneg,None,1,,,,,,,,,,,,,,,,,,46,m,3,n,2019_Apr_05_1027,ec_RRR,3.0.5,74.95823125388698,
moran hussey - pilot,"Voor deze taak, is de target figuur Bergmite:","Dus wanneer wanneer BERGMITE (zijn naam of foto) verschijnt op het scherm, druk dan zo snel mogelijk op de spatiebalk. Druk op de spatiebalk telkens wanneer je een foto van Bergmite of het woord BERGMITE ziet. 

Druk op de spatiebalk om de taak te starten.
",target2,stimuli/t2.jpg,3,45,stimuli/filler14.jpg,filler,False,None,,,,,,,,,,,,,,0,0,0,0,,,,,0,1,1,1,0,44,44,44,,,,,,,,,,,,,,,,,,,,,,,,,,,,,,,,,,,,,,,,,,,,,,,,,,,,,CS1_USneg,None,1,,,,,,,,,,,,,,,,,,46,m,3,n,2019_Apr_05_1027,ec_RRR,3.0.5,74.95823125388698,
moran hussey - pilot,"Voor deze taak, is de target figuur Bergmite:","Dus wanneer wanneer BERGMITE (zijn naam of foto) verschijnt op het scherm, druk dan zo snel mogelijk op de spatiebalk. Druk op de spatiebalk telkens wanneer je een foto van Bergmite of het woord BERGMITE ziet. 

Druk op de spatiebalk om de taak te starten.
",target2,stimuli/t2.jpg,3,46,stimuli/target2_9.jpg,target,True,space,,,,,,,,,,,,,,0,0,0,0,,,,,0,1,1,1,0,45,45,45,,,,,,,,,,,,,,,,,,,,,,,,,,,,,,,,,,,,,,,,,,,,,,,,,,,,,CS1_USneg,space,1,0.45335943350801244,,,,,,,,,,,,,,,,,46,m,3,n,2019_Apr_05_1027,ec_RRR,3.0.5,74.95823125388698,
moran hussey - pilot,"Voor deze taak, is de target figuur Bergmite:","Dus wanneer wanneer BERGMITE (zijn naam of foto) verschijnt op het scherm, druk dan zo snel mogelijk op de spatiebalk. Druk op de spatiebalk telkens wanneer je een foto van Bergmite of het woord BERGMITE ziet. 

Druk op de spatiebalk om de taak te starten.
",target2,stimuli/t2.jpg,3,47,stimuli/filler17.jpg,filler,False,None,,,,,,,,,,,,,,0,0,0,0,,,,,0,1,1,1,0,46,46,46,,,,,,,,,,,,,,,,,,,,,,,,,,,,,,,,,,,,,,,,,,,,,,,,,,,,,CS1_USneg,None,1,,,,,,,,,,,,,,,,,,46,m,3,n,2019_Apr_05_1027,ec_RRR,3.0.5,74.95823125388698,
moran hussey - pilot,"Voor deze taak, is de target figuur Bergmite:","Dus wanneer wanneer BERGMITE (zijn naam of foto) verschijnt op het scherm, druk dan zo snel mogelijk op de spatiebalk. Druk op de spatiebalk telkens wanneer je een foto van Bergmite of het woord BERGMITE ziet. 

Druk op de spatiebalk om de taak te starten.
",target2,stimuli/t2.jpg,3,48,stimuli/filler15.jpg,filler,False,None,,,,,,,,,,,,,,0,0,0,0,,,,,0,1,1,1,0,47,47,47,,,,,,,,,,,,,,,,,,,,,,,,,,,,,,,,,,,,,,,,,,,,,,,,,,,,,CS1_USneg,None,1,,,,,,,,,,,,,,,,,,46,m,3,n,2019_Apr_05_1027,ec_RRR,3.0.5,74.95823125388698,
moran hussey - pilot,"Voor deze taak, is de target figuur Bergmite:","Dus wanneer wanneer BERGMITE (zijn naam of foto) verschijnt op het scherm, druk dan zo snel mogelijk op de spatiebalk. Druk op de spatiebalk telkens wanneer je een foto van Bergmite of het woord BERGMITE ziet. 

Druk op de spatiebalk om de taak te starten.
",target2,stimuli/t2.jpg,3,49,stimuli/filler35.jpg,filler,False,None,,,,,,,,,,,,,,0,0,0,0,,,,,0,1,1,1,0,48,48,48,,,,,,,,,,,,,,,,,,,,,,,,,,,,,,,,,,,,,,,,,,,,,,,,,,,,,CS1_USneg,None,1,,,,,,,,,,,,,,,,,,46,m,3,n,2019_Apr_05_1027,ec_RRR,3.0.5,74.95823125388698,
moran hussey - pilot,"Voor deze taak, is de target figuur Bergmite:","Dus wanneer wanneer BERGMITE (zijn naam of foto) verschijnt op het scherm, druk dan zo snel mogelijk op de spatiebalk. Druk op de spatiebalk telkens wanneer je een foto van Bergmite of het woord BERGMITE ziet. 

Druk op de spatiebalk om de taak te starten.
",target2,stimuli/t2.jpg,3,50,stimuli/blank.jpg,blank,False,None,,,,,,,,,,,,,,0,0,0,0,,,,,0,1,1,1,0,49,49,49,,,,,,,,,,,,,,,,,,,,,,,,,,,,,,,,,,,,,,,,,,,,,,,,,,,,,CS1_USneg,None,1,,,,,,,,,,,,,,,,,,46,m,3,n,2019_Apr_05_1027,ec_RRR,3.0.5,74.95823125388698,
moran hussey - pilot,"Voor deze taak, is de target figuur Bergmite:","Dus wanneer wanneer BERGMITE (zijn naam of foto) verschijnt op het scherm, druk dan zo snel mogelijk op de spatiebalk. Druk op de spatiebalk telkens wanneer je een foto van Bergmite of het woord BERGMITE ziet. 

Druk op de spatiebalk om de taak te starten.
",target2,stimuli/t2.jpg,3,51,stimuli/cs1_neg15.jpg,CSUS,False,None,,,,,,,,,,,,,,0,0,0,0,,,,,0,1,1,1,0,50,50,50,,,,,,,,,,,,,,,,,,,,,,,,,,,,,,,,,,,,,,,,,,,,,,,,,,,,,CS1_USneg,None,1,,,,,,,,,,,,,,,,,,46,m,3,n,2019_Apr_05_1027,ec_RRR,3.0.5,74.95823125388698,
moran hussey - pilot,"Voor deze taak, is de target figuur Bergmite:","Dus wanneer wanneer BERGMITE (zijn naam of foto) verschijnt op het scherm, druk dan zo snel mogelijk op de spatiebalk. Druk op de spatiebalk telkens wanneer je een foto van Bergmite of het woord BERGMITE ziet. 

Druk op de spatiebalk om de taak te starten.
",target2,stimuli/t2.jpg,3,52,stimuli/blank.jpg,blank,False,None,,,,,,,,,,,,,,0,0,0,0,,,,,0,1,1,1,0,51,51,51,,,,,,,,,,,,,,,,,,,,,,,,,,,,,,,,,,,,,,,,,,,,,,,,,,,,,CS1_USneg,None,1,,,,,,,,,,,,,,,,,,46,m,3,n,2019_Apr_05_1027,ec_RRR,3.0.5,74.95823125388698,
moran hussey - pilot,"Voor deze taak, is de target figuur Bergmite:","Dus wanneer wanneer BERGMITE (zijn naam of foto) verschijnt op het scherm, druk dan zo snel mogelijk op de spatiebalk. Druk op de spatiebalk telkens wanneer je een foto van Bergmite of het woord BERGMITE ziet. 

Druk op de spatiebalk om de taak te starten.
",target2,stimuli/t2.jpg,3,53,stimuli/filler19.jpg,filler,False,None,,,,,,,,,,,,,,0,0,0,0,,,,,0,1,1,1,0,52,52,52,,,,,,,,,,,,,,,,,,,,,,,,,,,,,,,,,,,,,,,,,,,,,,,,,,,,,CS1_USneg,None,1,,,,,,,,,,,,,,,,,,46,m,3,n,2019_Apr_05_1027,ec_RRR,3.0.5,74.95823125388698,
moran hussey - pilot,"Voor deze taak, is de target figuur Bergmite:","Dus wanneer wanneer BERGMITE (zijn naam of foto) verschijnt op het scherm, druk dan zo snel mogelijk op de spatiebalk. Druk op de spatiebalk telkens wanneer je een foto van Bergmite of het woord BERGMITE ziet. 

Druk op de spatiebalk om de taak te starten.
",target2,stimuli/t2.jpg,3,54,stimuli/target2_3.jpg,target,True,space,,,,,,,,,,,,,,0,0,0,0,,,,,0,1,1,1,0,53,53,53,,,,,,,,,,,,,,,,,,,,,,,,,,,,,,,,,,,,,,,,,,,,,,,,,,,,,CS1_USneg,space,1,0.3738709658791777,,,,,,,,,,,,,,,,,46,m,3,n,2019_Apr_05_1027,ec_RRR,3.0.5,74.95823125388698,
moran hussey - pilot,"Voor deze taak, is de target figuur Bergmite:","Dus wanneer wanneer BERGMITE (zijn naam of foto) verschijnt op het scherm, druk dan zo snel mogelijk op de spatiebalk. Druk op de spatiebalk telkens wanneer je een foto van Bergmite of het woord BERGMITE ziet. 

Druk op de spatiebalk om de taak te starten.
",target2,stimuli/t2.jpg,3,55,stimuli/filler6.jpg,filler,False,None,,,,,,,,,,,,,,0,0,0,0,,,,,0,1,1,1,0,54,54,54,,,,,,,,,,,,,,,,,,,,,,,,,,,,,,,,,,,,,,,,,,,,,,,,,,,,,CS1_USneg,None,1,,,,,,,,,,,,,,,,,,46,m,3,n,2019_Apr_05_1027,ec_RRR,3.0.5,74.95823125388698,
moran hussey - pilot,"Voor deze taak, is de target figuur Bergmite:","Dus wanneer wanneer BERGMITE (zijn naam of foto) verschijnt op het scherm, druk dan zo snel mogelijk op de spatiebalk. Druk op de spatiebalk telkens wanneer je een foto van Bergmite of het woord BERGMITE ziet. 

Druk op de spatiebalk om de taak te starten.
",target2,stimuli/t2.jpg,3,56,stimuli/target2_2.jpg,target,True,space,,,,,,,,,,,,,,0,0,0,0,,,,,0,1,1,1,0,55,55,55,,,,,,,,,,,,,,,,,,,,,,,,,,,,,,,,,,,,,,,,,,,,,,,,,,,,,CS1_USneg,space,1,0.5447327139263507,,,,,,,,,,,,,,,,,46,m,3,n,2019_Apr_05_1027,ec_RRR,3.0.5,74.95823125388698,
moran hussey - pilot,"Voor deze taak, is de target figuur Bergmite:","Dus wanneer wanneer BERGMITE (zijn naam of foto) verschijnt op het scherm, druk dan zo snel mogelijk op de spatiebalk. Druk op de spatiebalk telkens wanneer je een foto van Bergmite of het woord BERGMITE ziet. 

Druk op de spatiebalk om de taak te starten.
",target2,stimuli/t2.jpg,3,57,stimuli/filler9.jpg,filler,False,None,,,,,,,,,,,,,,0,0,0,0,,,,,0,1,1,1,0,56,56,56,,,,,,,,,,,,,,,,,,,,,,,,,,,,,,,,,,,,,,,,,,,,,,,,,,,,,CS1_USneg,None,1,,,,,,,,,,,,,,,,,,46,m,3,n,2019_Apr_05_1027,ec_RRR,3.0.5,74.95823125388698,
moran hussey - pilot,"Voor deze taak, is de target figuur Bergmite:","Dus wanneer wanneer BERGMITE (zijn naam of foto) verschijnt op het scherm, druk dan zo snel mogelijk op de spatiebalk. Druk op de spatiebalk telkens wanneer je een foto van Bergmite of het woord BERGMITE ziet. 

Druk op de spatiebalk om de taak te starten.
",target2,stimuli/t2.jpg,3,58,stimuli/filler26.jpg,filler,False,None,,,,,,,,,,,,,,0,0,0,0,,,,,0,1,1,1,0,57,57,57,,,,,,,,,,,,,,,,,,,,,,,,,,,,,,,,,,,,,,,,,,,,,,,,,,,,,CS1_USneg,None,1,,,,,,,,,,,,,,,,,,46,m,3,n,2019_Apr_05_1027,ec_RRR,3.0.5,74.95823125388698,
moran hussey - pilot,"Voor deze taak, is de target figuur Bergmite:","Dus wanneer wanneer BERGMITE (zijn naam of foto) verschijnt op het scherm, druk dan zo snel mogelijk op de spatiebalk. Druk op de spatiebalk telkens wanneer je een foto van Bergmite of het woord BERGMITE ziet. 

Druk op de spatiebalk om de taak te starten.
",target2,stimuli/t2.jpg,3,59,stimuli/filler2.jpg,filler,False,None,,,,,,,,,,,,,,0,0,0,0,,,,,0,1,1,1,0,58,58,58,,,,,,,,,,,,,,,,,,,,,,,,,,,,,,,,,,,,,,,,,,,,,,,,,,,,,CS1_USneg,None,1,,,,,,,,,,,,,,,,,,46,m,3,n,2019_Apr_05_1027,ec_RRR,3.0.5,74.95823125388698,
moran hussey - pilot,"Voor deze taak, is de target figuur Bergmite:","Dus wanneer wanneer BERGMITE (zijn naam of foto) verschijnt op het scherm, druk dan zo snel mogelijk op de spatiebalk. Druk op de spatiebalk telkens wanneer je een foto van Bergmite of het woord BERGMITE ziet. 

Druk op de spatiebalk om de taak te starten.
",target2,stimuli/t2.jpg,3,60,stimuli/blank.jpg,blank,False,None,,,,,,,,,,,,,,0,0,0,0,,,,,0,1,1,1,0,59,59,59,,,,,,,,,,,,,,,,,,,,,,,,,,,,,,,,,,,,,,,,,,,,,,,,,,,,,CS1_USneg,None,1,,,,,,,,,,,,,,,,,,46,m,3,n,2019_Apr_05_1027,ec_RRR,3.0.5,74.95823125388698,
moran hussey - pilot,"Voor deze taak, is de target figuur Bergmite:","Dus wanneer wanneer BERGMITE (zijn naam of foto) verschijnt op het scherm, druk dan zo snel mogelijk op de spatiebalk. Druk op de spatiebalk telkens wanneer je een foto van Bergmite of het woord BERGMITE ziet. 

Druk op de spatiebalk om de taak te starten.
",target2,stimuli/t2.jpg,3,61,stimuli/cs2_pos14.jpg,CSUS,False,None,,,,,,,,,,,,,,0,0,0,0,,,,,0,1,1,1,0,60,60,60,,,,,,,,,,,,,,,,,,,,,,,,,,,,,,,,,,,,,,,,,,,,,,,,,,,,,CS1_USneg,None,1,,,,,,,,,,,,,,,,,,46,m,3,n,2019_Apr_05_1027,ec_RRR,3.0.5,74.95823125388698,
moran hussey - pilot,"Voor deze taak, is de target figuur Bergmite:","Dus wanneer wanneer BERGMITE (zijn naam of foto) verschijnt op het scherm, druk dan zo snel mogelijk op de spatiebalk. Druk op de spatiebalk telkens wanneer je een foto van Bergmite of het woord BERGMITE ziet. 

Druk op de spatiebalk om de taak te starten.
",target2,stimuli/t2.jpg,3,62,stimuli/blank.jpg,blank,False,None,,,,,,,,,,,,,,0,0,0,0,,,,,0,1,1,1,0,61,61,61,,,,,,,,,,,,,,,,,,,,,,,,,,,,,,,,,,,,,,,,,,,,,,,,,,,,,CS1_USneg,None,1,,,,,,,,,,,,,,,,,,46,m,3,n,2019_Apr_05_1027,ec_RRR,3.0.5,74.95823125388698,
moran hussey - pilot,"Voor deze taak, is de target figuur Bergmite:","Dus wanneer wanneer BERGMITE (zijn naam of foto) verschijnt op het scherm, druk dan zo snel mogelijk op de spatiebalk. Druk op de spatiebalk telkens wanneer je een foto van Bergmite of het woord BERGMITE ziet. 

Druk op de spatiebalk om de taak te starten.
",target2,stimuli/t2.jpg,3,63,stimuli/filler49.jpg,filler,False,None,,,,,,,,,,,,,,0,0,0,0,,,,,0,1,1,1,0,62,62,62,,,,,,,,,,,,,,,,,,,,,,,,,,,,,,,,,,,,,,,,,,,,,,,,,,,,,CS1_USneg,None,1,,,,,,,,,,,,,,,,,,46,m,3,n,2019_Apr_05_1027,ec_RRR,3.0.5,74.95823125388698,
moran hussey - pilot,"Voor deze taak, is de target figuur Bergmite:","Dus wanneer wanneer BERGMITE (zijn naam of foto) verschijnt op het scherm, druk dan zo snel mogelijk op de spatiebalk. Druk op de spatiebalk telkens wanneer je een foto van Bergmite of het woord BERGMITE ziet. 

Druk op de spatiebalk om de taak te starten.
",target2,stimuli/t2.jpg,3,64,stimuli/filler27.jpg,filler,False,None,,,,,,,,,,,,,,0,0,0,0,,,,,0,1,1,1,0,63,63,63,,,,,,,,,,,,,,,,,,,,,,,,,,,,,,,,,,,,,,,,,,,,,,,,,,,,,CS1_USneg,None,1,,,,,,,,,,,,,,,,,,46,m,3,n,2019_Apr_05_1027,ec_RRR,3.0.5,74.95823125388698,
moran hussey - pilot,"Voor deze taak, is de target figuur Bergmite:","Dus wanneer wanneer BERGMITE (zijn naam of foto) verschijnt op het scherm, druk dan zo snel mogelijk op de spatiebalk. Druk op de spatiebalk telkens wanneer je een foto van Bergmite of het woord BERGMITE ziet. 

Druk op de spatiebalk om de taak te starten.
",target2,stimuli/t2.jpg,3,65,stimuli/filler11.jpg,filler,False,None,,,,,,,,,,,,,,0,0,0,0,,,,,0,1,1,1,0,64,64,64,,,,,,,,,,,,,,,,,,,,,,,,,,,,,,,,,,,,,,,,,,,,,,,,,,,,,CS1_USneg,None,1,,,,,,,,,,,,,,,,,,46,m,3,n,2019_Apr_05_1027,ec_RRR,3.0.5,74.95823125388698,
moran hussey - pilot,"Voor deze taak, is de target figuur Bergmite:","Dus wanneer wanneer BERGMITE (zijn naam of foto) verschijnt op het scherm, druk dan zo snel mogelijk op de spatiebalk. Druk op de spatiebalk telkens wanneer je een foto van Bergmite of het woord BERGMITE ziet. 

Druk op de spatiebalk om de taak te starten.
",target2,stimuli/t2.jpg,3,66,stimuli/filler22.jpg,filler,False,None,,,,,,,,,,,,,,0,0,0,0,,,,,0,1,1,1,0,65,65,65,,,,,,,,,,,,,,,,,,,,,,,,,,,,,,,,,,,,,,,,,,,,,,,,,,,,,CS1_USneg,None,1,,,,,,,,,,,,,,,,,,46,m,3,n,2019_Apr_05_1027,ec_RRR,3.0.5,74.95823125388698,
moran hussey - pilot,"Voor deze taak, is de target figuur Bergmite:","Dus wanneer wanneer BERGMITE (zijn naam of foto) verschijnt op het scherm, druk dan zo snel mogelijk op de spatiebalk. Druk op de spatiebalk telkens wanneer je een foto van Bergmite of het woord BERGMITE ziet. 

Druk op de spatiebalk om de taak te starten.
",target2,stimuli/t2.jpg,3,67,stimuli/filler20.jpg,filler,False,None,,,,,,,,,,,,,,0,0,0,0,,,,,0,1,1,1,0,66,66,66,,,,,,,,,,,,,,,,,,,,,,,,,,,,,,,,,,,,,,,,,,,,,,,,,,,,,CS1_USneg,None,1,,,,,,,,,,,,,,,,,,46,m,3,n,2019_Apr_05_1027,ec_RRR,3.0.5,74.95823125388698,
moran hussey - pilot,"Voor deze taak, is de target figuur Bergmite:","Dus wanneer wanneer BERGMITE (zijn naam of foto) verschijnt op het scherm, druk dan zo snel mogelijk op de spatiebalk. Druk op de spatiebalk telkens wanneer je een foto van Bergmite of het woord BERGMITE ziet. 

Druk op de spatiebalk om de taak te starten.
",target2,stimuli/t2.jpg,3,68,stimuli/filler30.jpg,filler,False,None,,,,,,,,,,,,,,0,0,0,0,,,,,0,1,1,1,0,67,67,67,,,,,,,,,,,,,,,,,,,,,,,,,,,,,,,,,,,,,,,,,,,,,,,,,,,,,CS1_USneg,None,1,,,,,,,,,,,,,,,,,,46,m,3,n,2019_Apr_05_1027,ec_RRR,3.0.5,74.95823125388698,
moran hussey - pilot,"Voor deze taak, is de target figuur Bergmite:","Dus wanneer wanneer BERGMITE (zijn naam of foto) verschijnt op het scherm, druk dan zo snel mogelijk op de spatiebalk. Druk op de spatiebalk telkens wanneer je een foto van Bergmite of het woord BERGMITE ziet. 

Druk op de spatiebalk om de taak te starten.
",target2,stimuli/t2.jpg,3,69,stimuli/filler38.jpg,filler,False,None,,,,,,,,,,,,,,0,0,0,0,,,,,0,1,1,1,0,68,68,68,,,,,,,,,,,,,,,,,,,,,,,,,,,,,,,,,,,,,,,,,,,,,,,,,,,,,CS1_USneg,None,1,,,,,,,,,,,,,,,,,,46,m,3,n,2019_Apr_05_1027,ec_RRR,3.0.5,74.95823125388698,
moran hussey - pilot,"Voor deze taak, is de target figuur Bergmite:","Dus wanneer wanneer BERGMITE (zijn naam of foto) verschijnt op het scherm, druk dan zo snel mogelijk op de spatiebalk. Druk op de spatiebalk telkens wanneer je een foto van Bergmite of het woord BERGMITE ziet. 

Druk op de spatiebalk om de taak te starten.
",target2,stimuli/t2.jpg,3,70,stimuli/blank.jpg,blank,False,None,,,,,,,,,,,,,,0,0,0,0,,,,,0,1,1,1,0,69,69,69,,,,,,,,,,,,,,,,,,,,,,,,,,,,,,,,,,,,,,,,,,,,,,,,,,,,,CS1_USneg,None,1,,,,,,,,,,,,,,,,,,46,m,3,n,2019_Apr_05_1027,ec_RRR,3.0.5,74.95823125388698,
moran hussey - pilot,"Voor deze taak, is de target figuur Bergmite:","Dus wanneer wanneer BERGMITE (zijn naam of foto) verschijnt op het scherm, druk dan zo snel mogelijk op de spatiebalk. Druk op de spatiebalk telkens wanneer je een foto van Bergmite of het woord BERGMITE ziet. 

Druk op de spatiebalk om de taak te starten.
",target2,stimuli/t2.jpg,3,71,stimuli/cs1_neg4.jpg,CSUS,False,None,,,,,,,,,,,,,,0,0,0,0,,,,,0,1,1,1,0,70,70,70,,,,,,,,,,,,,,,,,,,,,,,,,,,,,,,,,,,,,,,,,,,,,,,,,,,,,CS1_USneg,None,1,,,,,,,,,,,,,,,,,,46,m,3,n,2019_Apr_05_1027,ec_RRR,3.0.5,74.95823125388698,
moran hussey - pilot,"Voor deze taak, is de target figuur Bergmite:","Dus wanneer wanneer BERGMITE (zijn naam of foto) verschijnt op het scherm, druk dan zo snel mogelijk op de spatiebalk. Druk op de spatiebalk telkens wanneer je een foto van Bergmite of het woord BERGMITE ziet. 

Druk op de spatiebalk om de taak te starten.
",target2,stimuli/t2.jpg,3,72,stimuli/blank.jpg,blank,False,None,,,,,,,,,,,,,,0,0,0,0,,,,,0,1,1,1,0,71,71,71,,,,,,,,,,,,,,,,,,,,,,,,,,,,,,,,,,,,,,,,,,,,,,,,,,,,,CS1_USneg,None,1,,,,,,,,,,,,,,,,,,46,m,3,n,2019_Apr_05_1027,ec_RRR,3.0.5,74.95823125388698,
moran hussey - pilot,"Voor deze taak, is de target figuur Bergmite:","Dus wanneer wanneer BERGMITE (zijn naam of foto) verschijnt op het scherm, druk dan zo snel mogelijk op de spatiebalk. Druk op de spatiebalk telkens wanneer je een foto van Bergmite of het woord BERGMITE ziet. 

Druk op de spatiebalk om de taak te starten.
",target2,stimuli/t2.jpg,3,73,stimuli/filler29.jpg,filler,False,None,,,,,,,,,,,,,,0,0,0,0,,,,,0,1,1,1,0,72,72,72,,,,,,,,,,,,,,,,,,,,,,,,,,,,,,,,,,,,,,,,,,,,,,,,,,,,,CS1_USneg,None,1,,,,,,,,,,,,,,,,,,46,m,3,n,2019_Apr_05_1027,ec_RRR,3.0.5,74.95823125388698,
moran hussey - pilot,"Voor deze taak, is de target figuur Bergmite:","Dus wanneer wanneer BERGMITE (zijn naam of foto) verschijnt op het scherm, druk dan zo snel mogelijk op de spatiebalk. Druk op de spatiebalk telkens wanneer je een foto van Bergmite of het woord BERGMITE ziet. 

Druk op de spatiebalk om de taak te starten.
",target2,stimuli/t2.jpg,3,74,stimuli/target2_5.jpg,target,True,space,,,,,,,,,,,,,,0,0,0,0,,,,,0,1,1,1,0,73,73,73,,,,,,,,,,,,,,,,,,,,,,,,,,,,,,,,,,,,,,,,,,,,,,,,,,,,,CS1_USneg,space,1,0.7065956803853624,,,,,,,,,,,,,,,,,46,m,3,n,2019_Apr_05_1027,ec_RRR,3.0.5,74.95823125388698,
moran hussey - pilot,"Voor deze taak, is de target figuur Bergmite:","Dus wanneer wanneer BERGMITE (zijn naam of foto) verschijnt op het scherm, druk dan zo snel mogelijk op de spatiebalk. Druk op de spatiebalk telkens wanneer je een foto van Bergmite of het woord BERGMITE ziet. 

Druk op de spatiebalk om de taak te starten.
",target2,stimuli/t2.jpg,3,75,stimuli/filler25.jpg,filler,False,None,,,,,,,,,,,,,,0,0,0,0,,,,,0,1,1,1,0,74,74,74,,,,,,,,,,,,,,,,,,,,,,,,,,,,,,,,,,,,,,,,,,,,,,,,,,,,,CS1_USneg,None,1,,,,,,,,,,,,,,,,,,46,m,3,n,2019_Apr_05_1027,ec_RRR,3.0.5,74.95823125388698,
moran hussey - pilot,"Voor deze taak, is de target figuur Bergmite:","Dus wanneer wanneer BERGMITE (zijn naam of foto) verschijnt op het scherm, druk dan zo snel mogelijk op de spatiebalk. Druk op de spatiebalk telkens wanneer je een foto van Bergmite of het woord BERGMITE ziet. 

Druk op de spatiebalk om de taak te starten.
",target2,stimuli/t2.jpg,3,76,stimuli/target2_6.jpg,target,True,space,,,,,,,,,,,,,,0,0,0,0,,,,,0,1,1,1,0,75,75,75,,,,,,,,,,,,,,,,,,,,,,,,,,,,,,,,,,,,,,,,,,,,,,,,,,,,,CS1_USneg,space,1,0.6941265010973439,,,,,,,,,,,,,,,,,46,m,3,n,2019_Apr_05_1027,ec_RRR,3.0.5,74.95823125388698,
moran hussey - pilot,"Voor deze taak, is de target figuur Bergmite:","Dus wanneer wanneer BERGMITE (zijn naam of foto) verschijnt op het scherm, druk dan zo snel mogelijk op de spatiebalk. Druk op de spatiebalk telkens wanneer je een foto van Bergmite of het woord BERGMITE ziet. 

Druk op de spatiebalk om de taak te starten.
",target2,stimuli/t2.jpg,3,77,stimuli/filler45.jpg,filler,False,None,,,,,,,,,,,,,,0,0,0,0,,,,,0,1,1,1,0,76,76,76,,,,,,,,,,,,,,,,,,,,,,,,,,,,,,,,,,,,,,,,,,,,,,,,,,,,,CS1_USneg,None,1,,,,,,,,,,,,,,,,,,46,m,3,n,2019_Apr_05_1027,ec_RRR,3.0.5,74.95823125388698,
moran hussey - pilot,"Voor deze taak, is de target figuur Bergmite:","Dus wanneer wanneer BERGMITE (zijn naam of foto) verschijnt op het scherm, druk dan zo snel mogelijk op de spatiebalk. Druk op de spatiebalk telkens wanneer je een foto van Bergmite of het woord BERGMITE ziet. 

Druk op de spatiebalk om de taak te starten.
",target2,stimuli/t2.jpg,3,78,stimuli/filler46.jpg,filler,False,None,,,,,,,,,,,,,,0,0,0,0,,,,,0,1,1,1,0,77,77,77,,,,,,,,,,,,,,,,,,,,,,,,,,,,,,,,,,,,,,,,,,,,,,,,,,,,,CS1_USneg,None,1,,,,,,,,,,,,,,,,,,46,m,3,n,2019_Apr_05_1027,ec_RRR,3.0.5,74.95823125388698,
moran hussey - pilot,"Voor deze taak, is de target figuur Bergmite:","Dus wanneer wanneer BERGMITE (zijn naam of foto) verschijnt op het scherm, druk dan zo snel mogelijk op de spatiebalk. Druk op de spatiebalk telkens wanneer je een foto van Bergmite of het woord BERGMITE ziet. 

Druk op de spatiebalk om de taak te starten.
",target2,stimuli/t2.jpg,3,79,stimuli/filler52.jpg,filler,False,None,,,,,,,,,,,,,,0,0,0,0,,,,,0,1,1,1,0,78,78,78,,,,,,,,,,,,,,,,,,,,,,,,,,,,,,,,,,,,,,,,,,,,,,,,,,,,,CS1_USneg,None,1,,,,,,,,,,,,,,,,,,46,m,3,n,2019_Apr_05_1027,ec_RRR,3.0.5,74.95823125388698,
moran hussey - pilot,"Voor deze taak, is de target figuur Bergmite:","Dus wanneer wanneer BERGMITE (zijn naam of foto) verschijnt op het scherm, druk dan zo snel mogelijk op de spatiebalk. Druk op de spatiebalk telkens wanneer je een foto van Bergmite of het woord BERGMITE ziet. 

Druk op de spatiebalk om de taak te starten.
",target2,stimuli/t2.jpg,3,80,stimuli/blank.jpg,blank,False,None,,,,,,,,,,,,,,0,0,0,0,,,,,0,1,1,1,0,79,79,79,,,,,,,,,,,,,,,,,,,,,,,,,,,,,,,,,,,,,,,,,,,,,,,,,,,,,CS1_USneg,None,1,,,,,,,,,,,,,,,,,,46,m,3,n,2019_Apr_05_1027,ec_RRR,3.0.5,74.95823125388698,
moran hussey - pilot,"Voor deze taak, is de target figuur Bergmite:","Dus wanneer wanneer BERGMITE (zijn naam of foto) verschijnt op het scherm, druk dan zo snel mogelijk op de spatiebalk. Druk op de spatiebalk telkens wanneer je een foto van Bergmite of het woord BERGMITE ziet. 

Druk op de spatiebalk om de taak te starten.
",target2,stimuli/t2.jpg,3,81,stimuli/cs2_pos8.jpg,CSUS,False,None,,,,,,,,,,,,,,0,0,0,0,,,,,0,1,1,1,0,80,80,80,,,,,,,,,,,,,,,,,,,,,,,,,,,,,,,,,,,,,,,,,,,,,,,,,,,,,CS1_USneg,None,1,,,,,,,,,,,,,,,,,,46,m,3,n,2019_Apr_05_1027,ec_RRR,3.0.5,74.95823125388698,
moran hussey - pilot,"Voor deze taak, is de target figuur Bergmite:","Dus wanneer wanneer BERGMITE (zijn naam of foto) verschijnt op het scherm, druk dan zo snel mogelijk op de spatiebalk. Druk op de spatiebalk telkens wanneer je een foto van Bergmite of het woord BERGMITE ziet. 

Druk op de spatiebalk om de taak te starten.
",target2,stimuli/t2.jpg,3,82,stimuli/blank.jpg,blank,False,None,,,,,,,,,,,,,,0,0,0,0,,,,,0,1,1,1,0,81,81,81,,,,,,,,,,,,,,,,,,,,,,,,,,,,,,,,,,,,,,,,,,,,,,,,,,,,,CS1_USneg,None,1,,,,,,,,,,,,,,,,,,46,m,3,n,2019_Apr_05_1027,ec_RRR,3.0.5,74.95823125388698,
moran hussey - pilot,"Voor deze taak, is de target figuur Bergmite:","Dus wanneer wanneer BERGMITE (zijn naam of foto) verschijnt op het scherm, druk dan zo snel mogelijk op de spatiebalk. Druk op de spatiebalk telkens wanneer je een foto van Bergmite of het woord BERGMITE ziet. 

Druk op de spatiebalk om de taak te starten.
",target2,stimuli/t2.jpg,3,83,stimuli/filler36.jpg,filler,False,None,,,,,,,,,,,,,,0,0,0,0,,,,,0,1,1,1,0,82,82,82,,,,,,,,,,,,,,,,,,,,,,,,,,,,,,,,,,,,,,,,,,,,,,,,,,,,,CS1_USneg,None,1,,,,,,,,,,,,,,,,,,46,m,3,n,2019_Apr_05_1027,ec_RRR,3.0.5,74.95823125388698,
