data_collection_site,instructions_text_top,instructions_text_bottom,block_id,example_image,participant,trial_number,stimulus,trial_type,target_trial,surveillance_correct_response,filler_1_items,filler_2_items,middle_text,left_text,right_text,evaluation_stimulus,left_stimulus,right_stimulus,evaluation_response_indicating_CS1_preferred,awareness_1_question_text,awareness_2a_question_text,awareness_2b_question_text,awareness_2_question_text,record_data_collection_site_variable.thisRepN,record_data_collection_site_variable.thisTrialN,record_data_collection_site_variable.thisN,record_data_collection_site_variable.thisIndex,surveillance_instructions_loop.thisRepN,surveillance_instructions_loop.thisTrialN,surveillance_instructions_loop.thisN,surveillance_instructions_loop.thisIndex,surveillance_blocks_loop.thisRepN,surveillance_blocks_loop.thisTrialN,surveillance_blocks_loop.thisN,surveillance_blocks_loop.thisIndex,surveillance_trials_loop.thisRepN,surveillance_trials_loop.thisTrialN,surveillance_trials_loop.thisN,surveillance_trials_loop.thisIndex,filler_1_instructions_loop.thisRepN,filler_1_instructions_loop.thisTrialN,filler_1_instructions_loop.thisN,filler_1_instructions_loop.thisIndex,filler_1_loop.thisRepN,filler_1_loop.thisTrialN,filler_1_loop.thisN,filler_1_loop.thisIndex,filler_2_instructions_loop.thisRepN,filler_2_instructions_loop.thisTrialN,filler_2_instructions_loop.thisN,filler_2_instructions_loop.thisIndex,filler_2_loop.thisRepN,filler_2_loop.thisTrialN,filler_2_loop.thisN,filler_2_loop.thisIndex,evaluation_instructions_loop.thisRepN,evaluation_instructions_loop.thisTrialN,evaluation_instructions_loop.thisN,evaluation_instructions_loop.thisIndex,evaluation_loop.thisRepN,evaluation_loop.thisTrialN,evaluation_loop.thisN,evaluation_loop.thisIndex,evaluation_trials.thisRepN,evaluation_trials.thisTrialN,evaluation_trials.thisN,evaluation_trials.thisIndex,awareness_instructions_loop.thisRepN,awareness_instructions_loop.thisTrialN,awareness_instructions_loop.thisN,awareness_instructions_loop.thisIndex,awareness_1_trials_loop.thisRepN,awareness_1_trials_loop.thisTrialN,awareness_1_trials_loop.thisN,awareness_1_trials_loop.thisIndex,awareness_2a_trials_loop.thisRepN,awareness_2a_trials_loop.thisTrialN,awareness_2a_trials_loop.thisN,awareness_2a_trials_loop.thisIndex,awareness_2b_trials_loop.thisRepN,awareness_2b_trials_loop.thisTrialN,awareness_2b_trials_loop.thisN,awareness_2b_trials_loop.thisIndex,awareness_2c_trials_loop.thisRepN,awareness_2c_trials_loop.thisTrialN,awareness_2c_trials_loop.thisN,awareness_2c_trials_loop.thisIndex,end_message_loop.thisRepN,end_message_loop.thisTrialN,end_message_loop.thisN,end_message_loop.thisIndex,condition,surveillance_response.keys,surveillance_response.corr,surveillance_response.rt,filler_1_rating.response,filler_1_rating.rt,filler_2_rating.response,filler_2_rating.rt,evaluation_response.keys,evaluation_response.corr,evaluation_response.rt,inputText,awareness_1_response.keys,awareness_1_response.rt,awareness_type_2a_rating.response,awareness_type_2a_rating.rt,awareness_type_2b_rating.response,awareness_type_2b_rating.rt,awareness_type_2c_rating.response,awareness_type_2c_rating.rt,age,gender,participant,UseMonkey,date,expName,psychopyVersion,frameRate,
Unkelbach and Hogden,Das Zielwesen für diese Aufgabe ist Cranidos:,"Also sobald Cranidos (sein Name oder sein Bild) auf dem Bildschirm erscheint, drücken Sie so schnell wie möglich die Leertaste. Drücken Sie die Leertaste immer, wenn Sie ein Bild von Cranidos oder das Wort CRANIDOS sehen. 

Drücken Sie die Leertaste, um die Aufgabe zu starten.",target1,stimuli/t1.jpg,32,1,stimuli/filler50.jpg,filler,False,None,,,,,,,,,,,,,,0,0,0,0,,,,,0,0,0,0,0,0,0,0,,,,,,,,,,,,,,,,,,,,,,,,,,,,,,,,,,,,,,,,,,,,,,,,,,,,,CS1_USneg,None,1,,,,,,,,,,,,,,,,,,24,f,32,n,2019_Nov_22_1242,ec_RRR,3.0.4,59.87689196817365,
Unkelbach and Hogden,Das Zielwesen für diese Aufgabe ist Cranidos:,"Also sobald Cranidos (sein Name oder sein Bild) auf dem Bildschirm erscheint, drücken Sie so schnell wie möglich die Leertaste. Drücken Sie die Leertaste immer, wenn Sie ein Bild von Cranidos oder das Wort CRANIDOS sehen. 

Drücken Sie die Leertaste, um die Aufgabe zu starten.",target1,stimuli/t1.jpg,32,2,stimuli/filler24.jpg,filler,False,None,,,,,,,,,,,,,,0,0,0,0,,,,,0,0,0,0,0,1,1,1,,,,,,,,,,,,,,,,,,,,,,,,,,,,,,,,,,,,,,,,,,,,,,,,,,,,,CS1_USneg,None,1,,,,,,,,,,,,,,,,,,24,f,32,n,2019_Nov_22_1242,ec_RRR,3.0.4,59.87689196817365,
Unkelbach and Hogden,Das Zielwesen für diese Aufgabe ist Cranidos:,"Also sobald Cranidos (sein Name oder sein Bild) auf dem Bildschirm erscheint, drücken Sie so schnell wie möglich die Leertaste. Drücken Sie die Leertaste immer, wenn Sie ein Bild von Cranidos oder das Wort CRANIDOS sehen. 

Drücken Sie die Leertaste, um die Aufgabe zu starten.",target1,stimuli/t1.jpg,32,3,stimuli/filler30.jpg,filler,False,None,,,,,,,,,,,,,,0,0,0,0,,,,,0,0,0,0,0,2,2,2,,,,,,,,,,,,,,,,,,,,,,,,,,,,,,,,,,,,,,,,,,,,,,,,,,,,,CS1_USneg,None,1,,,,,,,,,,,,,,,,,,24,f,32,n,2019_Nov_22_1242,ec_RRR,3.0.4,59.87689196817365,
Unkelbach and Hogden,Das Zielwesen für diese Aufgabe ist Cranidos:,"Also sobald Cranidos (sein Name oder sein Bild) auf dem Bildschirm erscheint, drücken Sie so schnell wie möglich die Leertaste. Drücken Sie die Leertaste immer, wenn Sie ein Bild von Cranidos oder das Wort CRANIDOS sehen. 

Drücken Sie die Leertaste, um die Aufgabe zu starten.",target1,stimuli/t1.jpg,32,4,stimuli/filler29.jpg,filler,False,None,,,,,,,,,,,,,,0,0,0,0,,,,,0,0,0,0,0,3,3,3,,,,,,,,,,,,,,,,,,,,,,,,,,,,,,,,,,,,,,,,,,,,,,,,,,,,,CS1_USneg,None,1,,,,,,,,,,,,,,,,,,24,f,32,n,2019_Nov_22_1242,ec_RRR,3.0.4,59.87689196817365,
Unkelbach and Hogden,Das Zielwesen für diese Aufgabe ist Cranidos:,"Also sobald Cranidos (sein Name oder sein Bild) auf dem Bildschirm erscheint, drücken Sie so schnell wie möglich die Leertaste. Drücken Sie die Leertaste immer, wenn Sie ein Bild von Cranidos oder das Wort CRANIDOS sehen. 

Drücken Sie die Leertaste, um die Aufgabe zu starten.",target1,stimuli/t1.jpg,32,5,stimuli/filler26.jpg,filler,False,None,,,,,,,,,,,,,,0,0,0,0,,,,,0,0,0,0,0,4,4,4,,,,,,,,,,,,,,,,,,,,,,,,,,,,,,,,,,,,,,,,,,,,,,,,,,,,,CS1_USneg,None,1,,,,,,,,,,,,,,,,,,24,f,32,n,2019_Nov_22_1242,ec_RRR,3.0.4,59.87689196817365,
Unkelbach and Hogden,Das Zielwesen für diese Aufgabe ist Cranidos:,"Also sobald Cranidos (sein Name oder sein Bild) auf dem Bildschirm erscheint, drücken Sie so schnell wie möglich die Leertaste. Drücken Sie die Leertaste immer, wenn Sie ein Bild von Cranidos oder das Wort CRANIDOS sehen. 

Drücken Sie die Leertaste, um die Aufgabe zu starten.",target1,stimuli/t1.jpg,32,6,stimuli/filler51.jpg,filler,False,None,,,,,,,,,,,,,,0,0,0,0,,,,,0,0,0,0,0,5,5,5,,,,,,,,,,,,,,,,,,,,,,,,,,,,,,,,,,,,,,,,,,,,,,,,,,,,,CS1_USneg,None,1,,,,,,,,,,,,,,,,,,24,f,32,n,2019_Nov_22_1242,ec_RRR,3.0.4,59.87689196817365,
Unkelbach and Hogden,Das Zielwesen für diese Aufgabe ist Cranidos:,"Also sobald Cranidos (sein Name oder sein Bild) auf dem Bildschirm erscheint, drücken Sie so schnell wie möglich die Leertaste. Drücken Sie die Leertaste immer, wenn Sie ein Bild von Cranidos oder das Wort CRANIDOS sehen. 

Drücken Sie die Leertaste, um die Aufgabe zu starten.",target1,stimuli/t1.jpg,32,7,stimuli/target1_8.jpg,target,True,space,,,,,,,,,,,,,,0,0,0,0,,,,,0,0,0,0,0,6,6,6,,,,,,,,,,,,,,,,,,,,,,,,,,,,,,,,,,,,,,,,,,,,,,,,,,,,,CS1_USneg,space,1,0.47283041981245333,,,,,,,,,,,,,,,,,24,f,32,n,2019_Nov_22_1242,ec_RRR,3.0.4,59.87689196817365,
Unkelbach and Hogden,Das Zielwesen für diese Aufgabe ist Cranidos:,"Also sobald Cranidos (sein Name oder sein Bild) auf dem Bildschirm erscheint, drücken Sie so schnell wie möglich die Leertaste. Drücken Sie die Leertaste immer, wenn Sie ein Bild von Cranidos oder das Wort CRANIDOS sehen. 

Drücken Sie die Leertaste, um die Aufgabe zu starten.",target1,stimuli/t1.jpg,32,8,stimuli/filler41.jpg,filler,False,None,,,,,,,,,,,,,,0,0,0,0,,,,,0,0,0,0,0,7,7,7,,,,,,,,,,,,,,,,,,,,,,,,,,,,,,,,,,,,,,,,,,,,,,,,,,,,,CS1_USneg,None,1,,,,,,,,,,,,,,,,,,24,f,32,n,2019_Nov_22_1242,ec_RRR,3.0.4,59.87689196817365,
Unkelbach and Hogden,Das Zielwesen für diese Aufgabe ist Cranidos:,"Also sobald Cranidos (sein Name oder sein Bild) auf dem Bildschirm erscheint, drücken Sie so schnell wie möglich die Leertaste. Drücken Sie die Leertaste immer, wenn Sie ein Bild von Cranidos oder das Wort CRANIDOS sehen. 

Drücken Sie die Leertaste, um die Aufgabe zu starten.",target1,stimuli/t1.jpg,32,9,stimuli/filler52.jpg,filler,False,None,,,,,,,,,,,,,,0,0,0,0,,,,,0,0,0,0,0,8,8,8,,,,,,,,,,,,,,,,,,,,,,,,,,,,,,,,,,,,,,,,,,,,,,,,,,,,,CS1_USneg,None,1,,,,,,,,,,,,,,,,,,24,f,32,n,2019_Nov_22_1242,ec_RRR,3.0.4,59.87689196817365,
Unkelbach and Hogden,Das Zielwesen für diese Aufgabe ist Cranidos:,"Also sobald Cranidos (sein Name oder sein Bild) auf dem Bildschirm erscheint, drücken Sie so schnell wie möglich die Leertaste. Drücken Sie die Leertaste immer, wenn Sie ein Bild von Cranidos oder das Wort CRANIDOS sehen. 

Drücken Sie die Leertaste, um die Aufgabe zu starten.",target1,stimuli/t1.jpg,32,10,stimuli/blank.jpg,blank,False,None,,,,,,,,,,,,,,0,0,0,0,,,,,0,0,0,0,0,9,9,9,,,,,,,,,,,,,,,,,,,,,,,,,,,,,,,,,,,,,,,,,,,,,,,,,,,,,CS1_USneg,None,1,,,,,,,,,,,,,,,,,,24,f,32,n,2019_Nov_22_1242,ec_RRR,3.0.4,59.87689196817365,
Unkelbach and Hogden,Das Zielwesen für diese Aufgabe ist Cranidos:,"Also sobald Cranidos (sein Name oder sein Bild) auf dem Bildschirm erscheint, drücken Sie so schnell wie möglich die Leertaste. Drücken Sie die Leertaste immer, wenn Sie ein Bild von Cranidos oder das Wort CRANIDOS sehen. 

Drücken Sie die Leertaste, um die Aufgabe zu starten.",target1,stimuli/t1.jpg,32,11,stimuli/cs1_neg20.jpg,CSUS,False,None,,,,,,,,,,,,,,0,0,0,0,,,,,0,0,0,0,0,10,10,10,,,,,,,,,,,,,,,,,,,,,,,,,,,,,,,,,,,,,,,,,,,,,,,,,,,,,CS1_USneg,None,1,,,,,,,,,,,,,,,,,,24,f,32,n,2019_Nov_22_1242,ec_RRR,3.0.4,59.87689196817365,
Unkelbach and Hogden,Das Zielwesen für diese Aufgabe ist Cranidos:,"Also sobald Cranidos (sein Name oder sein Bild) auf dem Bildschirm erscheint, drücken Sie so schnell wie möglich die Leertaste. Drücken Sie die Leertaste immer, wenn Sie ein Bild von Cranidos oder das Wort CRANIDOS sehen. 

Drücken Sie die Leertaste, um die Aufgabe zu starten.",target1,stimuli/t1.jpg,32,12,stimuli/blank.jpg,blank,False,None,,,,,,,,,,,,,,0,0,0,0,,,,,0,0,0,0,0,11,11,11,,,,,,,,,,,,,,,,,,,,,,,,,,,,,,,,,,,,,,,,,,,,,,,,,,,,,CS1_USneg,None,1,,,,,,,,,,,,,,,,,,24,f,32,n,2019_Nov_22_1242,ec_RRR,3.0.4,59.87689196817365,
Unkelbach and Hogden,Das Zielwesen für diese Aufgabe ist Cranidos:,"Also sobald Cranidos (sein Name oder sein Bild) auf dem Bildschirm erscheint, drücken Sie so schnell wie möglich die Leertaste. Drücken Sie die Leertaste immer, wenn Sie ein Bild von Cranidos oder das Wort CRANIDOS sehen. 

Drücken Sie die Leertaste, um die Aufgabe zu starten.",target1,stimuli/t1.jpg,32,13,stimuli/filler20.jpg,filler,False,None,,,,,,,,,,,,,,0,0,0,0,,,,,0,0,0,0,0,12,12,12,,,,,,,,,,,,,,,,,,,,,,,,,,,,,,,,,,,,,,,,,,,,,,,,,,,,,CS1_USneg,None,1,,,,,,,,,,,,,,,,,,24,f,32,n,2019_Nov_22_1242,ec_RRR,3.0.4,59.87689196817365,
Unkelbach and Hogden,Das Zielwesen für diese Aufgabe ist Cranidos:,"Also sobald Cranidos (sein Name oder sein Bild) auf dem Bildschirm erscheint, drücken Sie so schnell wie möglich die Leertaste. Drücken Sie die Leertaste immer, wenn Sie ein Bild von Cranidos oder das Wort CRANIDOS sehen. 

Drücken Sie die Leertaste, um die Aufgabe zu starten.",target1,stimuli/t1.jpg,32,14,stimuli/filler18.jpg,filler,False,None,,,,,,,,,,,,,,0,0,0,0,,,,,0,0,0,0,0,13,13,13,,,,,,,,,,,,,,,,,,,,,,,,,,,,,,,,,,,,,,,,,,,,,,,,,,,,,CS1_USneg,None,1,,,,,,,,,,,,,,,,,,24,f,32,n,2019_Nov_22_1242,ec_RRR,3.0.4,59.87689196817365,
Unkelbach and Hogden,Das Zielwesen für diese Aufgabe ist Cranidos:,"Also sobald Cranidos (sein Name oder sein Bild) auf dem Bildschirm erscheint, drücken Sie so schnell wie möglich die Leertaste. Drücken Sie die Leertaste immer, wenn Sie ein Bild von Cranidos oder das Wort CRANIDOS sehen. 

Drücken Sie die Leertaste, um die Aufgabe zu starten.",target1,stimuli/t1.jpg,32,15,stimuli/filler1.jpg,filler,False,None,,,,,,,,,,,,,,0,0,0,0,,,,,0,0,0,0,0,14,14,14,,,,,,,,,,,,,,,,,,,,,,,,,,,,,,,,,,,,,,,,,,,,,,,,,,,,,CS1_USneg,None,1,,,,,,,,,,,,,,,,,,24,f,32,n,2019_Nov_22_1242,ec_RRR,3.0.4,59.87689196817365,
Unkelbach and Hogden,Das Zielwesen für diese Aufgabe ist Cranidos:,"Also sobald Cranidos (sein Name oder sein Bild) auf dem Bildschirm erscheint, drücken Sie so schnell wie möglich die Leertaste. Drücken Sie die Leertaste immer, wenn Sie ein Bild von Cranidos oder das Wort CRANIDOS sehen. 

Drücken Sie die Leertaste, um die Aufgabe zu starten.",target1,stimuli/t1.jpg,32,16,stimuli/filler11.jpg,filler,False,None,,,,,,,,,,,,,,0,0,0,0,,,,,0,0,0,0,0,15,15,15,,,,,,,,,,,,,,,,,,,,,,,,,,,,,,,,,,,,,,,,,,,,,,,,,,,,,CS1_USneg,None,1,,,,,,,,,,,,,,,,,,24,f,32,n,2019_Nov_22_1242,ec_RRR,3.0.4,59.87689196817365,
Unkelbach and Hogden,Das Zielwesen für diese Aufgabe ist Cranidos:,"Also sobald Cranidos (sein Name oder sein Bild) auf dem Bildschirm erscheint, drücken Sie so schnell wie möglich die Leertaste. Drücken Sie die Leertaste immer, wenn Sie ein Bild von Cranidos oder das Wort CRANIDOS sehen. 

Drücken Sie die Leertaste, um die Aufgabe zu starten.",target1,stimuli/t1.jpg,32,17,stimuli/filler7.jpg,filler,False,None,,,,,,,,,,,,,,0,0,0,0,,,,,0,0,0,0,0,16,16,16,,,,,,,,,,,,,,,,,,,,,,,,,,,,,,,,,,,,,,,,,,,,,,,,,,,,,CS1_USneg,None,1,,,,,,,,,,,,,,,,,,24,f,32,n,2019_Nov_22_1242,ec_RRR,3.0.4,59.87689196817365,
Unkelbach and Hogden,Das Zielwesen für diese Aufgabe ist Cranidos:,"Also sobald Cranidos (sein Name oder sein Bild) auf dem Bildschirm erscheint, drücken Sie so schnell wie möglich die Leertaste. Drücken Sie die Leertaste immer, wenn Sie ein Bild von Cranidos oder das Wort CRANIDOS sehen. 

Drücken Sie die Leertaste, um die Aufgabe zu starten.",target1,stimuli/t1.jpg,32,18,stimuli/filler14.jpg,filler,False,None,,,,,,,,,,,,,,0,0,0,0,,,,,0,0,0,0,0,17,17,17,,,,,,,,,,,,,,,,,,,,,,,,,,,,,,,,,,,,,,,,,,,,,,,,,,,,,CS1_USneg,None,1,,,,,,,,,,,,,,,,,,24,f,32,n,2019_Nov_22_1242,ec_RRR,3.0.4,59.87689196817365,
Unkelbach and Hogden,Das Zielwesen für diese Aufgabe ist Cranidos:,"Also sobald Cranidos (sein Name oder sein Bild) auf dem Bildschirm erscheint, drücken Sie so schnell wie möglich die Leertaste. Drücken Sie die Leertaste immer, wenn Sie ein Bild von Cranidos oder das Wort CRANIDOS sehen. 

Drücken Sie die Leertaste, um die Aufgabe zu starten.",target1,stimuli/t1.jpg,32,19,stimuli/filler47.jpg,filler,False,None,,,,,,,,,,,,,,0,0,0,0,,,,,0,0,0,0,0,18,18,18,,,,,,,,,,,,,,,,,,,,,,,,,,,,,,,,,,,,,,,,,,,,,,,,,,,,,CS1_USneg,None,1,,,,,,,,,,,,,,,,,,24,f,32,n,2019_Nov_22_1242,ec_RRR,3.0.4,59.87689196817365,
Unkelbach and Hogden,Das Zielwesen für diese Aufgabe ist Cranidos:,"Also sobald Cranidos (sein Name oder sein Bild) auf dem Bildschirm erscheint, drücken Sie so schnell wie möglich die Leertaste. Drücken Sie die Leertaste immer, wenn Sie ein Bild von Cranidos oder das Wort CRANIDOS sehen. 

Drücken Sie die Leertaste, um die Aufgabe zu starten.",target1,stimuli/t1.jpg,32,20,stimuli/blank.jpg,blank,False,None,,,,,,,,,,,,,,0,0,0,0,,,,,0,0,0,0,0,19,19,19,,,,,,,,,,,,,,,,,,,,,,,,,,,,,,,,,,,,,,,,,,,,,,,,,,,,,CS1_USneg,None,1,,,,,,,,,,,,,,,,,,24,f,32,n,2019_Nov_22_1242,ec_RRR,3.0.4,59.87689196817365,
Unkelbach and Hogden,Das Zielwesen für diese Aufgabe ist Cranidos:,"Also sobald Cranidos (sein Name oder sein Bild) auf dem Bildschirm erscheint, drücken Sie so schnell wie möglich die Leertaste. Drücken Sie die Leertaste immer, wenn Sie ein Bild von Cranidos oder das Wort CRANIDOS sehen. 

Drücken Sie die Leertaste, um die Aufgabe zu starten.",target1,stimuli/t1.jpg,32,21,stimuli/cs2_pos3.jpg,CSUS,False,None,,,,,,,,,,,,,,0,0,0,0,,,,,0,0,0,0,0,20,20,20,,,,,,,,,,,,,,,,,,,,,,,,,,,,,,,,,,,,,,,,,,,,,,,,,,,,,CS1_USneg,None,1,,,,,,,,,,,,,,,,,,24,f,32,n,2019_Nov_22_1242,ec_RRR,3.0.4,59.87689196817365,
Unkelbach and Hogden,Das Zielwesen für diese Aufgabe ist Cranidos:,"Also sobald Cranidos (sein Name oder sein Bild) auf dem Bildschirm erscheint, drücken Sie so schnell wie möglich die Leertaste. Drücken Sie die Leertaste immer, wenn Sie ein Bild von Cranidos oder das Wort CRANIDOS sehen. 

Drücken Sie die Leertaste, um die Aufgabe zu starten.",target1,stimuli/t1.jpg,32,22,stimuli/blank.jpg,blank,False,None,,,,,,,,,,,,,,0,0,0,0,,,,,0,0,0,0,0,21,21,21,,,,,,,,,,,,,,,,,,,,,,,,,,,,,,,,,,,,,,,,,,,,,,,,,,,,,CS1_USneg,None,1,,,,,,,,,,,,,,,,,,24,f,32,n,2019_Nov_22_1242,ec_RRR,3.0.4,59.87689196817365,
Unkelbach and Hogden,Das Zielwesen für diese Aufgabe ist Cranidos:,"Also sobald Cranidos (sein Name oder sein Bild) auf dem Bildschirm erscheint, drücken Sie so schnell wie möglich die Leertaste. Drücken Sie die Leertaste immer, wenn Sie ein Bild von Cranidos oder das Wort CRANIDOS sehen. 

Drücken Sie die Leertaste, um die Aufgabe zu starten.",target1,stimuli/t1.jpg,32,23,stimuli/filler9.jpg,filler,False,None,,,,,,,,,,,,,,0,0,0,0,,,,,0,0,0,0,0,22,22,22,,,,,,,,,,,,,,,,,,,,,,,,,,,,,,,,,,,,,,,,,,,,,,,,,,,,,CS1_USneg,None,1,,,,,,,,,,,,,,,,,,24,f,32,n,2019_Nov_22_1242,ec_RRR,3.0.4,59.87689196817365,
Unkelbach and Hogden,Das Zielwesen für diese Aufgabe ist Cranidos:,"Also sobald Cranidos (sein Name oder sein Bild) auf dem Bildschirm erscheint, drücken Sie so schnell wie möglich die Leertaste. Drücken Sie die Leertaste immer, wenn Sie ein Bild von Cranidos oder das Wort CRANIDOS sehen. 

Drücken Sie die Leertaste, um die Aufgabe zu starten.",target1,stimuli/t1.jpg,32,24,stimuli/filler28.jpg,filler,False,None,,,,,,,,,,,,,,0,0,0,0,,,,,0,0,0,0,0,23,23,23,,,,,,,,,,,,,,,,,,,,,,,,,,,,,,,,,,,,,,,,,,,,,,,,,,,,,CS1_USneg,None,1,,,,,,,,,,,,,,,,,,24,f,32,n,2019_Nov_22_1242,ec_RRR,3.0.4,59.87689196817365,
Unkelbach and Hogden,Das Zielwesen für diese Aufgabe ist Cranidos:,"Also sobald Cranidos (sein Name oder sein Bild) auf dem Bildschirm erscheint, drücken Sie so schnell wie möglich die Leertaste. Drücken Sie die Leertaste immer, wenn Sie ein Bild von Cranidos oder das Wort CRANIDOS sehen. 

Drücken Sie die Leertaste, um die Aufgabe zu starten.",target1,stimuli/t1.jpg,32,25,stimuli/filler46.jpg,filler,False,None,,,,,,,,,,,,,,0,0,0,0,,,,,0,0,0,0,0,24,24,24,,,,,,,,,,,,,,,,,,,,,,,,,,,,,,,,,,,,,,,,,,,,,,,,,,,,,CS1_USneg,None,1,,,,,,,,,,,,,,,,,,24,f,32,n,2019_Nov_22_1242,ec_RRR,3.0.4,59.87689196817365,
Unkelbach and Hogden,Das Zielwesen für diese Aufgabe ist Cranidos:,"Also sobald Cranidos (sein Name oder sein Bild) auf dem Bildschirm erscheint, drücken Sie so schnell wie möglich die Leertaste. Drücken Sie die Leertaste immer, wenn Sie ein Bild von Cranidos oder das Wort CRANIDOS sehen. 

Drücken Sie die Leertaste, um die Aufgabe zu starten.",target1,stimuli/t1.jpg,32,26,stimuli/target1_10.jpg,target,True,space,,,,,,,,,,,,,,0,0,0,0,,,,,0,0,0,0,0,25,25,25,,,,,,,,,,,,,,,,,,,,,,,,,,,,,,,,,,,,,,,,,,,,,,,,,,,,,CS1_USneg,space,1,0.43948119454398693,,,,,,,,,,,,,,,,,24,f,32,n,2019_Nov_22_1242,ec_RRR,3.0.4,59.87689196817365,
Unkelbach and Hogden,Das Zielwesen für diese Aufgabe ist Cranidos:,"Also sobald Cranidos (sein Name oder sein Bild) auf dem Bildschirm erscheint, drücken Sie so schnell wie möglich die Leertaste. Drücken Sie die Leertaste immer, wenn Sie ein Bild von Cranidos oder das Wort CRANIDOS sehen. 

Drücken Sie die Leertaste, um die Aufgabe zu starten.",target1,stimuli/t1.jpg,32,27,stimuli/filler36.jpg,filler,False,None,,,,,,,,,,,,,,0,0,0,0,,,,,0,0,0,0,0,26,26,26,,,,,,,,,,,,,,,,,,,,,,,,,,,,,,,,,,,,,,,,,,,,,,,,,,,,,CS1_USneg,None,1,,,,,,,,,,,,,,,,,,24,f,32,n,2019_Nov_22_1242,ec_RRR,3.0.4,59.87689196817365,
Unkelbach and Hogden,Das Zielwesen für diese Aufgabe ist Cranidos:,"Also sobald Cranidos (sein Name oder sein Bild) auf dem Bildschirm erscheint, drücken Sie so schnell wie möglich die Leertaste. Drücken Sie die Leertaste immer, wenn Sie ein Bild von Cranidos oder das Wort CRANIDOS sehen. 

Drücken Sie die Leertaste, um die Aufgabe zu starten.",target1,stimuli/t1.jpg,32,28,stimuli/filler42.jpg,filler,False,None,,,,,,,,,,,,,,0,0,0,0,,,,,0,0,0,0,0,27,27,27,,,,,,,,,,,,,,,,,,,,,,,,,,,,,,,,,,,,,,,,,,,,,,,,,,,,,CS1_USneg,None,1,,,,,,,,,,,,,,,,,,24,f,32,n,2019_Nov_22_1242,ec_RRR,3.0.4,59.87689196817365,
Unkelbach and Hogden,Das Zielwesen für diese Aufgabe ist Cranidos:,"Also sobald Cranidos (sein Name oder sein Bild) auf dem Bildschirm erscheint, drücken Sie so schnell wie möglich die Leertaste. Drücken Sie die Leertaste immer, wenn Sie ein Bild von Cranidos oder das Wort CRANIDOS sehen. 

Drücken Sie die Leertaste, um die Aufgabe zu starten.",target1,stimuli/t1.jpg,32,29,stimuli/target1_7.jpg,target,True,space,,,,,,,,,,,,,,0,0,0,0,,,,,0,0,0,0,0,28,28,28,,,,,,,,,,,,,,,,,,,,,,,,,,,,,,,,,,,,,,,,,,,,,,,,,,,,,CS1_USneg,space,1,0.6229621904385567,,,,,,,,,,,,,,,,,24,f,32,n,2019_Nov_22_1242,ec_RRR,3.0.4,59.87689196817365,
Unkelbach and Hogden,Das Zielwesen für diese Aufgabe ist Cranidos:,"Also sobald Cranidos (sein Name oder sein Bild) auf dem Bildschirm erscheint, drücken Sie so schnell wie möglich die Leertaste. Drücken Sie die Leertaste immer, wenn Sie ein Bild von Cranidos oder das Wort CRANIDOS sehen. 

Drücken Sie die Leertaste, um die Aufgabe zu starten.",target1,stimuli/t1.jpg,32,30,stimuli/blank.jpg,blank,False,None,,,,,,,,,,,,,,0,0,0,0,,,,,0,0,0,0,0,29,29,29,,,,,,,,,,,,,,,,,,,,,,,,,,,,,,,,,,,,,,,,,,,,,,,,,,,,,CS1_USneg,None,1,,,,,,,,,,,,,,,,,,24,f,32,n,2019_Nov_22_1242,ec_RRR,3.0.4,59.87689196817365,
Unkelbach and Hogden,Das Zielwesen für diese Aufgabe ist Cranidos:,"Also sobald Cranidos (sein Name oder sein Bild) auf dem Bildschirm erscheint, drücken Sie so schnell wie möglich die Leertaste. Drücken Sie die Leertaste immer, wenn Sie ein Bild von Cranidos oder das Wort CRANIDOS sehen. 

Drücken Sie die Leertaste, um die Aufgabe zu starten.",target1,stimuli/t1.jpg,32,31,stimuli/cs1_neg18.jpg,CSUS,False,None,,,,,,,,,,,,,,0,0,0,0,,,,,0,0,0,0,0,30,30,30,,,,,,,,,,,,,,,,,,,,,,,,,,,,,,,,,,,,,,,,,,,,,,,,,,,,,CS1_USneg,None,1,,,,,,,,,,,,,,,,,,24,f,32,n,2019_Nov_22_1242,ec_RRR,3.0.4,59.87689196817365,
Unkelbach and Hogden,Das Zielwesen für diese Aufgabe ist Cranidos:,"Also sobald Cranidos (sein Name oder sein Bild) auf dem Bildschirm erscheint, drücken Sie so schnell wie möglich die Leertaste. Drücken Sie die Leertaste immer, wenn Sie ein Bild von Cranidos oder das Wort CRANIDOS sehen. 

Drücken Sie die Leertaste, um die Aufgabe zu starten.",target1,stimuli/t1.jpg,32,32,stimuli/blank.jpg,blank,False,None,,,,,,,,,,,,,,0,0,0,0,,,,,0,0,0,0,0,31,31,31,,,,,,,,,,,,,,,,,,,,,,,,,,,,,,,,,,,,,,,,,,,,,,,,,,,,,CS1_USneg,None,1,,,,,,,,,,,,,,,,,,24,f,32,n,2019_Nov_22_1242,ec_RRR,3.0.4,59.87689196817365,
Unkelbach and Hogden,Das Zielwesen für diese Aufgabe ist Cranidos:,"Also sobald Cranidos (sein Name oder sein Bild) auf dem Bildschirm erscheint, drücken Sie so schnell wie möglich die Leertaste. Drücken Sie die Leertaste immer, wenn Sie ein Bild von Cranidos oder das Wort CRANIDOS sehen. 

Drücken Sie die Leertaste, um die Aufgabe zu starten.",target1,stimuli/t1.jpg,32,33,stimuli/filler16.jpg,filler,False,None,,,,,,,,,,,,,,0,0,0,0,,,,,0,0,0,0,0,32,32,32,,,,,,,,,,,,,,,,,,,,,,,,,,,,,,,,,,,,,,,,,,,,,,,,,,,,,CS1_USneg,None,1,,,,,,,,,,,,,,,,,,24,f,32,n,2019_Nov_22_1242,ec_RRR,3.0.4,59.87689196817365,
Unkelbach and Hogden,Das Zielwesen für diese Aufgabe ist Cranidos:,"Also sobald Cranidos (sein Name oder sein Bild) auf dem Bildschirm erscheint, drücken Sie so schnell wie möglich die Leertaste. Drücken Sie die Leertaste immer, wenn Sie ein Bild von Cranidos oder das Wort CRANIDOS sehen. 

Drücken Sie die Leertaste, um die Aufgabe zu starten.",target1,stimuli/t1.jpg,32,34,stimuli/filler22.jpg,filler,False,None,,,,,,,,,,,,,,0,0,0,0,,,,,0,0,0,0,0,33,33,33,,,,,,,,,,,,,,,,,,,,,,,,,,,,,,,,,,,,,,,,,,,,,,,,,,,,,CS1_USneg,None,1,,,,,,,,,,,,,,,,,,24,f,32,n,2019_Nov_22_1242,ec_RRR,3.0.4,59.87689196817365,
Unkelbach and Hogden,Das Zielwesen für diese Aufgabe ist Cranidos:,"Also sobald Cranidos (sein Name oder sein Bild) auf dem Bildschirm erscheint, drücken Sie so schnell wie möglich die Leertaste. Drücken Sie die Leertaste immer, wenn Sie ein Bild von Cranidos oder das Wort CRANIDOS sehen. 

Drücken Sie die Leertaste, um die Aufgabe zu starten.",target1,stimuli/t1.jpg,32,35,stimuli/filler12.jpg,filler,False,None,,,,,,,,,,,,,,0,0,0,0,,,,,0,0,0,0,0,34,34,34,,,,,,,,,,,,,,,,,,,,,,,,,,,,,,,,,,,,,,,,,,,,,,,,,,,,,CS1_USneg,None,1,,,,,,,,,,,,,,,,,,24,f,32,n,2019_Nov_22_1242,ec_RRR,3.0.4,59.87689196817365,
Unkelbach and Hogden,Das Zielwesen für diese Aufgabe ist Cranidos:,"Also sobald Cranidos (sein Name oder sein Bild) auf dem Bildschirm erscheint, drücken Sie so schnell wie möglich die Leertaste. Drücken Sie die Leertaste immer, wenn Sie ein Bild von Cranidos oder das Wort CRANIDOS sehen. 

Drücken Sie die Leertaste, um die Aufgabe zu starten.",target1,stimuli/t1.jpg,32,36,stimuli/filler33.jpg,filler,False,None,,,,,,,,,,,,,,0,0,0,0,,,,,0,0,0,0,0,35,35,35,,,,,,,,,,,,,,,,,,,,,,,,,,,,,,,,,,,,,,,,,,,,,,,,,,,,,CS1_USneg,None,1,,,,,,,,,,,,,,,,,,24,f,32,n,2019_Nov_22_1242,ec_RRR,3.0.4,59.87689196817365,
Unkelbach and Hogden,Das Zielwesen für diese Aufgabe ist Cranidos:,"Also sobald Cranidos (sein Name oder sein Bild) auf dem Bildschirm erscheint, drücken Sie so schnell wie möglich die Leertaste. Drücken Sie die Leertaste immer, wenn Sie ein Bild von Cranidos oder das Wort CRANIDOS sehen. 

Drücken Sie die Leertaste, um die Aufgabe zu starten.",target1,stimuli/t1.jpg,32,37,stimuli/filler6.jpg,filler,False,None,,,,,,,,,,,,,,0,0,0,0,,,,,0,0,0,0,0,36,36,36,,,,,,,,,,,,,,,,,,,,,,,,,,,,,,,,,,,,,,,,,,,,,,,,,,,,,CS1_USneg,None,1,,,,,,,,,,,,,,,,,,24,f,32,n,2019_Nov_22_1242,ec_RRR,3.0.4,59.87689196817365,
Unkelbach and Hogden,Das Zielwesen für diese Aufgabe ist Cranidos:,"Also sobald Cranidos (sein Name oder sein Bild) auf dem Bildschirm erscheint, drücken Sie so schnell wie möglich die Leertaste. Drücken Sie die Leertaste immer, wenn Sie ein Bild von Cranidos oder das Wort CRANIDOS sehen. 

Drücken Sie die Leertaste, um die Aufgabe zu starten.",target1,stimuli/t1.jpg,32,38,stimuli/filler5.jpg,filler,False,None,,,,,,,,,,,,,,0,0,0,0,,,,,0,0,0,0,0,37,37,37,,,,,,,,,,,,,,,,,,,,,,,,,,,,,,,,,,,,,,,,,,,,,,,,,,,,,CS1_USneg,None,1,,,,,,,,,,,,,,,,,,24,f,32,n,2019_Nov_22_1242,ec_RRR,3.0.4,59.87689196817365,
Unkelbach and Hogden,Das Zielwesen für diese Aufgabe ist Cranidos:,"Also sobald Cranidos (sein Name oder sein Bild) auf dem Bildschirm erscheint, drücken Sie so schnell wie möglich die Leertaste. Drücken Sie die Leertaste immer, wenn Sie ein Bild von Cranidos oder das Wort CRANIDOS sehen. 

Drücken Sie die Leertaste, um die Aufgabe zu starten.",target1,stimuli/t1.jpg,32,39,stimuli/filler23.jpg,filler,False,None,,,,,,,,,,,,,,0,0,0,0,,,,,0,0,0,0,0,38,38,38,,,,,,,,,,,,,,,,,,,,,,,,,,,,,,,,,,,,,,,,,,,,,,,,,,,,,CS1_USneg,None,1,,,,,,,,,,,,,,,,,,24,f,32,n,2019_Nov_22_1242,ec_RRR,3.0.4,59.87689196817365,
Unkelbach and Hogden,Das Zielwesen für diese Aufgabe ist Cranidos:,"Also sobald Cranidos (sein Name oder sein Bild) auf dem Bildschirm erscheint, drücken Sie so schnell wie möglich die Leertaste. Drücken Sie die Leertaste immer, wenn Sie ein Bild von Cranidos oder das Wort CRANIDOS sehen. 

Drücken Sie die Leertaste, um die Aufgabe zu starten.",target1,stimuli/t1.jpg,32,40,stimuli/blank.jpg,blank,False,None,,,,,,,,,,,,,,0,0,0,0,,,,,0,0,0,0,0,39,39,39,,,,,,,,,,,,,,,,,,,,,,,,,,,,,,,,,,,,,,,,,,,,,,,,,,,,,CS1_USneg,None,1,,,,,,,,,,,,,,,,,,24,f,32,n,2019_Nov_22_1242,ec_RRR,3.0.4,59.87689196817365,
Unkelbach and Hogden,Das Zielwesen für diese Aufgabe ist Cranidos:,"Also sobald Cranidos (sein Name oder sein Bild) auf dem Bildschirm erscheint, drücken Sie so schnell wie möglich die Leertaste. Drücken Sie die Leertaste immer, wenn Sie ein Bild von Cranidos oder das Wort CRANIDOS sehen. 

Drücken Sie die Leertaste, um die Aufgabe zu starten.",target1,stimuli/t1.jpg,32,41,stimuli/cs2_pos11.jpg,CSUS,False,None,,,,,,,,,,,,,,0,0,0,0,,,,,0,0,0,0,0,40,40,40,,,,,,,,,,,,,,,,,,,,,,,,,,,,,,,,,,,,,,,,,,,,,,,,,,,,,CS1_USneg,space,0,0.5060879353732162,,,,,,,,,,,,,,,,,24,f,32,n,2019_Nov_22_1242,ec_RRR,3.0.4,59.87689196817365,
Unkelbach and Hogden,Das Zielwesen für diese Aufgabe ist Cranidos:,"Also sobald Cranidos (sein Name oder sein Bild) auf dem Bildschirm erscheint, drücken Sie so schnell wie möglich die Leertaste. Drücken Sie die Leertaste immer, wenn Sie ein Bild von Cranidos oder das Wort CRANIDOS sehen. 

Drücken Sie die Leertaste, um die Aufgabe zu starten.",target1,stimuli/t1.jpg,32,42,stimuli/blank.jpg,blank,False,None,,,,,,,,,,,,,,0,0,0,0,,,,,0,0,0,0,0,41,41,41,,,,,,,,,,,,,,,,,,,,,,,,,,,,,,,,,,,,,,,,,,,,,,,,,,,,,CS1_USneg,None,1,,,,,,,,,,,,,,,,,,24,f,32,n,2019_Nov_22_1242,ec_RRR,3.0.4,59.87689196817365,
Unkelbach and Hogden,Das Zielwesen für diese Aufgabe ist Cranidos:,"Also sobald Cranidos (sein Name oder sein Bild) auf dem Bildschirm erscheint, drücken Sie so schnell wie möglich die Leertaste. Drücken Sie die Leertaste immer, wenn Sie ein Bild von Cranidos oder das Wort CRANIDOS sehen. 

Drücken Sie die Leertaste, um die Aufgabe zu starten.",target1,stimuli/t1.jpg,32,43,stimuli/filler32.jpg,filler,False,None,,,,,,,,,,,,,,0,0,0,0,,,,,0,0,0,0,0,42,42,42,,,,,,,,,,,,,,,,,,,,,,,,,,,,,,,,,,,,,,,,,,,,,,,,,,,,,CS1_USneg,None,1,,,,,,,,,,,,,,,,,,24,f,32,n,2019_Nov_22_1242,ec_RRR,3.0.4,59.87689196817365,
Unkelbach and Hogden,Das Zielwesen für diese Aufgabe ist Cranidos:,"Also sobald Cranidos (sein Name oder sein Bild) auf dem Bildschirm erscheint, drücken Sie so schnell wie möglich die Leertaste. Drücken Sie die Leertaste immer, wenn Sie ein Bild von Cranidos oder das Wort CRANIDOS sehen. 

Drücken Sie die Leertaste, um die Aufgabe zu starten.",target1,stimuli/t1.jpg,32,44,stimuli/filler48.jpg,filler,False,None,,,,,,,,,,,,,,0,0,0,0,,,,,0,0,0,0,0,43,43,43,,,,,,,,,,,,,,,,,,,,,,,,,,,,,,,,,,,,,,,,,,,,,,,,,,,,,CS1_USneg,None,1,,,,,,,,,,,,,,,,,,24,f,32,n,2019_Nov_22_1242,ec_RRR,3.0.4,59.87689196817365,
Unkelbach and Hogden,Das Zielwesen für diese Aufgabe ist Cranidos:,"Also sobald Cranidos (sein Name oder sein Bild) auf dem Bildschirm erscheint, drücken Sie so schnell wie möglich die Leertaste. Drücken Sie die Leertaste immer, wenn Sie ein Bild von Cranidos oder das Wort CRANIDOS sehen. 

Drücken Sie die Leertaste, um die Aufgabe zu starten.",target1,stimuli/t1.jpg,32,45,stimuli/target1_9.jpg,target,True,space,,,,,,,,,,,,,,0,0,0,0,,,,,0,0,0,0,0,44,44,44,,,,,,,,,,,,,,,,,,,,,,,,,,,,,,,,,,,,,,,,,,,,,,,,,,,,,CS1_USneg,space,1,0.8407419547074824,,,,,,,,,,,,,,,,,24,f,32,n,2019_Nov_22_1242,ec_RRR,3.0.4,59.87689196817365,
Unkelbach and Hogden,Das Zielwesen für diese Aufgabe ist Cranidos:,"Also sobald Cranidos (sein Name oder sein Bild) auf dem Bildschirm erscheint, drücken Sie so schnell wie möglich die Leertaste. Drücken Sie die Leertaste immer, wenn Sie ein Bild von Cranidos oder das Wort CRANIDOS sehen. 

Drücken Sie die Leertaste, um die Aufgabe zu starten.",target1,stimuli/t1.jpg,32,46,stimuli/filler40.jpg,filler,False,None,,,,,,,,,,,,,,0,0,0,0,,,,,0,0,0,0,0,45,45,45,,,,,,,,,,,,,,,,,,,,,,,,,,,,,,,,,,,,,,,,,,,,,,,,,,,,,CS1_USneg,None,1,,,,,,,,,,,,,,,,,,24,f,32,n,2019_Nov_22_1242,ec_RRR,3.0.4,59.87689196817365,
Unkelbach and Hogden,Das Zielwesen für diese Aufgabe ist Cranidos:,"Also sobald Cranidos (sein Name oder sein Bild) auf dem Bildschirm erscheint, drücken Sie so schnell wie möglich die Leertaste. Drücken Sie die Leertaste immer, wenn Sie ein Bild von Cranidos oder das Wort CRANIDOS sehen. 

Drücken Sie die Leertaste, um die Aufgabe zu starten.",target1,stimuli/t1.jpg,32,47,stimuli/filler8.jpg,filler,False,None,,,,,,,,,,,,,,0,0,0,0,,,,,0,0,0,0,0,46,46,46,,,,,,,,,,,,,,,,,,,,,,,,,,,,,,,,,,,,,,,,,,,,,,,,,,,,,CS1_USneg,None,1,,,,,,,,,,,,,,,,,,24,f,32,n,2019_Nov_22_1242,ec_RRR,3.0.4,59.87689196817365,
Unkelbach and Hogden,Das Zielwesen für diese Aufgabe ist Cranidos:,"Also sobald Cranidos (sein Name oder sein Bild) auf dem Bildschirm erscheint, drücken Sie so schnell wie möglich die Leertaste. Drücken Sie die Leertaste immer, wenn Sie ein Bild von Cranidos oder das Wort CRANIDOS sehen. 

Drücken Sie die Leertaste, um die Aufgabe zu starten.",target1,stimuli/t1.jpg,32,48,stimuli/filler44.jpg,filler,False,None,,,,,,,,,,,,,,0,0,0,0,,,,,0,0,0,0,0,47,47,47,,,,,,,,,,,,,,,,,,,,,,,,,,,,,,,,,,,,,,,,,,,,,,,,,,,,,CS1_USneg,None,1,,,,,,,,,,,,,,,,,,24,f,32,n,2019_Nov_22_1242,ec_RRR,3.0.4,59.87689196817365,
Unkelbach and Hogden,Das Zielwesen für diese Aufgabe ist Cranidos:,"Also sobald Cranidos (sein Name oder sein Bild) auf dem Bildschirm erscheint, drücken Sie so schnell wie möglich die Leertaste. Drücken Sie die Leertaste immer, wenn Sie ein Bild von Cranidos oder das Wort CRANIDOS sehen. 

Drücken Sie die Leertaste, um die Aufgabe zu starten.",target1,stimuli/t1.jpg,32,49,stimuli/filler4.jpg,filler,False,None,,,,,,,,,,,,,,0,0,0,0,,,,,0,0,0,0,0,48,48,48,,,,,,,,,,,,,,,,,,,,,,,,,,,,,,,,,,,,,,,,,,,,,,,,,,,,,CS1_USneg,None,1,,,,,,,,,,,,,,,,,,24,f,32,n,2019_Nov_22_1242,ec_RRR,3.0.4,59.87689196817365,
Unkelbach and Hogden,Das Zielwesen für diese Aufgabe ist Cranidos:,"Also sobald Cranidos (sein Name oder sein Bild) auf dem Bildschirm erscheint, drücken Sie so schnell wie möglich die Leertaste. Drücken Sie die Leertaste immer, wenn Sie ein Bild von Cranidos oder das Wort CRANIDOS sehen. 

Drücken Sie die Leertaste, um die Aufgabe zu starten.",target1,stimuli/t1.jpg,32,50,stimuli/blank.jpg,blank,False,None,,,,,,,,,,,,,,0,0,0,0,,,,,0,0,0,0,0,49,49,49,,,,,,,,,,,,,,,,,,,,,,,,,,,,,,,,,,,,,,,,,,,,,,,,,,,,,CS1_USneg,None,1,,,,,,,,,,,,,,,,,,24,f,32,n,2019_Nov_22_1242,ec_RRR,3.0.4,59.87689196817365,
Unkelbach and Hogden,Das Zielwesen für diese Aufgabe ist Cranidos:,"Also sobald Cranidos (sein Name oder sein Bild) auf dem Bildschirm erscheint, drücken Sie so schnell wie möglich die Leertaste. Drücken Sie die Leertaste immer, wenn Sie ein Bild von Cranidos oder das Wort CRANIDOS sehen. 

Drücken Sie die Leertaste, um die Aufgabe zu starten.",target1,stimuli/t1.jpg,32,51,stimuli/cs1_neg5.jpg,CSUS,False,None,,,,,,,,,,,,,,0,0,0,0,,,,,0,0,0,0,0,50,50,50,,,,,,,,,,,,,,,,,,,,,,,,,,,,,,,,,,,,,,,,,,,,,,,,,,,,,CS1_USneg,None,1,,,,,,,,,,,,,,,,,,24,f,32,n,2019_Nov_22_1242,ec_RRR,3.0.4,59.87689196817365,
Unkelbach and Hogden,Das Zielwesen für diese Aufgabe ist Cranidos:,"Also sobald Cranidos (sein Name oder sein Bild) auf dem Bildschirm erscheint, drücken Sie so schnell wie möglich die Leertaste. Drücken Sie die Leertaste immer, wenn Sie ein Bild von Cranidos oder das Wort CRANIDOS sehen. 

Drücken Sie die Leertaste, um die Aufgabe zu starten.",target1,stimuli/t1.jpg,32,52,stimuli/blank.jpg,blank,False,None,,,,,,,,,,,,,,0,0,0,0,,,,,0,0,0,0,0,51,51,51,,,,,,,,,,,,,,,,,,,,,,,,,,,,,,,,,,,,,,,,,,,,,,,,,,,,,CS1_USneg,None,1,,,,,,,,,,,,,,,,,,24,f,32,n,2019_Nov_22_1242,ec_RRR,3.0.4,59.87689196817365,
Unkelbach and Hogden,Das Zielwesen für diese Aufgabe ist Cranidos:,"Also sobald Cranidos (sein Name oder sein Bild) auf dem Bildschirm erscheint, drücken Sie so schnell wie möglich die Leertaste. Drücken Sie die Leertaste immer, wenn Sie ein Bild von Cranidos oder das Wort CRANIDOS sehen. 

Drücken Sie die Leertaste, um die Aufgabe zu starten.",target1,stimuli/t1.jpg,32,53,stimuli/target1_6.jpg,target,True,space,,,,,,,,,,,,,,0,0,0,0,,,,,0,0,0,0,0,52,52,52,,,,,,,,,,,,,,,,,,,,,,,,,,,,,,,,,,,,,,,,,,,,,,,,,,,,,CS1_USneg,space,1,0.8734591444845137,,,,,,,,,,,,,,,,,24,f,32,n,2019_Nov_22_1242,ec_RRR,3.0.4,59.87689196817365,
Unkelbach and Hogden,Das Zielwesen für diese Aufgabe ist Cranidos:,"Also sobald Cranidos (sein Name oder sein Bild) auf dem Bildschirm erscheint, drücken Sie so schnell wie möglich die Leertaste. Drücken Sie die Leertaste immer, wenn Sie ein Bild von Cranidos oder das Wort CRANIDOS sehen. 

Drücken Sie die Leertaste, um die Aufgabe zu starten.",target1,stimuli/t1.jpg,32,54,stimuli/filler19.jpg,filler,False,None,,,,,,,,,,,,,,0,0,0,0,,,,,0,0,0,0,0,53,53,53,,,,,,,,,,,,,,,,,,,,,,,,,,,,,,,,,,,,,,,,,,,,,,,,,,,,,CS1_USneg,None,1,,,,,,,,,,,,,,,,,,24,f,32,n,2019_Nov_22_1242,ec_RRR,3.0.4,59.87689196817365,
Unkelbach and Hogden,Das Zielwesen für diese Aufgabe ist Cranidos:,"Also sobald Cranidos (sein Name oder sein Bild) auf dem Bildschirm erscheint, drücken Sie so schnell wie möglich die Leertaste. Drücken Sie die Leertaste immer, wenn Sie ein Bild von Cranidos oder das Wort CRANIDOS sehen. 

Drücken Sie die Leertaste, um die Aufgabe zu starten.",target1,stimuli/t1.jpg,32,55,stimuli/filler43.jpg,filler,False,None,,,,,,,,,,,,,,0,0,0,0,,,,,0,0,0,0,0,54,54,54,,,,,,,,,,,,,,,,,,,,,,,,,,,,,,,,,,,,,,,,,,,,,,,,,,,,,CS1_USneg,None,1,,,,,,,,,,,,,,,,,,24,f,32,n,2019_Nov_22_1242,ec_RRR,3.0.4,59.87689196817365,
Unkelbach and Hogden,Das Zielwesen für diese Aufgabe ist Cranidos:,"Also sobald Cranidos (sein Name oder sein Bild) auf dem Bildschirm erscheint, drücken Sie so schnell wie möglich die Leertaste. Drücken Sie die Leertaste immer, wenn Sie ein Bild von Cranidos oder das Wort CRANIDOS sehen. 

Drücken Sie die Leertaste, um die Aufgabe zu starten.",target1,stimuli/t1.jpg,32,56,stimuli/filler31.jpg,filler,False,None,,,,,,,,,,,,,,0,0,0,0,,,,,0,0,0,0,0,55,55,55,,,,,,,,,,,,,,,,,,,,,,,,,,,,,,,,,,,,,,,,,,,,,,,,,,,,,CS1_USneg,None,1,,,,,,,,,,,,,,,,,,24,f,32,n,2019_Nov_22_1242,ec_RRR,3.0.4,59.87689196817365,
Unkelbach and Hogden,Das Zielwesen für diese Aufgabe ist Cranidos:,"Also sobald Cranidos (sein Name oder sein Bild) auf dem Bildschirm erscheint, drücken Sie so schnell wie möglich die Leertaste. Drücken Sie die Leertaste immer, wenn Sie ein Bild von Cranidos oder das Wort CRANIDOS sehen. 

Drücken Sie die Leertaste, um die Aufgabe zu starten.",target1,stimuli/t1.jpg,32,57,stimuli/filler21.jpg,filler,False,None,,,,,,,,,,,,,,0,0,0,0,,,,,0,0,0,0,0,56,56,56,,,,,,,,,,,,,,,,,,,,,,,,,,,,,,,,,,,,,,,,,,,,,,,,,,,,,CS1_USneg,None,1,,,,,,,,,,,,,,,,,,24,f,32,n,2019_Nov_22_1242,ec_RRR,3.0.4,59.87689196817365,
Unkelbach and Hogden,Das Zielwesen für diese Aufgabe ist Cranidos:,"Also sobald Cranidos (sein Name oder sein Bild) auf dem Bildschirm erscheint, drücken Sie so schnell wie möglich die Leertaste. Drücken Sie die Leertaste immer, wenn Sie ein Bild von Cranidos oder das Wort CRANIDOS sehen. 

Drücken Sie die Leertaste, um die Aufgabe zu starten.",target1,stimuli/t1.jpg,32,58,stimuli/filler10.jpg,filler,False,None,,,,,,,,,,,,,,0,0,0,0,,,,,0,0,0,0,0,57,57,57,,,,,,,,,,,,,,,,,,,,,,,,,,,,,,,,,,,,,,,,,,,,,,,,,,,,,CS1_USneg,None,1,,,,,,,,,,,,,,,,,,24,f,32,n,2019_Nov_22_1242,ec_RRR,3.0.4,59.87689196817365,
Unkelbach and Hogden,Das Zielwesen für diese Aufgabe ist Cranidos:,"Also sobald Cranidos (sein Name oder sein Bild) auf dem Bildschirm erscheint, drücken Sie so schnell wie möglich die Leertaste. Drücken Sie die Leertaste immer, wenn Sie ein Bild von Cranidos oder das Wort CRANIDOS sehen. 

Drücken Sie die Leertaste, um die Aufgabe zu starten.",target1,stimuli/t1.jpg,32,59,stimuli/target1_1.jpg,target,True,space,,,,,,,,,,,,,,0,0,0,0,,,,,0,0,0,0,0,58,58,58,,,,,,,,,,,,,,,,,,,,,,,,,,,,,,,,,,,,,,,,,,,,,,,,,,,,,CS1_USneg,space,1,0.6396338233353163,,,,,,,,,,,,,,,,,24,f,32,n,2019_Nov_22_1242,ec_RRR,3.0.4,59.87689196817365,
Unkelbach and Hogden,Das Zielwesen für diese Aufgabe ist Cranidos:,"Also sobald Cranidos (sein Name oder sein Bild) auf dem Bildschirm erscheint, drücken Sie so schnell wie möglich die Leertaste. Drücken Sie die Leertaste immer, wenn Sie ein Bild von Cranidos oder das Wort CRANIDOS sehen. 

Drücken Sie die Leertaste, um die Aufgabe zu starten.",target1,stimuli/t1.jpg,32,60,stimuli/blank.jpg,blank,False,None,,,,,,,,,,,,,,0,0,0,0,,,,,0,0,0,0,0,59,59,59,,,,,,,,,,,,,,,,,,,,,,,,,,,,,,,,,,,,,,,,,,,,,,,,,,,,,CS1_USneg,None,1,,,,,,,,,,,,,,,,,,24,f,32,n,2019_Nov_22_1242,ec_RRR,3.0.4,59.87689196817365,
Unkelbach and Hogden,Das Zielwesen für diese Aufgabe ist Cranidos:,"Also sobald Cranidos (sein Name oder sein Bild) auf dem Bildschirm erscheint, drücken Sie so schnell wie möglich die Leertaste. Drücken Sie die Leertaste immer, wenn Sie ein Bild von Cranidos oder das Wort CRANIDOS sehen. 

Drücken Sie die Leertaste, um die Aufgabe zu starten.",target1,stimuli/t1.jpg,32,61,stimuli/cs2_pos15.jpg,CSUS,False,None,,,,,,,,,,,,,,0,0,0,0,,,,,0,0,0,0,0,60,60,60,,,,,,,,,,,,,,,,,,,,,,,,,,,,,,,,,,,,,,,,,,,,,,,,,,,,,CS1_USneg,None,1,,,,,,,,,,,,,,,,,,24,f,32,n,2019_Nov_22_1242,ec_RRR,3.0.4,59.87689196817365,
Unkelbach and Hogden,Das Zielwesen für diese Aufgabe ist Cranidos:,"Also sobald Cranidos (sein Name oder sein Bild) auf dem Bildschirm erscheint, drücken Sie so schnell wie möglich die Leertaste. Drücken Sie die Leertaste immer, wenn Sie ein Bild von Cranidos oder das Wort CRANIDOS sehen. 

Drücken Sie die Leertaste, um die Aufgabe zu starten.",target1,stimuli/t1.jpg,32,62,stimuli/blank.jpg,blank,False,None,,,,,,,,,,,,,,0,0,0,0,,,,,0,0,0,0,0,61,61,61,,,,,,,,,,,,,,,,,,,,,,,,,,,,,,,,,,,,,,,,,,,,,,,,,,,,,CS1_USneg,None,1,,,,,,,,,,,,,,,,,,24,f,32,n,2019_Nov_22_1242,ec_RRR,3.0.4,59.87689196817365,
Unkelbach and Hogden,Das Zielwesen für diese Aufgabe ist Cranidos:,"Also sobald Cranidos (sein Name oder sein Bild) auf dem Bildschirm erscheint, drücken Sie so schnell wie möglich die Leertaste. Drücken Sie die Leertaste immer, wenn Sie ein Bild von Cranidos oder das Wort CRANIDOS sehen. 

Drücken Sie die Leertaste, um die Aufgabe zu starten.",target1,stimuli/t1.jpg,32,63,stimuli/filler35.jpg,filler,False,None,,,,,,,,,,,,,,0,0,0,0,,,,,0,0,0,0,0,62,62,62,,,,,,,,,,,,,,,,,,,,,,,,,,,,,,,,,,,,,,,,,,,,,,,,,,,,,CS1_USneg,None,1,,,,,,,,,,,,,,,,,,24,f,32,n,2019_Nov_22_1242,ec_RRR,3.0.4,59.87689196817365,
Unkelbach and Hogden,Das Zielwesen für diese Aufgabe ist Cranidos:,"Also sobald Cranidos (sein Name oder sein Bild) auf dem Bildschirm erscheint, drücken Sie so schnell wie möglich die Leertaste. Drücken Sie die Leertaste immer, wenn Sie ein Bild von Cranidos oder das Wort CRANIDOS sehen. 

Drücken Sie die Leertaste, um die Aufgabe zu starten.",target1,stimuli/t1.jpg,32,64,stimuli/target1_5.jpg,target,True,space,,,,,,,,,,,,,,0,0,0,0,,,,,0,0,0,0,0,63,63,63,,,,,,,,,,,,,,,,,,,,,,,,,,,,,,,,,,,,,,,,,,,,,,,,,,,,,CS1_USneg,space,1,0.6059733810088801,,,,,,,,,,,,,,,,,24,f,32,n,2019_Nov_22_1242,ec_RRR,3.0.4,59.87689196817365,
Unkelbach and Hogden,Das Zielwesen für diese Aufgabe ist Cranidos:,"Also sobald Cranidos (sein Name oder sein Bild) auf dem Bildschirm erscheint, drücken Sie so schnell wie möglich die Leertaste. Drücken Sie die Leertaste immer, wenn Sie ein Bild von Cranidos oder das Wort CRANIDOS sehen. 

Drücken Sie die Leertaste, um die Aufgabe zu starten.",target1,stimuli/t1.jpg,32,65,stimuli/filler2.jpg,filler,False,None,,,,,,,,,,,,,,0,0,0,0,,,,,0,0,0,0,0,64,64,64,,,,,,,,,,,,,,,,,,,,,,,,,,,,,,,,,,,,,,,,,,,,,,,,,,,,,CS1_USneg,None,1,,,,,,,,,,,,,,,,,,24,f,32,n,2019_Nov_22_1242,ec_RRR,3.0.4,59.87689196817365,
Unkelbach and Hogden,Das Zielwesen für diese Aufgabe ist Cranidos:,"Also sobald Cranidos (sein Name oder sein Bild) auf dem Bildschirm erscheint, drücken Sie so schnell wie möglich die Leertaste. Drücken Sie die Leertaste immer, wenn Sie ein Bild von Cranidos oder das Wort CRANIDOS sehen. 

Drücken Sie die Leertaste, um die Aufgabe zu starten.",target1,stimuli/t1.jpg,32,66,stimuli/filler37.jpg,filler,False,None,,,,,,,,,,,,,,0,0,0,0,,,,,0,0,0,0,0,65,65,65,,,,,,,,,,,,,,,,,,,,,,,,,,,,,,,,,,,,,,,,,,,,,,,,,,,,,CS1_USneg,None,1,,,,,,,,,,,,,,,,,,24,f,32,n,2019_Nov_22_1242,ec_RRR,3.0.4,59.87689196817365,
Unkelbach and Hogden,Das Zielwesen für diese Aufgabe ist Cranidos:,"Also sobald Cranidos (sein Name oder sein Bild) auf dem Bildschirm erscheint, drücken Sie so schnell wie möglich die Leertaste. Drücken Sie die Leertaste immer, wenn Sie ein Bild von Cranidos oder das Wort CRANIDOS sehen. 

Drücken Sie die Leertaste, um die Aufgabe zu starten.",target1,stimuli/t1.jpg,32,67,stimuli/filler38.jpg,filler,False,None,,,,,,,,,,,,,,0,0,0,0,,,,,0,0,0,0,0,66,66,66,,,,,,,,,,,,,,,,,,,,,,,,,,,,,,,,,,,,,,,,,,,,,,,,,,,,,CS1_USneg,None,1,,,,,,,,,,,,,,,,,,24,f,32,n,2019_Nov_22_1242,ec_RRR,3.0.4,59.87689196817365,
Unkelbach and Hogden,Das Zielwesen für diese Aufgabe ist Cranidos:,"Also sobald Cranidos (sein Name oder sein Bild) auf dem Bildschirm erscheint, drücken Sie so schnell wie möglich die Leertaste. Drücken Sie die Leertaste immer, wenn Sie ein Bild von Cranidos oder das Wort CRANIDOS sehen. 

Drücken Sie die Leertaste, um die Aufgabe zu starten.",target1,stimuli/t1.jpg,32,68,stimuli/filler15.jpg,filler,False,None,,,,,,,,,,,,,,0,0,0,0,,,,,0,0,0,0,0,67,67,67,,,,,,,,,,,,,,,,,,,,,,,,,,,,,,,,,,,,,,,,,,,,,,,,,,,,,CS1_USneg,None,1,,,,,,,,,,,,,,,,,,24,f,32,n,2019_Nov_22_1242,ec_RRR,3.0.4,59.87689196817365,
Unkelbach and Hogden,Das Zielwesen für diese Aufgabe ist Cranidos:,"Also sobald Cranidos (sein Name oder sein Bild) auf dem Bildschirm erscheint, drücken Sie so schnell wie möglich die Leertaste. Drücken Sie die Leertaste immer, wenn Sie ein Bild von Cranidos oder das Wort CRANIDOS sehen. 

Drücken Sie die Leertaste, um die Aufgabe zu starten.",target1,stimuli/t1.jpg,32,69,stimuli/target1_3.jpg,target,True,space,,,,,,,,,,,,,,0,0,0,0,,,,,0,0,0,0,0,68,68,68,,,,,,,,,,,,,,,,,,,,,,,,,,,,,,,,,,,,,,,,,,,,,,,,,,,,,CS1_USneg,space,1,0.640410541651363,,,,,,,,,,,,,,,,,24,f,32,n,2019_Nov_22_1242,ec_RRR,3.0.4,59.87689196817365,
Unkelbach and Hogden,Das Zielwesen für diese Aufgabe ist Cranidos:,"Also sobald Cranidos (sein Name oder sein Bild) auf dem Bildschirm erscheint, drücken Sie so schnell wie möglich die Leertaste. Drücken Sie die Leertaste immer, wenn Sie ein Bild von Cranidos oder das Wort CRANIDOS sehen. 

Drücken Sie die Leertaste, um die Aufgabe zu starten.",target1,stimuli/t1.jpg,32,70,stimuli/blank.jpg,blank,False,None,,,,,,,,,,,,,,0,0,0,0,,,,,0,0,0,0,0,69,69,69,,,,,,,,,,,,,,,,,,,,,,,,,,,,,,,,,,,,,,,,,,,,,,,,,,,,,CS1_USneg,None,1,,,,,,,,,,,,,,,,,,24,f,32,n,2019_Nov_22_1242,ec_RRR,3.0.4,59.87689196817365,
Unkelbach and Hogden,Das Zielwesen für diese Aufgabe ist Cranidos:,"Also sobald Cranidos (sein Name oder sein Bild) auf dem Bildschirm erscheint, drücken Sie so schnell wie möglich die Leertaste. Drücken Sie die Leertaste immer, wenn Sie ein Bild von Cranidos oder das Wort CRANIDOS sehen. 

Drücken Sie die Leertaste, um die Aufgabe zu starten.",target1,stimuli/t1.jpg,32,71,stimuli/cs1_neg16.jpg,CSUS,False,None,,,,,,,,,,,,,,0,0,0,0,,,,,0,0,0,0,0,70,70,70,,,,,,,,,,,,,,,,,,,,,,,,,,,,,,,,,,,,,,,,,,,,,,,,,,,,,CS1_USneg,None,1,,,,,,,,,,,,,,,,,,24,f,32,n,2019_Nov_22_1242,ec_RRR,3.0.4,59.87689196817365,
Unkelbach and Hogden,Das Zielwesen für diese Aufgabe ist Cranidos:,"Also sobald Cranidos (sein Name oder sein Bild) auf dem Bildschirm erscheint, drücken Sie so schnell wie möglich die Leertaste. Drücken Sie die Leertaste immer, wenn Sie ein Bild von Cranidos oder das Wort CRANIDOS sehen. 

Drücken Sie die Leertaste, um die Aufgabe zu starten.",target1,stimuli/t1.jpg,32,72,stimuli/blank.jpg,blank,False,None,,,,,,,,,,,,,,0,0,0,0,,,,,0,0,0,0,0,71,71,71,,,,,,,,,,,,,,,,,,,,,,,,,,,,,,,,,,,,,,,,,,,,,,,,,,,,,CS1_USneg,None,1,,,,,,,,,,,,,,,,,,24,f,32,n,2019_Nov_22_1242,ec_RRR,3.0.4,59.87689196817365,
Unkelbach and Hogden,Das Zielwesen für diese Aufgabe ist Cranidos:,"Also sobald Cranidos (sein Name oder sein Bild) auf dem Bildschirm erscheint, drücken Sie so schnell wie möglich die Leertaste. Drücken Sie die Leertaste immer, wenn Sie ein Bild von Cranidos oder das Wort CRANIDOS sehen. 

Drücken Sie die Leertaste, um die Aufgabe zu starten.",target1,stimuli/t1.jpg,32,73,stimuli/filler13.jpg,filler,False,None,,,,,,,,,,,,,,0,0,0,0,,,,,0,0,0,0,0,72,72,72,,,,,,,,,,,,,,,,,,,,,,,,,,,,,,,,,,,,,,,,,,,,,,,,,,,,,CS1_USneg,None,1,,,,,,,,,,,,,,,,,,24,f,32,n,2019_Nov_22_1242,ec_RRR,3.0.4,59.87689196817365,
Unkelbach and Hogden,Das Zielwesen für diese Aufgabe ist Cranidos:,"Also sobald Cranidos (sein Name oder sein Bild) auf dem Bildschirm erscheint, drücken Sie so schnell wie möglich die Leertaste. Drücken Sie die Leertaste immer, wenn Sie ein Bild von Cranidos oder das Wort CRANIDOS sehen. 

Drücken Sie die Leertaste, um die Aufgabe zu starten.",target1,stimuli/t1.jpg,32,74,stimuli/filler45.jpg,filler,False,None,,,,,,,,,,,,,,0,0,0,0,,,,,0,0,0,0,0,73,73,73,,,,,,,,,,,,,,,,,,,,,,,,,,,,,,,,,,,,,,,,,,,,,,,,,,,,,CS1_USneg,None,1,,,,,,,,,,,,,,,,,,24,f,32,n,2019_Nov_22_1242,ec_RRR,3.0.4,59.87689196817365,
Unkelbach and Hogden,Das Zielwesen für diese Aufgabe ist Cranidos:,"Also sobald Cranidos (sein Name oder sein Bild) auf dem Bildschirm erscheint, drücken Sie so schnell wie möglich die Leertaste. Drücken Sie die Leertaste immer, wenn Sie ein Bild von Cranidos oder das Wort CRANIDOS sehen. 

Drücken Sie die Leertaste, um die Aufgabe zu starten.",target1,stimuli/t1.jpg,32,75,stimuli/filler27.jpg,filler,False,None,,,,,,,,,,,,,,0,0,0,0,,,,,0,0,0,0,0,74,74,74,,,,,,,,,,,,,,,,,,,,,,,,,,,,,,,,,,,,,,,,,,,,,,,,,,,,,CS1_USneg,None,1,,,,,,,,,,,,,,,,,,24,f,32,n,2019_Nov_22_1242,ec_RRR,3.0.4,59.87689196817365,
Unkelbach and Hogden,Das Zielwesen für diese Aufgabe ist Cranidos:,"Also sobald Cranidos (sein Name oder sein Bild) auf dem Bildschirm erscheint, drücken Sie so schnell wie möglich die Leertaste. Drücken Sie die Leertaste immer, wenn Sie ein Bild von Cranidos oder das Wort CRANIDOS sehen. 

Drücken Sie die Leertaste, um die Aufgabe zu starten.",target1,stimuli/t1.jpg,32,76,stimuli/target1_2.jpg,target,True,space,,,,,,,,,,,,,,0,0,0,0,,,,,0,0,0,0,0,75,75,75,,,,,,,,,,,,,,,,,,,,,,,,,,,,,,,,,,,,,,,,,,,,,,,,,,,,,CS1_USneg,space,1,0.6398367765850708,,,,,,,,,,,,,,,,,24,f,32,n,2019_Nov_22_1242,ec_RRR,3.0.4,59.87689196817365,
Unkelbach and Hogden,Das Zielwesen für diese Aufgabe ist Cranidos:,"Also sobald Cranidos (sein Name oder sein Bild) auf dem Bildschirm erscheint, drücken Sie so schnell wie möglich die Leertaste. Drücken Sie die Leertaste immer, wenn Sie ein Bild von Cranidos oder das Wort CRANIDOS sehen. 

Drücken Sie die Leertaste, um die Aufgabe zu starten.",target1,stimuli/t1.jpg,32,77,stimuli/filler39.jpg,filler,False,None,,,,,,,,,,,,,,0,0,0,0,,,,,0,0,0,0,0,76,76,76,,,,,,,,,,,,,,,,,,,,,,,,,,,,,,,,,,,,,,,,,,,,,,,,,,,,,CS1_USneg,None,1,,,,,,,,,,,,,,,,,,24,f,32,n,2019_Nov_22_1242,ec_RRR,3.0.4,59.87689196817365,
Unkelbach and Hogden,Das Zielwesen für diese Aufgabe ist Cranidos:,"Also sobald Cranidos (sein Name oder sein Bild) auf dem Bildschirm erscheint, drücken Sie so schnell wie möglich die Leertaste. Drücken Sie die Leertaste immer, wenn Sie ein Bild von Cranidos oder das Wort CRANIDOS sehen. 

Drücken Sie die Leertaste, um die Aufgabe zu starten.",target1,stimuli/t1.jpg,32,78,stimuli/filler3.jpg,filler,False,None,,,,,,,,,,,,,,0,0,0,0,,,,,0,0,0,0,0,77,77,77,,,,,,,,,,,,,,,,,,,,,,,,,,,,,,,,,,,,,,,,,,,,,,,,,,,,,CS1_USneg,None,1,,,,,,,,,,,,,,,,,,24,f,32,n,2019_Nov_22_1242,ec_RRR,3.0.4,59.87689196817365,
Unkelbach and Hogden,Das Zielwesen für diese Aufgabe ist Cranidos:,"Also sobald Cranidos (sein Name oder sein Bild) auf dem Bildschirm erscheint, drücken Sie so schnell wie möglich die Leertaste. Drücken Sie die Leertaste immer, wenn Sie ein Bild von Cranidos oder das Wort CRANIDOS sehen. 

Drücken Sie die Leertaste, um die Aufgabe zu starten.",target1,stimuli/t1.jpg,32,79,stimuli/filler49.jpg,filler,False,None,,,,,,,,,,,,,,0,0,0,0,,,,,0,0,0,0,0,78,78,78,,,,,,,,,,,,,,,,,,,,,,,,,,,,,,,,,,,,,,,,,,,,,,,,,,,,,CS1_USneg,None,1,,,,,,,,,,,,,,,,,,24,f,32,n,2019_Nov_22_1242,ec_RRR,3.0.4,59.87689196817365,
Unkelbach and Hogden,Das Zielwesen für diese Aufgabe ist Cranidos:,"Also sobald Cranidos (sein Name oder sein Bild) auf dem Bildschirm erscheint, drücken Sie so schnell wie möglich die Leertaste. Drücken Sie die Leertaste immer, wenn Sie ein Bild von Cranidos oder das Wort CRANIDOS sehen. 

Drücken Sie die Leertaste, um die Aufgabe zu starten.",target1,stimuli/t1.jpg,32,80,stimuli/blank.jpg,blank,False,None,,,,,,,,,,,,,,0,0,0,0,,,,,0,0,0,0,0,79,79,79,,,,,,,,,,,,,,,,,,,,,,,,,,,,,,,,,,,,,,,,,,,,,,,,,,,,,CS1_USneg,None,1,,,,,,,,,,,,,,,,,,24,f,32,n,2019_Nov_22_1242,ec_RRR,3.0.4,59.87689196817365,
Unkelbach and Hogden,Das Zielwesen für diese Aufgabe ist Cranidos:,"Also sobald Cranidos (sein Name oder sein Bild) auf dem Bildschirm erscheint, drücken Sie so schnell wie möglich die Leertaste. Drücken Sie die Leertaste immer, wenn Sie ein Bild von Cranidos oder das Wort CRANIDOS sehen. 

Drücken Sie die Leertaste, um die Aufgabe zu starten.",target1,stimuli/t1.jpg,32,81,stimuli/cs2_pos7.jpg,CSUS,False,None,,,,,,,,,,,,,,0,0,0,0,,,,,0,0,0,0,0,80,80,80,,,,,,,,,,,,,,,,,,,,,,,,,,,,,,,,,,,,,,,,,,,,,,,,,,,,,CS1_USneg,None,1,,,,,,,,,,,,,,,,,,24,f,32,n,2019_Nov_22_1242,ec_RRR,3.0.4,59.87689196817365,
Unkelbach and Hogden,Das Zielwesen für diese Aufgabe ist Cranidos:,"Also sobald Cranidos (sein Name oder sein Bild) auf dem Bildschirm erscheint, drücken Sie so schnell wie möglich die Leertaste. Drücken Sie die Leertaste immer, wenn Sie ein Bild von Cranidos oder das Wort CRANIDOS sehen. 

Drücken Sie die Leertaste, um die Aufgabe zu starten.",target1,stimuli/t1.jpg,32,82,stimuli/blank.jpg,blank,False,None,,,,,,,,,,,,,,0,0,0,0,,,,,0,0,0,0,0,81,81,81,,,,,,,,,,,,,,,,,,,,,,,,,,,,,,,,,,,,,,,,,,,,,,,,,,,,,CS1_USneg,None,1,,,,,,,,,,,,,,,,,,24,f,32,n,2019_Nov_22_1242,ec_RRR,3.0.4,59.87689196817365,
Unkelbach and Hogden,Das Zielwesen für diese Aufgabe ist Cranidos:,"Also sobald Cranidos (sein Name oder sein Bild) auf dem Bildschirm erscheint, drücken Sie so schnell wie möglich die Leertaste. Drücken Sie die Leertaste immer, wenn Sie ein Bild von Cranidos oder das Wort CRANIDOS sehen. 

Drücken Sie die Leertaste, um die Aufgabe zu starten.",target1,stimuli/t1.jpg,32,83,stimuli/target1_4.jpg,target,True,space,,,,,,,,,,,,,,0,0,0,0,,,,,0,0,0,0,0,82,82,82,,,,,,,,,,,,,,,,,,,,,,,,,,,,,,,,,,,,,,,,,,,,,,,,,,,,,CS1_USneg,space,1,0.623938551185347,,,,,,,,,,,,,,,,,24,f,32,n,2019_Nov_22_1242,ec_RRR,3.0.4,59.87689196817365,
Unkelbach and Hogden,Das Zielwesen für diese Aufgabe ist Cranidos:,"Also sobald Cranidos (sein Name oder sein Bild) auf dem Bildschirm erscheint, drücken Sie so schnell wie möglich die Leertaste. Drücken Sie die Leertaste immer, wenn Sie ein Bild von Cranidos oder das Wort CRANIDOS sehen. 

Drücken Sie die Leertaste, um die Aufgabe zu starten.",target1,stimuli/t1.jpg,32,84,stimuli/filler25.jpg,filler,False,None,,,,,,,,,,,,,,0,0,0,0,,,,,0,0,0,0,0,83,83,83,,,,,,,,,,,,,,,,,,,,,,,,,,,,,,,,,,,,,,,,,,,,,,,,,,,,,CS1_USneg,None,1,,,,,,,,,,,,,,,,,,24,f,32,n,2019_Nov_22_1242,ec_RRR,3.0.4,59.87689196817365,
Unkelbach and Hogden,Das Zielwesen für diese Aufgabe ist Cranidos:,"Also sobald Cranidos (sein Name oder sein Bild) auf dem Bildschirm erscheint, drücken Sie so schnell wie möglich die Leertaste. Drücken Sie die Leertaste immer, wenn Sie ein Bild von Cranidos oder das Wort CRANIDOS sehen. 

Drücken Sie die Leertaste, um die Aufgabe zu starten.",target1,stimuli/t1.jpg,32,85,stimuli/filler34.jpg,filler,False,None,,,,,,,,,,,,,,0,0,0,0,,,,,0,0,0,0,0,84,84,84,,,,,,,,,,,,,,,,,,,,,,,,,,,,,,,,,,,,,,,,,,,,,,,,,,,,,CS1_USneg,None,1,,,,,,,,,,,,,,,,,,24,f,32,n,2019_Nov_22_1242,ec_RRR,3.0.4,59.87689196817365,
Unkelbach and Hogden,Das Zielwesen für diese Aufgabe ist Cranidos:,"Also sobald Cranidos (sein Name oder sein Bild) auf dem Bildschirm erscheint, drücken Sie so schnell wie möglich die Leertaste. Drücken Sie die Leertaste immer, wenn Sie ein Bild von Cranidos oder das Wort CRANIDOS sehen. 

Drücken Sie die Leertaste, um die Aufgabe zu starten.",target1,stimuli/t1.jpg,32,86,stimuli/filler17.jpg,filler,False,None,,,,,,,,,,,,,,0,0,0,0,,,,,0,0,0,0,0,85,85,85,,,,,,,,,,,,,,,,,,,,,,,,,,,,,,,,,,,,,,,,,,,,,,,,,,,,,CS1_USneg,None,1,,,,,,,,,,,,,,,,,,24,f,32,n,2019_Nov_22_1242,ec_RRR,3.0.4,59.87689196817365,
Unkelbach and Hogden,Das Zielwesen für diese Aufgabe ist Bergmite:,"Also sobald Bergmite (sein Name oder sein Bild) auf dem Bildschirm erscheint, drücken Sie so schnell wie möglich die Leertaste. Drücken Sie die Leertaste immer, wenn Sie ein Bild von Bergmite oder das Wort BERGMITE sehen. 

Drücken Sie die Leertaste, um die Aufgabe zu starten.",target3,stimuli/t3.jpg,32,1,stimuli/target3_8.jpg,target,True,space,,,,,,,,,,,,,,0,0,0,0,,,,,0,1,1,2,0,0,0,0,,,,,,,,,,,,,,,,,,,,,,,,,,,,,,,,,,,,,,,,,,,,,,,,,,,,,CS1_USneg,space,1,0.8645798569723411,,,,,,,,,,,,,,,,,24,f,32,n,2019_Nov_22_1242,ec_RRR,3.0.4,59.87689196817365,
Unkelbach and Hogden,Das Zielwesen für diese Aufgabe ist Bergmite:,"Also sobald Bergmite (sein Name oder sein Bild) auf dem Bildschirm erscheint, drücken Sie so schnell wie möglich die Leertaste. Drücken Sie die Leertaste immer, wenn Sie ein Bild von Bergmite oder das Wort BERGMITE sehen. 

Drücken Sie die Leertaste, um die Aufgabe zu starten.",target3,stimuli/t3.jpg,32,2,stimuli/filler49.jpg,filler,False,None,,,,,,,,,,,,,,0,0,0,0,,,,,0,1,1,2,0,1,1,1,,,,,,,,,,,,,,,,,,,,,,,,,,,,,,,,,,,,,,,,,,,,,,,,,,,,,CS1_USneg,None,1,,,,,,,,,,,,,,,,,,24,f,32,n,2019_Nov_22_1242,ec_RRR,3.0.4,59.87689196817365,
Unkelbach and Hogden,Das Zielwesen für diese Aufgabe ist Bergmite:,"Also sobald Bergmite (sein Name oder sein Bild) auf dem Bildschirm erscheint, drücken Sie so schnell wie möglich die Leertaste. Drücken Sie die Leertaste immer, wenn Sie ein Bild von Bergmite oder das Wort BERGMITE sehen. 

Drücken Sie die Leertaste, um die Aufgabe zu starten.",target3,stimuli/t3.jpg,32,3,stimuli/filler47.jpg,filler,False,None,,,,,,,,,,,,,,0,0,0,0,,,,,0,1,1,2,0,2,2,2,,,,,,,,,,,,,,,,,,,,,,,,,,,,,,,,,,,,,,,,,,,,,,,,,,,,,CS1_USneg,None,1,,,,,,,,,,,,,,,,,,24,f,32,n,2019_Nov_22_1242,ec_RRR,3.0.4,59.87689196817365,
Unkelbach and Hogden,Das Zielwesen für diese Aufgabe ist Bergmite:,"Also sobald Bergmite (sein Name oder sein Bild) auf dem Bildschirm erscheint, drücken Sie so schnell wie möglich die Leertaste. Drücken Sie die Leertaste immer, wenn Sie ein Bild von Bergmite oder das Wort BERGMITE sehen. 

Drücken Sie die Leertaste, um die Aufgabe zu starten.",target3,stimuli/t3.jpg,32,4,stimuli/filler50.jpg,filler,False,None,,,,,,,,,,,,,,0,0,0,0,,,,,0,1,1,2,0,3,3,3,,,,,,,,,,,,,,,,,,,,,,,,,,,,,,,,,,,,,,,,,,,,,,,,,,,,,CS1_USneg,None,1,,,,,,,,,,,,,,,,,,24,f,32,n,2019_Nov_22_1242,ec_RRR,3.0.4,59.87689196817365,
Unkelbach and Hogden,Das Zielwesen für diese Aufgabe ist Bergmite:,"Also sobald Bergmite (sein Name oder sein Bild) auf dem Bildschirm erscheint, drücken Sie so schnell wie möglich die Leertaste. Drücken Sie die Leertaste immer, wenn Sie ein Bild von Bergmite oder das Wort BERGMITE sehen. 

Drücken Sie die Leertaste, um die Aufgabe zu starten.",target3,stimuli/t3.jpg,32,5,stimuli/target3_9.jpg,target,True,space,,,,,,,,,,,,,,0,0,0,0,,,,,0,1,1,2,0,4,4,4,,,,,,,,,,,,,,,,,,,,,,,,,,,,,,,,,,,,,,,,,,,,,,,,,,,,,CS1_USneg,space,1,0.6067610250283906,,,,,,,,,,,,,,,,,24,f,32,n,2019_Nov_22_1242,ec_RRR,3.0.4,59.87689196817365,
Unkelbach and Hogden,Das Zielwesen für diese Aufgabe ist Bergmite:,"Also sobald Bergmite (sein Name oder sein Bild) auf dem Bildschirm erscheint, drücken Sie so schnell wie möglich die Leertaste. Drücken Sie die Leertaste immer, wenn Sie ein Bild von Bergmite oder das Wort BERGMITE sehen. 

Drücken Sie die Leertaste, um die Aufgabe zu starten.",target3,stimuli/t3.jpg,32,6,stimuli/filler2.jpg,filler,False,None,,,,,,,,,,,,,,0,0,0,0,,,,,0,1,1,2,0,5,5,5,,,,,,,,,,,,,,,,,,,,,,,,,,,,,,,,,,,,,,,,,,,,,,,,,,,,,CS1_USneg,None,1,,,,,,,,,,,,,,,,,,24,f,32,n,2019_Nov_22_1242,ec_RRR,3.0.4,59.87689196817365,
Unkelbach and Hogden,Das Zielwesen für diese Aufgabe ist Bergmite:,"Also sobald Bergmite (sein Name oder sein Bild) auf dem Bildschirm erscheint, drücken Sie so schnell wie möglich die Leertaste. Drücken Sie die Leertaste immer, wenn Sie ein Bild von Bergmite oder das Wort BERGMITE sehen. 

Drücken Sie die Leertaste, um die Aufgabe zu starten.",target3,stimuli/t3.jpg,32,7,stimuli/filler38.jpg,filler,False,None,,,,,,,,,,,,,,0,0,0,0,,,,,0,1,1,2,0,6,6,6,,,,,,,,,,,,,,,,,,,,,,,,,,,,,,,,,,,,,,,,,,,,,,,,,,,,,CS1_USneg,None,1,,,,,,,,,,,,,,,,,,24,f,32,n,2019_Nov_22_1242,ec_RRR,3.0.4,59.87689196817365,
Unkelbach and Hogden,Das Zielwesen für diese Aufgabe ist Bergmite:,"Also sobald Bergmite (sein Name oder sein Bild) auf dem Bildschirm erscheint, drücken Sie so schnell wie möglich die Leertaste. Drücken Sie die Leertaste immer, wenn Sie ein Bild von Bergmite oder das Wort BERGMITE sehen. 

Drücken Sie die Leertaste, um die Aufgabe zu starten.",target3,stimuli/t3.jpg,32,8,stimuli/filler1.jpg,filler,False,None,,,,,,,,,,,,,,0,0,0,0,,,,,0,1,1,2,0,7,7,7,,,,,,,,,,,,,,,,,,,,,,,,,,,,,,,,,,,,,,,,,,,,,,,,,,,,,CS1_USneg,None,1,,,,,,,,,,,,,,,,,,24,f,32,n,2019_Nov_22_1242,ec_RRR,3.0.4,59.87689196817365,
Unkelbach and Hogden,Das Zielwesen für diese Aufgabe ist Bergmite:,"Also sobald Bergmite (sein Name oder sein Bild) auf dem Bildschirm erscheint, drücken Sie so schnell wie möglich die Leertaste. Drücken Sie die Leertaste immer, wenn Sie ein Bild von Bergmite oder das Wort BERGMITE sehen. 

Drücken Sie die Leertaste, um die Aufgabe zu starten.",target3,stimuli/t3.jpg,32,9,stimuli/filler8.jpg,filler,False,None,,,,,,,,,,,,,,0,0,0,0,,,,,0,1,1,2,0,8,8,8,,,,,,,,,,,,,,,,,,,,,,,,,,,,,,,,,,,,,,,,,,,,,,,,,,,,,CS1_USneg,None,1,,,,,,,,,,,,,,,,,,24,f,32,n,2019_Nov_22_1242,ec_RRR,3.0.4,59.87689196817365,
Unkelbach and Hogden,Das Zielwesen für diese Aufgabe ist Bergmite:,"Also sobald Bergmite (sein Name oder sein Bild) auf dem Bildschirm erscheint, drücken Sie so schnell wie möglich die Leertaste. Drücken Sie die Leertaste immer, wenn Sie ein Bild von Bergmite oder das Wort BERGMITE sehen. 

Drücken Sie die Leertaste, um die Aufgabe zu starten.",target3,stimuli/t3.jpg,32,10,stimuli/blank.jpg,blank,False,None,,,,,,,,,,,,,,0,0,0,0,,,,,0,1,1,2,0,9,9,9,,,,,,,,,,,,,,,,,,,,,,,,,,,,,,,,,,,,,,,,,,,,,,,,,,,,,CS1_USneg,None,1,,,,,,,,,,,,,,,,,,24,f,32,n,2019_Nov_22_1242,ec_RRR,3.0.4,59.87689196817365,
Unkelbach and Hogden,Das Zielwesen für diese Aufgabe ist Bergmite:,"Also sobald Bergmite (sein Name oder sein Bild) auf dem Bildschirm erscheint, drücken Sie so schnell wie möglich die Leertaste. Drücken Sie die Leertaste immer, wenn Sie ein Bild von Bergmite oder das Wort BERGMITE sehen. 

Drücken Sie die Leertaste, um die Aufgabe zu starten.",target3,stimuli/t3.jpg,32,11,stimuli/cs1_neg2.jpg,CSUS,False,None,,,,,,,,,,,,,,0,0,0,0,,,,,0,1,1,2,0,10,10,10,,,,,,,,,,,,,,,,,,,,,,,,,,,,,,,,,,,,,,,,,,,,,,,,,,,,,CS1_USneg,None,1,,,,,,,,,,,,,,,,,,24,f,32,n,2019_Nov_22_1242,ec_RRR,3.0.4,59.87689196817365,
Unkelbach and Hogden,Das Zielwesen für diese Aufgabe ist Bergmite:,"Also sobald Bergmite (sein Name oder sein Bild) auf dem Bildschirm erscheint, drücken Sie so schnell wie möglich die Leertaste. Drücken Sie die Leertaste immer, wenn Sie ein Bild von Bergmite oder das Wort BERGMITE sehen. 

Drücken Sie die Leertaste, um die Aufgabe zu starten.",target3,stimuli/t3.jpg,32,12,stimuli/blank.jpg,blank,False,None,,,,,,,,,,,,,,0,0,0,0,,,,,0,1,1,2,0,11,11,11,,,,,,,,,,,,,,,,,,,,,,,,,,,,,,,,,,,,,,,,,,,,,,,,,,,,,CS1_USneg,None,1,,,,,,,,,,,,,,,,,,24,f,32,n,2019_Nov_22_1242,ec_RRR,3.0.4,59.87689196817365,
Unkelbach and Hogden,Das Zielwesen für diese Aufgabe ist Bergmite:,"Also sobald Bergmite (sein Name oder sein Bild) auf dem Bildschirm erscheint, drücken Sie so schnell wie möglich die Leertaste. Drücken Sie die Leertaste immer, wenn Sie ein Bild von Bergmite oder das Wort BERGMITE sehen. 

Drücken Sie die Leertaste, um die Aufgabe zu starten.",target3,stimuli/t3.jpg,32,13,stimuli/filler25.jpg,filler,False,None,,,,,,,,,,,,,,0,0,0,0,,,,,0,1,1,2,0,12,12,12,,,,,,,,,,,,,,,,,,,,,,,,,,,,,,,,,,,,,,,,,,,,,,,,,,,,,CS1_USneg,None,1,,,,,,,,,,,,,,,,,,24,f,32,n,2019_Nov_22_1242,ec_RRR,3.0.4,59.87689196817365,
Unkelbach and Hogden,Das Zielwesen für diese Aufgabe ist Bergmite:,"Also sobald Bergmite (sein Name oder sein Bild) auf dem Bildschirm erscheint, drücken Sie so schnell wie möglich die Leertaste. Drücken Sie die Leertaste immer, wenn Sie ein Bild von Bergmite oder das Wort BERGMITE sehen. 

Drücken Sie die Leertaste, um die Aufgabe zu starten.",target3,stimuli/t3.jpg,32,14,stimuli/filler32.jpg,filler,False,None,,,,,,,,,,,,,,0,0,0,0,,,,,0,1,1,2,0,13,13,13,,,,,,,,,,,,,,,,,,,,,,,,,,,,,,,,,,,,,,,,,,,,,,,,,,,,,CS1_USneg,None,1,,,,,,,,,,,,,,,,,,24,f,32,n,2019_Nov_22_1242,ec_RRR,3.0.4,59.87689196817365,
Unkelbach and Hogden,Das Zielwesen für diese Aufgabe ist Bergmite:,"Also sobald Bergmite (sein Name oder sein Bild) auf dem Bildschirm erscheint, drücken Sie so schnell wie möglich die Leertaste. Drücken Sie die Leertaste immer, wenn Sie ein Bild von Bergmite oder das Wort BERGMITE sehen. 

Drücken Sie die Leertaste, um die Aufgabe zu starten.",target3,stimuli/t3.jpg,32,15,stimuli/filler41.jpg,filler,False,None,,,,,,,,,,,,,,0,0,0,0,,,,,0,1,1,2,0,14,14,14,,,,,,,,,,,,,,,,,,,,,,,,,,,,,,,,,,,,,,,,,,,,,,,,,,,,,CS1_USneg,None,1,,,,,,,,,,,,,,,,,,24,f,32,n,2019_Nov_22_1242,ec_RRR,3.0.4,59.87689196817365,
Unkelbach and Hogden,Das Zielwesen für diese Aufgabe ist Bergmite:,"Also sobald Bergmite (sein Name oder sein Bild) auf dem Bildschirm erscheint, drücken Sie so schnell wie möglich die Leertaste. Drücken Sie die Leertaste immer, wenn Sie ein Bild von Bergmite oder das Wort BERGMITE sehen. 

Drücken Sie die Leertaste, um die Aufgabe zu starten.",target3,stimuli/t3.jpg,32,16,stimuli/target3_4.jpg,target,True,space,,,,,,,,,,,,,,0,0,0,0,,,,,0,1,1,2,0,15,15,15,,,,,,,,,,,,,,,,,,,,,,,,,,,,,,,,,,,,,,,,,,,,,,,,,,,,,CS1_USneg,space,1,0.7245490663481178,,,,,,,,,,,,,,,,,24,f,32,n,2019_Nov_22_1242,ec_RRR,3.0.4,59.87689196817365,
Unkelbach and Hogden,Das Zielwesen für diese Aufgabe ist Bergmite:,"Also sobald Bergmite (sein Name oder sein Bild) auf dem Bildschirm erscheint, drücken Sie so schnell wie möglich die Leertaste. Drücken Sie die Leertaste immer, wenn Sie ein Bild von Bergmite oder das Wort BERGMITE sehen. 

Drücken Sie die Leertaste, um die Aufgabe zu starten.",target3,stimuli/t3.jpg,32,17,stimuli/filler5.jpg,filler,False,None,,,,,,,,,,,,,,0,0,0,0,,,,,0,1,1,2,0,16,16,16,,,,,,,,,,,,,,,,,,,,,,,,,,,,,,,,,,,,,,,,,,,,,,,,,,,,,CS1_USneg,None,1,,,,,,,,,,,,,,,,,,24,f,32,n,2019_Nov_22_1242,ec_RRR,3.0.4,59.87689196817365,
Unkelbach and Hogden,Das Zielwesen für diese Aufgabe ist Bergmite:,"Also sobald Bergmite (sein Name oder sein Bild) auf dem Bildschirm erscheint, drücken Sie so schnell wie möglich die Leertaste. Drücken Sie die Leertaste immer, wenn Sie ein Bild von Bergmite oder das Wort BERGMITE sehen. 

Drücken Sie die Leertaste, um die Aufgabe zu starten.",target3,stimuli/t3.jpg,32,18,stimuli/filler26.jpg,filler,False,None,,,,,,,,,,,,,,0,0,0,0,,,,,0,1,1,2,0,17,17,17,,,,,,,,,,,,,,,,,,,,,,,,,,,,,,,,,,,,,,,,,,,,,,,,,,,,,CS1_USneg,None,1,,,,,,,,,,,,,,,,,,24,f,32,n,2019_Nov_22_1242,ec_RRR,3.0.4,59.87689196817365,
Unkelbach and Hogden,Das Zielwesen für diese Aufgabe ist Bergmite:,"Also sobald Bergmite (sein Name oder sein Bild) auf dem Bildschirm erscheint, drücken Sie so schnell wie möglich die Leertaste. Drücken Sie die Leertaste immer, wenn Sie ein Bild von Bergmite oder das Wort BERGMITE sehen. 

Drücken Sie die Leertaste, um die Aufgabe zu starten.",target3,stimuli/t3.jpg,32,19,stimuli/filler17.jpg,filler,False,None,,,,,,,,,,,,,,0,0,0,0,,,,,0,1,1,2,0,18,18,18,,,,,,,,,,,,,,,,,,,,,,,,,,,,,,,,,,,,,,,,,,,,,,,,,,,,,CS1_USneg,None,1,,,,,,,,,,,,,,,,,,24,f,32,n,2019_Nov_22_1242,ec_RRR,3.0.4,59.87689196817365,
Unkelbach and Hogden,Das Zielwesen für diese Aufgabe ist Bergmite:,"Also sobald Bergmite (sein Name oder sein Bild) auf dem Bildschirm erscheint, drücken Sie so schnell wie möglich die Leertaste. Drücken Sie die Leertaste immer, wenn Sie ein Bild von Bergmite oder das Wort BERGMITE sehen. 

Drücken Sie die Leertaste, um die Aufgabe zu starten.",target3,stimuli/t3.jpg,32,20,stimuli/blank.jpg,blank,False,None,,,,,,,,,,,,,,0,0,0,0,,,,,0,1,1,2,0,19,19,19,,,,,,,,,,,,,,,,,,,,,,,,,,,,,,,,,,,,,,,,,,,,,,,,,,,,,CS1_USneg,None,1,,,,,,,,,,,,,,,,,,24,f,32,n,2019_Nov_22_1242,ec_RRR,3.0.4,59.87689196817365,
Unkelbach and Hogden,Das Zielwesen für diese Aufgabe ist Bergmite:,"Also sobald Bergmite (sein Name oder sein Bild) auf dem Bildschirm erscheint, drücken Sie so schnell wie möglich die Leertaste. Drücken Sie die Leertaste immer, wenn Sie ein Bild von Bergmite oder das Wort BERGMITE sehen. 

Drücken Sie die Leertaste, um die Aufgabe zu starten.",target3,stimuli/t3.jpg,32,21,stimuli/cs2_pos1.jpg,CSUS,False,None,,,,,,,,,,,,,,0,0,0,0,,,,,0,1,1,2,0,20,20,20,,,,,,,,,,,,,,,,,,,,,,,,,,,,,,,,,,,,,,,,,,,,,,,,,,,,,CS1_USneg,None,1,,,,,,,,,,,,,,,,,,24,f,32,n,2019_Nov_22_1242,ec_RRR,3.0.4,59.87689196817365,
Unkelbach and Hogden,Das Zielwesen für diese Aufgabe ist Bergmite:,"Also sobald Bergmite (sein Name oder sein Bild) auf dem Bildschirm erscheint, drücken Sie so schnell wie möglich die Leertaste. Drücken Sie die Leertaste immer, wenn Sie ein Bild von Bergmite oder das Wort BERGMITE sehen. 

Drücken Sie die Leertaste, um die Aufgabe zu starten.",target3,stimuli/t3.jpg,32,22,stimuli/blank.jpg,blank,False,None,,,,,,,,,,,,,,0,0,0,0,,,,,0,1,1,2,0,21,21,21,,,,,,,,,,,,,,,,,,,,,,,,,,,,,,,,,,,,,,,,,,,,,,,,,,,,,CS1_USneg,None,1,,,,,,,,,,,,,,,,,,24,f,32,n,2019_Nov_22_1242,ec_RRR,3.0.4,59.87689196817365,
Unkelbach and Hogden,Das Zielwesen für diese Aufgabe ist Bergmite:,"Also sobald Bergmite (sein Name oder sein Bild) auf dem Bildschirm erscheint, drücken Sie so schnell wie möglich die Leertaste. Drücken Sie die Leertaste immer, wenn Sie ein Bild von Bergmite oder das Wort BERGMITE sehen. 

Drücken Sie die Leertaste, um die Aufgabe zu starten.",target3,stimuli/t3.jpg,32,23,stimuli/filler19.jpg,filler,False,None,,,,,,,,,,,,,,0,0,0,0,,,,,0,1,1,2,0,22,22,22,,,,,,,,,,,,,,,,,,,,,,,,,,,,,,,,,,,,,,,,,,,,,,,,,,,,,CS1_USneg,None,1,,,,,,,,,,,,,,,,,,24,f,32,n,2019_Nov_22_1242,ec_RRR,3.0.4,59.87689196817365,
Unkelbach and Hogden,Das Zielwesen für diese Aufgabe ist Bergmite:,"Also sobald Bergmite (sein Name oder sein Bild) auf dem Bildschirm erscheint, drücken Sie so schnell wie möglich die Leertaste. Drücken Sie die Leertaste immer, wenn Sie ein Bild von Bergmite oder das Wort BERGMITE sehen. 

Drücken Sie die Leertaste, um die Aufgabe zu starten.",target3,stimuli/t3.jpg,32,24,stimuli/filler46.jpg,filler,False,None,,,,,,,,,,,,,,0,0,0,0,,,,,0,1,1,2,0,23,23,23,,,,,,,,,,,,,,,,,,,,,,,,,,,,,,,,,,,,,,,,,,,,,,,,,,,,,CS1_USneg,None,1,,,,,,,,,,,,,,,,,,24,f,32,n,2019_Nov_22_1242,ec_RRR,3.0.4,59.87689196817365,
Unkelbach and Hogden,Das Zielwesen für diese Aufgabe ist Bergmite:,"Also sobald Bergmite (sein Name oder sein Bild) auf dem Bildschirm erscheint, drücken Sie so schnell wie möglich die Leertaste. Drücken Sie die Leertaste immer, wenn Sie ein Bild von Bergmite oder das Wort BERGMITE sehen. 

Drücken Sie die Leertaste, um die Aufgabe zu starten.",target3,stimuli/t3.jpg,32,25,stimuli/filler6.jpg,filler,False,None,,,,,,,,,,,,,,0,0,0,0,,,,,0,1,1,2,0,24,24,24,,,,,,,,,,,,,,,,,,,,,,,,,,,,,,,,,,,,,,,,,,,,,,,,,,,,,CS1_USneg,None,1,,,,,,,,,,,,,,,,,,24,f,32,n,2019_Nov_22_1242,ec_RRR,3.0.4,59.87689196817365,
Unkelbach and Hogden,Das Zielwesen für diese Aufgabe ist Bergmite:,"Also sobald Bergmite (sein Name oder sein Bild) auf dem Bildschirm erscheint, drücken Sie so schnell wie möglich die Leertaste. Drücken Sie die Leertaste immer, wenn Sie ein Bild von Bergmite oder das Wort BERGMITE sehen. 

Drücken Sie die Leertaste, um die Aufgabe zu starten.",target3,stimuli/t3.jpg,32,26,stimuli/filler23.jpg,filler,False,None,,,,,,,,,,,,,,0,0,0,0,,,,,0,1,1,2,0,25,25,25,,,,,,,,,,,,,,,,,,,,,,,,,,,,,,,,,,,,,,,,,,,,,,,,,,,,,CS1_USneg,None,1,,,,,,,,,,,,,,,,,,24,f,32,n,2019_Nov_22_1242,ec_RRR,3.0.4,59.87689196817365,
Unkelbach and Hogden,Das Zielwesen für diese Aufgabe ist Bergmite:,"Also sobald Bergmite (sein Name oder sein Bild) auf dem Bildschirm erscheint, drücken Sie so schnell wie möglich die Leertaste. Drücken Sie die Leertaste immer, wenn Sie ein Bild von Bergmite oder das Wort BERGMITE sehen. 

Drücken Sie die Leertaste, um die Aufgabe zu starten.",target3,stimuli/t3.jpg,32,27,stimuli/filler35.jpg,filler,False,None,,,,,,,,,,,,,,0,0,0,0,,,,,0,1,1,2,0,26,26,26,,,,,,,,,,,,,,,,,,,,,,,,,,,,,,,,,,,,,,,,,,,,,,,,,,,,,CS1_USneg,None,1,,,,,,,,,,,,,,,,,,24,f,32,n,2019_Nov_22_1242,ec_RRR,3.0.4,59.87689196817365,
Unkelbach and Hogden,Das Zielwesen für diese Aufgabe ist Bergmite:,"Also sobald Bergmite (sein Name oder sein Bild) auf dem Bildschirm erscheint, drücken Sie so schnell wie möglich die Leertaste. Drücken Sie die Leertaste immer, wenn Sie ein Bild von Bergmite oder das Wort BERGMITE sehen. 

Drücken Sie die Leertaste, um die Aufgabe zu starten.",target3,stimuli/t3.jpg,32,28,stimuli/filler20.jpg,filler,False,None,,,,,,,,,,,,,,0,0,0,0,,,,,0,1,1,2,0,27,27,27,,,,,,,,,,,,,,,,,,,,,,,,,,,,,,,,,,,,,,,,,,,,,,,,,,,,,CS1_USneg,None,1,,,,,,,,,,,,,,,,,,24,f,32,n,2019_Nov_22_1242,ec_RRR,3.0.4,59.87689196817365,
Unkelbach and Hogden,Das Zielwesen für diese Aufgabe ist Bergmite:,"Also sobald Bergmite (sein Name oder sein Bild) auf dem Bildschirm erscheint, drücken Sie so schnell wie möglich die Leertaste. Drücken Sie die Leertaste immer, wenn Sie ein Bild von Bergmite oder das Wort BERGMITE sehen. 

Drücken Sie die Leertaste, um die Aufgabe zu starten.",target3,stimuli/t3.jpg,32,29,stimuli/filler39.jpg,filler,False,None,,,,,,,,,,,,,,0,0,0,0,,,,,0,1,1,2,0,28,28,28,,,,,,,,,,,,,,,,,,,,,,,,,,,,,,,,,,,,,,,,,,,,,,,,,,,,,CS1_USneg,None,1,,,,,,,,,,,,,,,,,,24,f,32,n,2019_Nov_22_1242,ec_RRR,3.0.4,59.87689196817365,
Unkelbach and Hogden,Das Zielwesen für diese Aufgabe ist Bergmite:,"Also sobald Bergmite (sein Name oder sein Bild) auf dem Bildschirm erscheint, drücken Sie so schnell wie möglich die Leertaste. Drücken Sie die Leertaste immer, wenn Sie ein Bild von Bergmite oder das Wort BERGMITE sehen. 

Drücken Sie die Leertaste, um die Aufgabe zu starten.",target3,stimuli/t3.jpg,32,30,stimuli/blank.jpg,blank,False,None,,,,,,,,,,,,,,0,0,0,0,,,,,0,1,1,2,0,29,29,29,,,,,,,,,,,,,,,,,,,,,,,,,,,,,,,,,,,,,,,,,,,,,,,,,,,,,CS1_USneg,None,1,,,,,,,,,,,,,,,,,,24,f,32,n,2019_Nov_22_1242,ec_RRR,3.0.4,59.87689196817365,
Unkelbach and Hogden,Das Zielwesen für diese Aufgabe ist Bergmite:,"Also sobald Bergmite (sein Name oder sein Bild) auf dem Bildschirm erscheint, drücken Sie so schnell wie möglich die Leertaste. Drücken Sie die Leertaste immer, wenn Sie ein Bild von Bergmite oder das Wort BERGMITE sehen. 

Drücken Sie die Leertaste, um die Aufgabe zu starten.",target3,stimuli/t3.jpg,32,31,stimuli/cs1_neg15.jpg,CSUS,False,None,,,,,,,,,,,,,,0,0,0,0,,,,,0,1,1,2,0,30,30,30,,,,,,,,,,,,,,,,,,,,,,,,,,,,,,,,,,,,,,,,,,,,,,,,,,,,,CS1_USneg,None,1,,,,,,,,,,,,,,,,,,24,f,32,n,2019_Nov_22_1242,ec_RRR,3.0.4,59.87689196817365,
Unkelbach and Hogden,Das Zielwesen für diese Aufgabe ist Bergmite:,"Also sobald Bergmite (sein Name oder sein Bild) auf dem Bildschirm erscheint, drücken Sie so schnell wie möglich die Leertaste. Drücken Sie die Leertaste immer, wenn Sie ein Bild von Bergmite oder das Wort BERGMITE sehen. 

Drücken Sie die Leertaste, um die Aufgabe zu starten.",target3,stimuli/t3.jpg,32,32,stimuli/blank.jpg,blank,False,None,,,,,,,,,,,,,,0,0,0,0,,,,,0,1,1,2,0,31,31,31,,,,,,,,,,,,,,,,,,,,,,,,,,,,,,,,,,,,,,,,,,,,,,,,,,,,,CS1_USneg,None,1,,,,,,,,,,,,,,,,,,24,f,32,n,2019_Nov_22_1242,ec_RRR,3.0.4,59.87689196817365,
Unkelbach and Hogden,Das Zielwesen für diese Aufgabe ist Bergmite:,"Also sobald Bergmite (sein Name oder sein Bild) auf dem Bildschirm erscheint, drücken Sie so schnell wie möglich die Leertaste. Drücken Sie die Leertaste immer, wenn Sie ein Bild von Bergmite oder das Wort BERGMITE sehen. 

Drücken Sie die Leertaste, um die Aufgabe zu starten.",target3,stimuli/t3.jpg,32,33,stimuli/target3_10.jpg,target,True,space,,,,,,,,,,,,,,0,0,0,0,,,,,0,1,1,2,0,32,32,32,,,,,,,,,,,,,,,,,,,,,,,,,,,,,,,,,,,,,,,,,,,,,,,,,,,,,CS1_USneg,space,1,0.5570911137601797,,,,,,,,,,,,,,,,,24,f,32,n,2019_Nov_22_1242,ec_RRR,3.0.4,59.87689196817365,
Unkelbach and Hogden,Das Zielwesen für diese Aufgabe ist Bergmite:,"Also sobald Bergmite (sein Name oder sein Bild) auf dem Bildschirm erscheint, drücken Sie so schnell wie möglich die Leertaste. Drücken Sie die Leertaste immer, wenn Sie ein Bild von Bergmite oder das Wort BERGMITE sehen. 

Drücken Sie die Leertaste, um die Aufgabe zu starten.",target3,stimuli/t3.jpg,32,34,stimuli/filler36.jpg,filler,False,None,,,,,,,,,,,,,,0,0,0,0,,,,,0,1,1,2,0,33,33,33,,,,,,,,,,,,,,,,,,,,,,,,,,,,,,,,,,,,,,,,,,,,,,,,,,,,,CS1_USneg,None,1,,,,,,,,,,,,,,,,,,24,f,32,n,2019_Nov_22_1242,ec_RRR,3.0.4,59.87689196817365,
Unkelbach and Hogden,Das Zielwesen für diese Aufgabe ist Bergmite:,"Also sobald Bergmite (sein Name oder sein Bild) auf dem Bildschirm erscheint, drücken Sie so schnell wie möglich die Leertaste. Drücken Sie die Leertaste immer, wenn Sie ein Bild von Bergmite oder das Wort BERGMITE sehen. 

Drücken Sie die Leertaste, um die Aufgabe zu starten.",target3,stimuli/t3.jpg,32,35,stimuli/filler52.jpg,filler,False,None,,,,,,,,,,,,,,0,0,0,0,,,,,0,1,1,2,0,34,34,34,,,,,,,,,,,,,,,,,,,,,,,,,,,,,,,,,,,,,,,,,,,,,,,,,,,,,CS1_USneg,None,1,,,,,,,,,,,,,,,,,,24,f,32,n,2019_Nov_22_1242,ec_RRR,3.0.4,59.87689196817365,
Unkelbach and Hogden,Das Zielwesen für diese Aufgabe ist Bergmite:,"Also sobald Bergmite (sein Name oder sein Bild) auf dem Bildschirm erscheint, drücken Sie so schnell wie möglich die Leertaste. Drücken Sie die Leertaste immer, wenn Sie ein Bild von Bergmite oder das Wort BERGMITE sehen. 

Drücken Sie die Leertaste, um die Aufgabe zu starten.",target3,stimuli/t3.jpg,32,36,stimuli/target3_7.jpg,target,True,space,,,,,,,,,,,,,,0,0,0,0,,,,,0,1,1,2,0,35,35,35,,,,,,,,,,,,,,,,,,,,,,,,,,,,,,,,,,,,,,,,,,,,,,,,,,,,,CS1_USneg,space,1,0.9250443649852969,,,,,,,,,,,,,,,,,24,f,32,n,2019_Nov_22_1242,ec_RRR,3.0.4,59.87689196817365,
Unkelbach and Hogden,Das Zielwesen für diese Aufgabe ist Bergmite:,"Also sobald Bergmite (sein Name oder sein Bild) auf dem Bildschirm erscheint, drücken Sie so schnell wie möglich die Leertaste. Drücken Sie die Leertaste immer, wenn Sie ein Bild von Bergmite oder das Wort BERGMITE sehen. 

Drücken Sie die Leertaste, um die Aufgabe zu starten.",target3,stimuli/t3.jpg,32,37,stimuli/filler11.jpg,filler,False,None,,,,,,,,,,,,,,0,0,0,0,,,,,0,1,1,2,0,36,36,36,,,,,,,,,,,,,,,,,,,,,,,,,,,,,,,,,,,,,,,,,,,,,,,,,,,,,CS1_USneg,None,1,,,,,,,,,,,,,,,,,,24,f,32,n,2019_Nov_22_1242,ec_RRR,3.0.4,59.87689196817365,
Unkelbach and Hogden,Das Zielwesen für diese Aufgabe ist Bergmite:,"Also sobald Bergmite (sein Name oder sein Bild) auf dem Bildschirm erscheint, drücken Sie so schnell wie möglich die Leertaste. Drücken Sie die Leertaste immer, wenn Sie ein Bild von Bergmite oder das Wort BERGMITE sehen. 

Drücken Sie die Leertaste, um die Aufgabe zu starten.",target3,stimuli/t3.jpg,32,38,stimuli/target3_5.jpg,target,True,space,,,,,,,,,,,,,,0,0,0,0,,,,,0,1,1,2,0,37,37,37,,,,,,,,,,,,,,,,,,,,,,,,,,,,,,,,,,,,,,,,,,,,,,,,,,,,,CS1_USneg,space,1,0.5562332803601748,,,,,,,,,,,,,,,,,24,f,32,n,2019_Nov_22_1242,ec_RRR,3.0.4,59.87689196817365,
Unkelbach and Hogden,Das Zielwesen für diese Aufgabe ist Bergmite:,"Also sobald Bergmite (sein Name oder sein Bild) auf dem Bildschirm erscheint, drücken Sie so schnell wie möglich die Leertaste. Drücken Sie die Leertaste immer, wenn Sie ein Bild von Bergmite oder das Wort BERGMITE sehen. 

Drücken Sie die Leertaste, um die Aufgabe zu starten.",target3,stimuli/t3.jpg,32,39,stimuli/filler22.jpg,filler,False,None,,,,,,,,,,,,,,0,0,0,0,,,,,0,1,1,2,0,38,38,38,,,,,,,,,,,,,,,,,,,,,,,,,,,,,,,,,,,,,,,,,,,,,,,,,,,,,CS1_USneg,None,1,,,,,,,,,,,,,,,,,,24,f,32,n,2019_Nov_22_1242,ec_RRR,3.0.4,59.87689196817365,
Unkelbach and Hogden,Das Zielwesen für diese Aufgabe ist Bergmite:,"Also sobald Bergmite (sein Name oder sein Bild) auf dem Bildschirm erscheint, drücken Sie so schnell wie möglich die Leertaste. Drücken Sie die Leertaste immer, wenn Sie ein Bild von Bergmite oder das Wort BERGMITE sehen. 

Drücken Sie die Leertaste, um die Aufgabe zu starten.",target3,stimuli/t3.jpg,32,40,stimuli/blank.jpg,blank,False,None,,,,,,,,,,,,,,0,0,0,0,,,,,0,1,1,2,0,39,39,39,,,,,,,,,,,,,,,,,,,,,,,,,,,,,,,,,,,,,,,,,,,,,,,,,,,,,CS1_USneg,None,1,,,,,,,,,,,,,,,,,,24,f,32,n,2019_Nov_22_1242,ec_RRR,3.0.4,59.87689196817365,
Unkelbach and Hogden,Das Zielwesen für diese Aufgabe ist Bergmite:,"Also sobald Bergmite (sein Name oder sein Bild) auf dem Bildschirm erscheint, drücken Sie so schnell wie möglich die Leertaste. Drücken Sie die Leertaste immer, wenn Sie ein Bild von Bergmite oder das Wort BERGMITE sehen. 

Drücken Sie die Leertaste, um die Aufgabe zu starten.",target3,stimuli/t3.jpg,32,41,stimuli/cs2_pos18.jpg,CSUS,False,None,,,,,,,,,,,,,,0,0,0,0,,,,,0,1,1,2,0,40,40,40,,,,,,,,,,,,,,,,,,,,,,,,,,,,,,,,,,,,,,,,,,,,,,,,,,,,,CS1_USneg,None,1,,,,,,,,,,,,,,,,,,24,f,32,n,2019_Nov_22_1242,ec_RRR,3.0.4,59.87689196817365,
Unkelbach and Hogden,Das Zielwesen für diese Aufgabe ist Bergmite:,"Also sobald Bergmite (sein Name oder sein Bild) auf dem Bildschirm erscheint, drücken Sie so schnell wie möglich die Leertaste. Drücken Sie die Leertaste immer, wenn Sie ein Bild von Bergmite oder das Wort BERGMITE sehen. 

Drücken Sie die Leertaste, um die Aufgabe zu starten.",target3,stimuli/t3.jpg,32,42,stimuli/blank.jpg,blank,False,None,,,,,,,,,,,,,,0,0,0,0,,,,,0,1,1,2,0,41,41,41,,,,,,,,,,,,,,,,,,,,,,,,,,,,,,,,,,,,,,,,,,,,,,,,,,,,,CS1_USneg,None,1,,,,,,,,,,,,,,,,,,24,f,32,n,2019_Nov_22_1242,ec_RRR,3.0.4,59.87689196817365,
Unkelbach and Hogden,Das Zielwesen für diese Aufgabe ist Bergmite:,"Also sobald Bergmite (sein Name oder sein Bild) auf dem Bildschirm erscheint, drücken Sie so schnell wie möglich die Leertaste. Drücken Sie die Leertaste immer, wenn Sie ein Bild von Bergmite oder das Wort BERGMITE sehen. 

Drücken Sie die Leertaste, um die Aufgabe zu starten.",target3,stimuli/t3.jpg,32,43,stimuli/filler33.jpg,filler,False,None,,,,,,,,,,,,,,0,0,0,0,,,,,0,1,1,2,0,42,42,42,,,,,,,,,,,,,,,,,,,,,,,,,,,,,,,,,,,,,,,,,,,,,,,,,,,,,CS1_USneg,None,1,,,,,,,,,,,,,,,,,,24,f,32,n,2019_Nov_22_1242,ec_RRR,3.0.4,59.87689196817365,
Unkelbach and Hogden,Das Zielwesen für diese Aufgabe ist Bergmite:,"Also sobald Bergmite (sein Name oder sein Bild) auf dem Bildschirm erscheint, drücken Sie so schnell wie möglich die Leertaste. Drücken Sie die Leertaste immer, wenn Sie ein Bild von Bergmite oder das Wort BERGMITE sehen. 

Drücken Sie die Leertaste, um die Aufgabe zu starten.",target3,stimuli/t3.jpg,32,44,stimuli/filler13.jpg,filler,False,None,,,,,,,,,,,,,,0,0,0,0,,,,,0,1,1,2,0,43,43,43,,,,,,,,,,,,,,,,,,,,,,,,,,,,,,,,,,,,,,,,,,,,,,,,,,,,,CS1_USneg,None,1,,,,,,,,,,,,,,,,,,24,f,32,n,2019_Nov_22_1242,ec_RRR,3.0.4,59.87689196817365,
Unkelbach and Hogden,Das Zielwesen für diese Aufgabe ist Bergmite:,"Also sobald Bergmite (sein Name oder sein Bild) auf dem Bildschirm erscheint, drücken Sie so schnell wie möglich die Leertaste. Drücken Sie die Leertaste immer, wenn Sie ein Bild von Bergmite oder das Wort BERGMITE sehen. 

Drücken Sie die Leertaste, um die Aufgabe zu starten.",target3,stimuli/t3.jpg,32,45,stimuli/filler21.jpg,filler,False,None,,,,,,,,,,,,,,0,0,0,0,,,,,0,1,1,2,0,44,44,44,,,,,,,,,,,,,,,,,,,,,,,,,,,,,,,,,,,,,,,,,,,,,,,,,,,,,CS1_USneg,None,1,,,,,,,,,,,,,,,,,,24,f,32,n,2019_Nov_22_1242,ec_RRR,3.0.4,59.87689196817365,
Unkelbach and Hogden,Das Zielwesen für diese Aufgabe ist Bergmite:,"Also sobald Bergmite (sein Name oder sein Bild) auf dem Bildschirm erscheint, drücken Sie so schnell wie möglich die Leertaste. Drücken Sie die Leertaste immer, wenn Sie ein Bild von Bergmite oder das Wort BERGMITE sehen. 

Drücken Sie die Leertaste, um die Aufgabe zu starten.",target3,stimuli/t3.jpg,32,46,stimuli/filler51.jpg,filler,False,None,,,,,,,,,,,,,,0,0,0,0,,,,,0,1,1,2,0,45,45,45,,,,,,,,,,,,,,,,,,,,,,,,,,,,,,,,,,,,,,,,,,,,,,,,,,,,,CS1_USneg,None,1,,,,,,,,,,,,,,,,,,24,f,32,n,2019_Nov_22_1242,ec_RRR,3.0.4,59.87689196817365,
Unkelbach and Hogden,Das Zielwesen für diese Aufgabe ist Bergmite:,"Also sobald Bergmite (sein Name oder sein Bild) auf dem Bildschirm erscheint, drücken Sie so schnell wie möglich die Leertaste. Drücken Sie die Leertaste immer, wenn Sie ein Bild von Bergmite oder das Wort BERGMITE sehen. 

Drücken Sie die Leertaste, um die Aufgabe zu starten.",target3,stimuli/t3.jpg,32,47,stimuli/filler7.jpg,filler,False,None,,,,,,,,,,,,,,0,0,0,0,,,,,0,1,1,2,0,46,46,46,,,,,,,,,,,,,,,,,,,,,,,,,,,,,,,,,,,,,,,,,,,,,,,,,,,,,CS1_USneg,None,1,,,,,,,,,,,,,,,,,,24,f,32,n,2019_Nov_22_1242,ec_RRR,3.0.4,59.87689196817365,
Unkelbach and Hogden,Das Zielwesen für diese Aufgabe ist Bergmite:,"Also sobald Bergmite (sein Name oder sein Bild) auf dem Bildschirm erscheint, drücken Sie so schnell wie möglich die Leertaste. Drücken Sie die Leertaste immer, wenn Sie ein Bild von Bergmite oder das Wort BERGMITE sehen. 

Drücken Sie die Leertaste, um die Aufgabe zu starten.",target3,stimuli/t3.jpg,32,48,stimuli/filler28.jpg,filler,False,None,,,,,,,,,,,,,,0,0,0,0,,,,,0,1,1,2,0,47,47,47,,,,,,,,,,,,,,,,,,,,,,,,,,,,,,,,,,,,,,,,,,,,,,,,,,,,,CS1_USneg,None,1,,,,,,,,,,,,,,,,,,24,f,32,n,2019_Nov_22_1242,ec_RRR,3.0.4,59.87689196817365,
Unkelbach and Hogden,Das Zielwesen für diese Aufgabe ist Bergmite:,"Also sobald Bergmite (sein Name oder sein Bild) auf dem Bildschirm erscheint, drücken Sie so schnell wie möglich die Leertaste. Drücken Sie die Leertaste immer, wenn Sie ein Bild von Bergmite oder das Wort BERGMITE sehen. 

Drücken Sie die Leertaste, um die Aufgabe zu starten.",target3,stimuli/t3.jpg,32,49,stimuli/filler45.jpg,filler,False,None,,,,,,,,,,,,,,0,0,0,0,,,,,0,1,1,2,0,48,48,48,,,,,,,,,,,,,,,,,,,,,,,,,,,,,,,,,,,,,,,,,,,,,,,,,,,,,CS1_USneg,None,1,,,,,,,,,,,,,,,,,,24,f,32,n,2019_Nov_22_1242,ec_RRR,3.0.4,59.87689196817365,
Unkelbach and Hogden,Das Zielwesen für diese Aufgabe ist Bergmite:,"Also sobald Bergmite (sein Name oder sein Bild) auf dem Bildschirm erscheint, drücken Sie so schnell wie möglich die Leertaste. Drücken Sie die Leertaste immer, wenn Sie ein Bild von Bergmite oder das Wort BERGMITE sehen. 

Drücken Sie die Leertaste, um die Aufgabe zu starten.",target3,stimuli/t3.jpg,32,50,stimuli/blank.jpg,blank,False,None,,,,,,,,,,,,,,0,0,0,0,,,,,0,1,1,2,0,49,49,49,,,,,,,,,,,,,,,,,,,,,,,,,,,,,,,,,,,,,,,,,,,,,,,,,,,,,CS1_USneg,None,1,,,,,,,,,,,,,,,,,,24,f,32,n,2019_Nov_22_1242,ec_RRR,3.0.4,59.87689196817365,
Unkelbach and Hogden,Das Zielwesen für diese Aufgabe ist Bergmite:,"Also sobald Bergmite (sein Name oder sein Bild) auf dem Bildschirm erscheint, drücken Sie so schnell wie möglich die Leertaste. Drücken Sie die Leertaste immer, wenn Sie ein Bild von Bergmite oder das Wort BERGMITE sehen. 

Drücken Sie die Leertaste, um die Aufgabe zu starten.",target3,stimuli/t3.jpg,32,51,stimuli/cs1_neg1.jpg,CSUS,False,None,,,,,,,,,,,,,,0,0,0,0,,,,,0,1,1,2,0,50,50,50,,,,,,,,,,,,,,,,,,,,,,,,,,,,,,,,,,,,,,,,,,,,,,,,,,,,,CS1_USneg,None,1,,,,,,,,,,,,,,,,,,24,f,32,n,2019_Nov_22_1242,ec_RRR,3.0.4,59.87689196817365,
Unkelbach and Hogden,Das Zielwesen für diese Aufgabe ist Bergmite:,"Also sobald Bergmite (sein Name oder sein Bild) auf dem Bildschirm erscheint, drücken Sie so schnell wie möglich die Leertaste. Drücken Sie die Leertaste immer, wenn Sie ein Bild von Bergmite oder das Wort BERGMITE sehen. 

Drücken Sie die Leertaste, um die Aufgabe zu starten.",target3,stimuli/t3.jpg,32,52,stimuli/blank.jpg,blank,False,None,,,,,,,,,,,,,,0,0,0,0,,,,,0,1,1,2,0,51,51,51,,,,,,,,,,,,,,,,,,,,,,,,,,,,,,,,,,,,,,,,,,,,,,,,,,,,,CS1_USneg,None,1,,,,,,,,,,,,,,,,,,24,f,32,n,2019_Nov_22_1242,ec_RRR,3.0.4,59.87689196817365,
Unkelbach and Hogden,Das Zielwesen für diese Aufgabe ist Bergmite:,"Also sobald Bergmite (sein Name oder sein Bild) auf dem Bildschirm erscheint, drücken Sie so schnell wie möglich die Leertaste. Drücken Sie die Leertaste immer, wenn Sie ein Bild von Bergmite oder das Wort BERGMITE sehen. 

Drücken Sie die Leertaste, um die Aufgabe zu starten.",target3,stimuli/t3.jpg,32,53,stimuli/filler24.jpg,filler,False,None,,,,,,,,,,,,,,0,0,0,0,,,,,0,1,1,2,0,52,52,52,,,,,,,,,,,,,,,,,,,,,,,,,,,,,,,,,,,,,,,,,,,,,,,,,,,,,CS1_USneg,None,1,,,,,,,,,,,,,,,,,,24,f,32,n,2019_Nov_22_1242,ec_RRR,3.0.4,59.87689196817365,
Unkelbach and Hogden,Das Zielwesen für diese Aufgabe ist Bergmite:,"Also sobald Bergmite (sein Name oder sein Bild) auf dem Bildschirm erscheint, drücken Sie so schnell wie möglich die Leertaste. Drücken Sie die Leertaste immer, wenn Sie ein Bild von Bergmite oder das Wort BERGMITE sehen. 

Drücken Sie die Leertaste, um die Aufgabe zu starten.",target3,stimuli/t3.jpg,32,54,stimuli/target3_1.jpg,target,True,space,,,,,,,,,,,,,,0,0,0,0,,,,,0,1,1,2,0,53,53,53,,,,,,,,,,,,,,,,,,,,,,,,,,,,,,,,,,,,,,,,,,,,,,,,,,,,,CS1_USneg,space,1,0.5904810621123033,,,,,,,,,,,,,,,,,24,f,32,n,2019_Nov_22_1242,ec_RRR,3.0.4,59.87689196817365,
Unkelbach and Hogden,Das Zielwesen für diese Aufgabe ist Bergmite:,"Also sobald Bergmite (sein Name oder sein Bild) auf dem Bildschirm erscheint, drücken Sie so schnell wie möglich die Leertaste. Drücken Sie die Leertaste immer, wenn Sie ein Bild von Bergmite oder das Wort BERGMITE sehen. 

Drücken Sie die Leertaste, um die Aufgabe zu starten.",target3,stimuli/t3.jpg,32,55,stimuli/filler42.jpg,filler,False,None,,,,,,,,,,,,,,0,0,0,0,,,,,0,1,1,2,0,54,54,54,,,,,,,,,,,,,,,,,,,,,,,,,,,,,,,,,,,,,,,,,,,,,,,,,,,,,CS1_USneg,None,1,,,,,,,,,,,,,,,,,,24,f,32,n,2019_Nov_22_1242,ec_RRR,3.0.4,59.87689196817365,
Unkelbach and Hogden,Das Zielwesen für diese Aufgabe ist Bergmite:,"Also sobald Bergmite (sein Name oder sein Bild) auf dem Bildschirm erscheint, drücken Sie so schnell wie möglich die Leertaste. Drücken Sie die Leertaste immer, wenn Sie ein Bild von Bergmite oder das Wort BERGMITE sehen. 

Drücken Sie die Leertaste, um die Aufgabe zu starten.",target3,stimuli/t3.jpg,32,56,stimuli/filler43.jpg,filler,False,None,,,,,,,,,,,,,,0,0,0,0,,,,,0,1,1,2,0,55,55,55,,,,,,,,,,,,,,,,,,,,,,,,,,,,,,,,,,,,,,,,,,,,,,,,,,,,,CS1_USneg,None,1,,,,,,,,,,,,,,,,,,24,f,32,n,2019_Nov_22_1242,ec_RRR,3.0.4,59.87689196817365,
Unkelbach and Hogden,Das Zielwesen für diese Aufgabe ist Bergmite:,"Also sobald Bergmite (sein Name oder sein Bild) auf dem Bildschirm erscheint, drücken Sie so schnell wie möglich die Leertaste. Drücken Sie die Leertaste immer, wenn Sie ein Bild von Bergmite oder das Wort BERGMITE sehen. 

Drücken Sie die Leertaste, um die Aufgabe zu starten.",target3,stimuli/t3.jpg,32,57,stimuli/filler4.jpg,filler,False,None,,,,,,,,,,,,,,0,0,0,0,,,,,0,1,1,2,0,56,56,56,,,,,,,,,,,,,,,,,,,,,,,,,,,,,,,,,,,,,,,,,,,,,,,,,,,,,CS1_USneg,None,1,,,,,,,,,,,,,,,,,,24,f,32,n,2019_Nov_22_1242,ec_RRR,3.0.4,59.87689196817365,
Unkelbach and Hogden,Das Zielwesen für diese Aufgabe ist Bergmite:,"Also sobald Bergmite (sein Name oder sein Bild) auf dem Bildschirm erscheint, drücken Sie so schnell wie möglich die Leertaste. Drücken Sie die Leertaste immer, wenn Sie ein Bild von Bergmite oder das Wort BERGMITE sehen. 

Drücken Sie die Leertaste, um die Aufgabe zu starten.",target3,stimuli/t3.jpg,32,58,stimuli/filler27.jpg,filler,False,None,,,,,,,,,,,,,,0,0,0,0,,,,,0,1,1,2,0,57,57,57,,,,,,,,,,,,,,,,,,,,,,,,,,,,,,,,,,,,,,,,,,,,,,,,,,,,,CS1_USneg,None,1,,,,,,,,,,,,,,,,,,24,f,32,n,2019_Nov_22_1242,ec_RRR,3.0.4,59.87689196817365,
Unkelbach and Hogden,Das Zielwesen für diese Aufgabe ist Bergmite:,"Also sobald Bergmite (sein Name oder sein Bild) auf dem Bildschirm erscheint, drücken Sie so schnell wie möglich die Leertaste. Drücken Sie die Leertaste immer, wenn Sie ein Bild von Bergmite oder das Wort BERGMITE sehen. 

Drücken Sie die Leertaste, um die Aufgabe zu starten.",target3,stimuli/t3.jpg,32,59,stimuli/filler14.jpg,filler,False,None,,,,,,,,,,,,,,0,0,0,0,,,,,0,1,1,2,0,58,58,58,,,,,,,,,,,,,,,,,,,,,,,,,,,,,,,,,,,,,,,,,,,,,,,,,,,,,CS1_USneg,None,1,,,,,,,,,,,,,,,,,,24,f,32,n,2019_Nov_22_1242,ec_RRR,3.0.4,59.87689196817365,
Unkelbach and Hogden,Das Zielwesen für diese Aufgabe ist Bergmite:,"Also sobald Bergmite (sein Name oder sein Bild) auf dem Bildschirm erscheint, drücken Sie so schnell wie möglich die Leertaste. Drücken Sie die Leertaste immer, wenn Sie ein Bild von Bergmite oder das Wort BERGMITE sehen. 

Drücken Sie die Leertaste, um die Aufgabe zu starten.",target3,stimuli/t3.jpg,32,60,stimuli/blank.jpg,blank,False,None,,,,,,,,,,,,,,0,0,0,0,,,,,0,1,1,2,0,59,59,59,,,,,,,,,,,,,,,,,,,,,,,,,,,,,,,,,,,,,,,,,,,,,,,,,,,,,CS1_USneg,None,1,,,,,,,,,,,,,,,,,,24,f,32,n,2019_Nov_22_1242,ec_RRR,3.0.4,59.87689196817365,
Unkelbach and Hogden,Das Zielwesen für diese Aufgabe ist Bergmite:,"Also sobald Bergmite (sein Name oder sein Bild) auf dem Bildschirm erscheint, drücken Sie so schnell wie möglich die Leertaste. Drücken Sie die Leertaste immer, wenn Sie ein Bild von Bergmite oder das Wort BERGMITE sehen. 

Drücken Sie die Leertaste, um die Aufgabe zu starten.",target3,stimuli/t3.jpg,32,61,stimuli/cs2_pos5.jpg,CSUS,False,None,,,,,,,,,,,,,,0,0,0,0,,,,,0,1,1,2,0,60,60,60,,,,,,,,,,,,,,,,,,,,,,,,,,,,,,,,,,,,,,,,,,,,,,,,,,,,,CS1_USneg,None,1,,,,,,,,,,,,,,,,,,24,f,32,n,2019_Nov_22_1242,ec_RRR,3.0.4,59.87689196817365,
Unkelbach and Hogden,Das Zielwesen für diese Aufgabe ist Bergmite:,"Also sobald Bergmite (sein Name oder sein Bild) auf dem Bildschirm erscheint, drücken Sie so schnell wie möglich die Leertaste. Drücken Sie die Leertaste immer, wenn Sie ein Bild von Bergmite oder das Wort BERGMITE sehen. 

Drücken Sie die Leertaste, um die Aufgabe zu starten.",target3,stimuli/t3.jpg,32,62,stimuli/blank.jpg,blank,False,None,,,,,,,,,,,,,,0,0,0,0,,,,,0,1,1,2,0,61,61,61,,,,,,,,,,,,,,,,,,,,,,,,,,,,,,,,,,,,,,,,,,,,,,,,,,,,,CS1_USneg,None,1,,,,,,,,,,,,,,,,,,24,f,32,n,2019_Nov_22_1242,ec_RRR,3.0.4,59.87689196817365,
Unkelbach and Hogden,Das Zielwesen für diese Aufgabe ist Bergmite:,"Also sobald Bergmite (sein Name oder sein Bild) auf dem Bildschirm erscheint, drücken Sie so schnell wie möglich die Leertaste. Drücken Sie die Leertaste immer, wenn Sie ein Bild von Bergmite oder das Wort BERGMITE sehen. 

Drücken Sie die Leertaste, um die Aufgabe zu starten.",target3,stimuli/t3.jpg,32,63,stimuli/filler34.jpg,filler,False,None,,,,,,,,,,,,,,0,0,0,0,,,,,0,1,1,2,0,62,62,62,,,,,,,,,,,,,,,,,,,,,,,,,,,,,,,,,,,,,,,,,,,,,,,,,,,,,CS1_USneg,None,1,,,,,,,,,,,,,,,,,,24,f,32,n,2019_Nov_22_1242,ec_RRR,3.0.4,59.87689196817365,
Unkelbach and Hogden,Das Zielwesen für diese Aufgabe ist Bergmite:,"Also sobald Bergmite (sein Name oder sein Bild) auf dem Bildschirm erscheint, drücken Sie so schnell wie möglich die Leertaste. Drücken Sie die Leertaste immer, wenn Sie ein Bild von Bergmite oder das Wort BERGMITE sehen. 

Drücken Sie die Leertaste, um die Aufgabe zu starten.",target3,stimuli/t3.jpg,32,64,stimuli/filler9.jpg,filler,False,None,,,,,,,,,,,,,,0,0,0,0,,,,,0,1,1,2,0,63,63,63,,,,,,,,,,,,,,,,,,,,,,,,,,,,,,,,,,,,,,,,,,,,,,,,,,,,,CS1_USneg,None,1,,,,,,,,,,,,,,,,,,24,f,32,n,2019_Nov_22_1242,ec_RRR,3.0.4,59.87689196817365,
Unkelbach and Hogden,Das Zielwesen für diese Aufgabe ist Bergmite:,"Also sobald Bergmite (sein Name oder sein Bild) auf dem Bildschirm erscheint, drücken Sie so schnell wie möglich die Leertaste. Drücken Sie die Leertaste immer, wenn Sie ein Bild von Bergmite oder das Wort BERGMITE sehen. 

Drücken Sie die Leertaste, um die Aufgabe zu starten.",target3,stimuli/t3.jpg,32,65,stimuli/filler10.jpg,filler,False,None,,,,,,,,,,,,,,0,0,0,0,,,,,0,1,1,2,0,64,64,64,,,,,,,,,,,,,,,,,,,,,,,,,,,,,,,,,,,,,,,,,,,,,,,,,,,,,CS1_USneg,None,1,,,,,,,,,,,,,,,,,,24,f,32,n,2019_Nov_22_1242,ec_RRR,3.0.4,59.87689196817365,
Unkelbach and Hogden,Das Zielwesen für diese Aufgabe ist Bergmite:,"Also sobald Bergmite (sein Name oder sein Bild) auf dem Bildschirm erscheint, drücken Sie so schnell wie möglich die Leertaste. Drücken Sie die Leertaste immer, wenn Sie ein Bild von Bergmite oder das Wort BERGMITE sehen. 

Drücken Sie die Leertaste, um die Aufgabe zu starten.",target3,stimuli/t3.jpg,32,66,stimuli/filler48.jpg,filler,False,None,,,,,,,,,,,,,,0,0,0,0,,,,,0,1,1,2,0,65,65,65,,,,,,,,,,,,,,,,,,,,,,,,,,,,,,,,,,,,,,,,,,,,,,,,,,,,,CS1_USneg,None,1,,,,,,,,,,,,,,,,,,24,f,32,n,2019_Nov_22_1242,ec_RRR,3.0.4,59.87689196817365,
Unkelbach and Hogden,Das Zielwesen für diese Aufgabe ist Bergmite:,"Also sobald Bergmite (sein Name oder sein Bild) auf dem Bildschirm erscheint, drücken Sie so schnell wie möglich die Leertaste. Drücken Sie die Leertaste immer, wenn Sie ein Bild von Bergmite oder das Wort BERGMITE sehen. 

Drücken Sie die Leertaste, um die Aufgabe zu starten.",target3,stimuli/t3.jpg,32,67,stimuli/filler40.jpg,filler,False,None,,,,,,,,,,,,,,0,0,0,0,,,,,0,1,1,2,0,66,66,66,,,,,,,,,,,,,,,,,,,,,,,,,,,,,,,,,,,,,,,,,,,,,,,,,,,,,CS1_USneg,None,1,,,,,,,,,,,,,,,,,,24,f,32,n,2019_Nov_22_1242,ec_RRR,3.0.4,59.87689196817365,
Unkelbach and Hogden,Das Zielwesen für diese Aufgabe ist Bergmite:,"Also sobald Bergmite (sein Name oder sein Bild) auf dem Bildschirm erscheint, drücken Sie so schnell wie möglich die Leertaste. Drücken Sie die Leertaste immer, wenn Sie ein Bild von Bergmite oder das Wort BERGMITE sehen. 

Drücken Sie die Leertaste, um die Aufgabe zu starten.",target3,stimuli/t3.jpg,32,68,stimuli/target3_2.jpg,target,True,space,,,,,,,,,,,,,,0,0,0,0,,,,,0,1,1,2,0,67,67,67,,,,,,,,,,,,,,,,,,,,,,,,,,,,,,,,,,,,,,,,,,,,,,,,,,,,,CS1_USneg,space,1,0.5069457687714021,,,,,,,,,,,,,,,,,24,f,32,n,2019_Nov_22_1242,ec_RRR,3.0.4,59.87689196817365,
Unkelbach and Hogden,Das Zielwesen für diese Aufgabe ist Bergmite:,"Also sobald Bergmite (sein Name oder sein Bild) auf dem Bildschirm erscheint, drücken Sie so schnell wie möglich die Leertaste. Drücken Sie die Leertaste immer, wenn Sie ein Bild von Bergmite oder das Wort BERGMITE sehen. 

Drücken Sie die Leertaste, um die Aufgabe zu starten.",target3,stimuli/t3.jpg,32,69,stimuli/filler3.jpg,filler,False,None,,,,,,,,,,,,,,0,0,0,0,,,,,0,1,1,2,0,68,68,68,,,,,,,,,,,,,,,,,,,,,,,,,,,,,,,,,,,,,,,,,,,,,,,,,,,,,CS1_USneg,None,1,,,,,,,,,,,,,,,,,,24,f,32,n,2019_Nov_22_1242,ec_RRR,3.0.4,59.87689196817365,
Unkelbach and Hogden,Das Zielwesen für diese Aufgabe ist Bergmite:,"Also sobald Bergmite (sein Name oder sein Bild) auf dem Bildschirm erscheint, drücken Sie so schnell wie möglich die Leertaste. Drücken Sie die Leertaste immer, wenn Sie ein Bild von Bergmite oder das Wort BERGMITE sehen. 

Drücken Sie die Leertaste, um die Aufgabe zu starten.",target3,stimuli/t3.jpg,32,70,stimuli/blank.jpg,blank,False,None,,,,,,,,,,,,,,0,0,0,0,,,,,0,1,1,2,0,69,69,69,,,,,,,,,,,,,,,,,,,,,,,,,,,,,,,,,,,,,,,,,,,,,,,,,,,,,CS1_USneg,None,1,,,,,,,,,,,,,,,,,,24,f,32,n,2019_Nov_22_1242,ec_RRR,3.0.4,59.87689196817365,
Unkelbach and Hogden,Das Zielwesen für diese Aufgabe ist Bergmite:,"Also sobald Bergmite (sein Name oder sein Bild) auf dem Bildschirm erscheint, drücken Sie so schnell wie möglich die Leertaste. Drücken Sie die Leertaste immer, wenn Sie ein Bild von Bergmite oder das Wort BERGMITE sehen. 

Drücken Sie die Leertaste, um die Aufgabe zu starten.",target3,stimuli/t3.jpg,32,71,stimuli/cs1_neg14.jpg,CSUS,False,None,,,,,,,,,,,,,,0,0,0,0,,,,,0,1,1,2,0,70,70,70,,,,,,,,,,,,,,,,,,,,,,,,,,,,,,,,,,,,,,,,,,,,,,,,,,,,,CS1_USneg,None,1,,,,,,,,,,,,,,,,,,24,f,32,n,2019_Nov_22_1242,ec_RRR,3.0.4,59.87689196817365,
Unkelbach and Hogden,Das Zielwesen für diese Aufgabe ist Bergmite:,"Also sobald Bergmite (sein Name oder sein Bild) auf dem Bildschirm erscheint, drücken Sie so schnell wie möglich die Leertaste. Drücken Sie die Leertaste immer, wenn Sie ein Bild von Bergmite oder das Wort BERGMITE sehen. 

Drücken Sie die Leertaste, um die Aufgabe zu starten.",target3,stimuli/t3.jpg,32,72,stimuli/blank.jpg,blank,False,None,,,,,,,,,,,,,,0,0,0,0,,,,,0,1,1,2,0,71,71,71,,,,,,,,,,,,,,,,,,,,,,,,,,,,,,,,,,,,,,,,,,,,,,,,,,,,,CS1_USneg,None,1,,,,,,,,,,,,,,,,,,24,f,32,n,2019_Nov_22_1242,ec_RRR,3.0.4,59.87689196817365,
Unkelbach and Hogden,Das Zielwesen für diese Aufgabe ist Bergmite:,"Also sobald Bergmite (sein Name oder sein Bild) auf dem Bildschirm erscheint, drücken Sie so schnell wie möglich die Leertaste. Drücken Sie die Leertaste immer, wenn Sie ein Bild von Bergmite oder das Wort BERGMITE sehen. 

Drücken Sie die Leertaste, um die Aufgabe zu starten.",target3,stimuli/t3.jpg,32,73,stimuli/target3_6.jpg,target,True,space,,,,,,,,,,,,,,0,0,0,0,,,,,0,1,1,2,0,72,72,72,,,,,,,,,,,,,,,,,,,,,,,,,,,,,,,,,,,,,,,,,,,,,,,,,,,,,CS1_USneg,space,1,0.8571646139589575,,,,,,,,,,,,,,,,,24,f,32,n,2019_Nov_22_1242,ec_RRR,3.0.4,59.87689196817365,
Unkelbach and Hogden,Das Zielwesen für diese Aufgabe ist Bergmite:,"Also sobald Bergmite (sein Name oder sein Bild) auf dem Bildschirm erscheint, drücken Sie so schnell wie möglich die Leertaste. Drücken Sie die Leertaste immer, wenn Sie ein Bild von Bergmite oder das Wort BERGMITE sehen. 

