data_collection_site,instructions_text_top,instructions_text_bottom,block_id,example_image,participant,trial_number,stimulus,trial_type,target_trial,surveillance_correct_response,filler_1_items,filler_2_items,middle_text,left_text,right_text,evaluation_stimulus,left_stimulus,right_stimulus,evaluation_response_indicating_CS1_preferred,awareness_1_question_text,awareness_2a_question_text,awareness_2b_question_text,awareness_2_question_text,record_data_collection_site_variable.thisRepN,record_data_collection_site_variable.thisTrialN,record_data_collection_site_variable.thisN,record_data_collection_site_variable.thisIndex,surveillance_instructions_loop.thisRepN,surveillance_instructions_loop.thisTrialN,surveillance_instructions_loop.thisN,surveillance_instructions_loop.thisIndex,surveillance_blocks_loop.thisRepN,surveillance_blocks_loop.thisTrialN,surveillance_blocks_loop.thisN,surveillance_blocks_loop.thisIndex,surveillance_trials_loop.thisRepN,surveillance_trials_loop.thisTrialN,surveillance_trials_loop.thisN,surveillance_trials_loop.thisIndex,filler_1_instructions_loop.thisRepN,filler_1_instructions_loop.thisTrialN,filler_1_instructions_loop.thisN,filler_1_instructions_loop.thisIndex,filler_1_loop.thisRepN,filler_1_loop.thisTrialN,filler_1_loop.thisN,filler_1_loop.thisIndex,filler_2_instructions_loop.thisRepN,filler_2_instructions_loop.thisTrialN,filler_2_instructions_loop.thisN,filler_2_instructions_loop.thisIndex,filler_2_loop.thisRepN,filler_2_loop.thisTrialN,filler_2_loop.thisN,filler_2_loop.thisIndex,evaluation_instructions_loop.thisRepN,evaluation_instructions_loop.thisTrialN,evaluation_instructions_loop.thisN,evaluation_instructions_loop.thisIndex,evaluation_loop.thisRepN,evaluation_loop.thisTrialN,evaluation_loop.thisN,evaluation_loop.thisIndex,evaluation_trials.thisRepN,evaluation_trials.thisTrialN,evaluation_trials.thisN,evaluation_trials.thisIndex,awareness_instructions_loop.thisRepN,awareness_instructions_loop.thisTrialN,awareness_instructions_loop.thisN,awareness_instructions_loop.thisIndex,awareness_1_trials_loop.thisRepN,awareness_1_trials_loop.thisTrialN,awareness_1_trials_loop.thisN,awareness_1_trials_loop.thisIndex,awareness_2a_trials_loop.thisRepN,awareness_2a_trials_loop.thisTrialN,awareness_2a_trials_loop.thisN,awareness_2a_trials_loop.thisIndex,awareness_2b_trials_loop.thisRepN,awareness_2b_trials_loop.thisTrialN,awareness_2b_trials_loop.thisN,awareness_2b_trials_loop.thisIndex,awareness_2c_trials_loop.thisRepN,awareness_2c_trials_loop.thisTrialN,awareness_2c_trials_loop.thisN,awareness_2c_trials_loop.thisIndex,end_message_loop.thisRepN,end_message_loop.thisTrialN,end_message_loop.thisN,end_message_loop.thisIndex,condition,surveillance_response.keys,surveillance_response.corr,surveillance_response.rt,filler_1_rating.response,filler_1_rating.rt,filler_2_rating.response,filler_2_rating.rt,evaluation_response.keys,evaluation_response.corr,evaluation_response.rt,inputText,awareness_1_response.keys,awareness_1_response.rt,awareness_type_2a_rating.response,awareness_type_2a_rating.rt,awareness_type_2b_rating.response,awareness_type_2b_rating.rt,awareness_type_2c_rating.response,awareness_type_2c_rating.rt,age,gender,participant,UseMonkey,date,expName,psychopyVersion,frameRate,
Unkelbach and Hogden,Das Zielwesen für diese Aufgabe ist Shelmet:,"Also sobald Shelmet (sein Name oder sein Bild) auf dem Bildschirm erscheint, drücken Sie so schnell wie möglich die Leertaste. Drücken Sie die Leertaste immer, wenn Sie ein Bild von Shelmet oder das Wort SHELMET sehen. 

Drücken Sie die Leertaste, um die Aufgabe zu starten.",target2,stimuli/t2.jpg,77,1,stimuli/filler8.jpg,filler,False,None,,,,,,,,,,,,,,0,0,0,0,,,,,0,0,0,1,0,0,0,0,,,,,,,,,,,,,,,,,,,,,,,,,,,,,,,,,,,,,,,,,,,,,,,,,,,,,CS1_USneg,None,1,,,,,,,,,,,,,,,,,,21,f,77,n,2019_Nov_27_1317,ec_RRR,3.0.4,59.99513352015485,
Unkelbach and Hogden,Das Zielwesen für diese Aufgabe ist Shelmet:,"Also sobald Shelmet (sein Name oder sein Bild) auf dem Bildschirm erscheint, drücken Sie so schnell wie möglich die Leertaste. Drücken Sie die Leertaste immer, wenn Sie ein Bild von Shelmet oder das Wort SHELMET sehen. 

Drücken Sie die Leertaste, um die Aufgabe zu starten.",target2,stimuli/t2.jpg,77,2,stimuli/filler15.jpg,filler,False,None,,,,,,,,,,,,,,0,0,0,0,,,,,0,0,0,1,0,1,1,1,,,,,,,,,,,,,,,,,,,,,,,,,,,,,,,,,,,,,,,,,,,,,,,,,,,,,CS1_USneg,None,1,,,,,,,,,,,,,,,,,,21,f,77,n,2019_Nov_27_1317,ec_RRR,3.0.4,59.99513352015485,
Unkelbach and Hogden,Das Zielwesen für diese Aufgabe ist Shelmet:,"Also sobald Shelmet (sein Name oder sein Bild) auf dem Bildschirm erscheint, drücken Sie so schnell wie möglich die Leertaste. Drücken Sie die Leertaste immer, wenn Sie ein Bild von Shelmet oder das Wort SHELMET sehen. 

Drücken Sie die Leertaste, um die Aufgabe zu starten.",target2,stimuli/t2.jpg,77,3,stimuli/filler45.jpg,filler,False,None,,,,,,,,,,,,,,0,0,0,0,,,,,0,0,0,1,0,2,2,2,,,,,,,,,,,,,,,,,,,,,,,,,,,,,,,,,,,,,,,,,,,,,,,,,,,,,CS1_USneg,None,1,,,,,,,,,,,,,,,,,,21,f,77,n,2019_Nov_27_1317,ec_RRR,3.0.4,59.99513352015485,
Unkelbach and Hogden,Das Zielwesen für diese Aufgabe ist Shelmet:,"Also sobald Shelmet (sein Name oder sein Bild) auf dem Bildschirm erscheint, drücken Sie so schnell wie möglich die Leertaste. Drücken Sie die Leertaste immer, wenn Sie ein Bild von Shelmet oder das Wort SHELMET sehen. 

Drücken Sie die Leertaste, um die Aufgabe zu starten.",target2,stimuli/t2.jpg,77,4,stimuli/filler48.jpg,filler,False,None,,,,,,,,,,,,,,0,0,0,0,,,,,0,0,0,1,0,3,3,3,,,,,,,,,,,,,,,,,,,,,,,,,,,,,,,,,,,,,,,,,,,,,,,,,,,,,CS1_USneg,None,1,,,,,,,,,,,,,,,,,,21,f,77,n,2019_Nov_27_1317,ec_RRR,3.0.4,59.99513352015485,
Unkelbach and Hogden,Das Zielwesen für diese Aufgabe ist Shelmet:,"Also sobald Shelmet (sein Name oder sein Bild) auf dem Bildschirm erscheint, drücken Sie so schnell wie möglich die Leertaste. Drücken Sie die Leertaste immer, wenn Sie ein Bild von Shelmet oder das Wort SHELMET sehen. 

Drücken Sie die Leertaste, um die Aufgabe zu starten.",target2,stimuli/t2.jpg,77,5,stimuli/filler32.jpg,filler,False,None,,,,,,,,,,,,,,0,0,0,0,,,,,0,0,0,1,0,4,4,4,,,,,,,,,,,,,,,,,,,,,,,,,,,,,,,,,,,,,,,,,,,,,,,,,,,,,CS1_USneg,None,1,,,,,,,,,,,,,,,,,,21,f,77,n,2019_Nov_27_1317,ec_RRR,3.0.4,59.99513352015485,
Unkelbach and Hogden,Das Zielwesen für diese Aufgabe ist Shelmet:,"Also sobald Shelmet (sein Name oder sein Bild) auf dem Bildschirm erscheint, drücken Sie so schnell wie möglich die Leertaste. Drücken Sie die Leertaste immer, wenn Sie ein Bild von Shelmet oder das Wort SHELMET sehen. 

Drücken Sie die Leertaste, um die Aufgabe zu starten.",target2,stimuli/t2.jpg,77,6,stimuli/filler10.jpg,filler,False,None,,,,,,,,,,,,,,0,0,0,0,,,,,0,0,0,1,0,5,5,5,,,,,,,,,,,,,,,,,,,,,,,,,,,,,,,,,,,,,,,,,,,,,,,,,,,,,CS1_USneg,None,1,,,,,,,,,,,,,,,,,,21,f,77,n,2019_Nov_27_1317,ec_RRR,3.0.4,59.99513352015485,
Unkelbach and Hogden,Das Zielwesen für diese Aufgabe ist Shelmet:,"Also sobald Shelmet (sein Name oder sein Bild) auf dem Bildschirm erscheint, drücken Sie so schnell wie möglich die Leertaste. Drücken Sie die Leertaste immer, wenn Sie ein Bild von Shelmet oder das Wort SHELMET sehen. 

Drücken Sie die Leertaste, um die Aufgabe zu starten.",target2,stimuli/t2.jpg,77,7,stimuli/filler14.jpg,filler,False,None,,,,,,,,,,,,,,0,0,0,0,,,,,0,0,0,1,0,6,6,6,,,,,,,,,,,,,,,,,,,,,,,,,,,,,,,,,,,,,,,,,,,,,,,,,,,,,CS1_USneg,None,1,,,,,,,,,,,,,,,,,,21,f,77,n,2019_Nov_27_1317,ec_RRR,3.0.4,59.99513352015485,
Unkelbach and Hogden,Das Zielwesen für diese Aufgabe ist Shelmet:,"Also sobald Shelmet (sein Name oder sein Bild) auf dem Bildschirm erscheint, drücken Sie so schnell wie möglich die Leertaste. Drücken Sie die Leertaste immer, wenn Sie ein Bild von Shelmet oder das Wort SHELMET sehen. 

Drücken Sie die Leertaste, um die Aufgabe zu starten.",target2,stimuli/t2.jpg,77,8,stimuli/filler51.jpg,filler,False,None,,,,,,,,,,,,,,0,0,0,0,,,,,0,0,0,1,0,7,7,7,,,,,,,,,,,,,,,,,,,,,,,,,,,,,,,,,,,,,,,,,,,,,,,,,,,,,CS1_USneg,None,1,,,,,,,,,,,,,,,,,,21,f,77,n,2019_Nov_27_1317,ec_RRR,3.0.4,59.99513352015485,
Unkelbach and Hogden,Das Zielwesen für diese Aufgabe ist Shelmet:,"Also sobald Shelmet (sein Name oder sein Bild) auf dem Bildschirm erscheint, drücken Sie so schnell wie möglich die Leertaste. Drücken Sie die Leertaste immer, wenn Sie ein Bild von Shelmet oder das Wort SHELMET sehen. 

Drücken Sie die Leertaste, um die Aufgabe zu starten.",target2,stimuli/t2.jpg,77,9,stimuli/target2_7.jpg,target,True,space,,,,,,,,,,,,,,0,0,0,0,,,,,0,0,0,1,0,8,8,8,,,,,,,,,,,,,,,,,,,,,,,,,,,,,,,,,,,,,,,,,,,,,,,,,,,,,CS1_USneg,space,1,0.563869118821458,,,,,,,,,,,,,,,,,21,f,77,n,2019_Nov_27_1317,ec_RRR,3.0.4,59.99513352015485,
Unkelbach and Hogden,Das Zielwesen für diese Aufgabe ist Shelmet:,"Also sobald Shelmet (sein Name oder sein Bild) auf dem Bildschirm erscheint, drücken Sie so schnell wie möglich die Leertaste. Drücken Sie die Leertaste immer, wenn Sie ein Bild von Shelmet oder das Wort SHELMET sehen. 

Drücken Sie die Leertaste, um die Aufgabe zu starten.",target2,stimuli/t2.jpg,77,10,stimuli/blank.jpg,blank,False,None,,,,,,,,,,,,,,0,0,0,0,,,,,0,0,0,1,0,9,9,9,,,,,,,,,,,,,,,,,,,,,,,,,,,,,,,,,,,,,,,,,,,,,,,,,,,,,CS1_USneg,None,1,,,,,,,,,,,,,,,,,,21,f,77,n,2019_Nov_27_1317,ec_RRR,3.0.4,59.99513352015485,
Unkelbach and Hogden,Das Zielwesen für diese Aufgabe ist Shelmet:,"Also sobald Shelmet (sein Name oder sein Bild) auf dem Bildschirm erscheint, drücken Sie so schnell wie möglich die Leertaste. Drücken Sie die Leertaste immer, wenn Sie ein Bild von Shelmet oder das Wort SHELMET sehen. 

Drücken Sie die Leertaste, um die Aufgabe zu starten.",target2,stimuli/t2.jpg,77,11,stimuli/cs1_neg8.jpg,CSUS,False,None,,,,,,,,,,,,,,0,0,0,0,,,,,0,0,0,1,0,10,10,10,,,,,,,,,,,,,,,,,,,,,,,,,,,,,,,,,,,,,,,,,,,,,,,,,,,,,CS1_USneg,None,1,,,,,,,,,,,,,,,,,,21,f,77,n,2019_Nov_27_1317,ec_RRR,3.0.4,59.99513352015485,
Unkelbach and Hogden,Das Zielwesen für diese Aufgabe ist Shelmet:,"Also sobald Shelmet (sein Name oder sein Bild) auf dem Bildschirm erscheint, drücken Sie so schnell wie möglich die Leertaste. Drücken Sie die Leertaste immer, wenn Sie ein Bild von Shelmet oder das Wort SHELMET sehen. 

Drücken Sie die Leertaste, um die Aufgabe zu starten.",target2,stimuli/t2.jpg,77,12,stimuli/blank.jpg,blank,False,None,,,,,,,,,,,,,,0,0,0,0,,,,,0,0,0,1,0,11,11,11,,,,,,,,,,,,,,,,,,,,,,,,,,,,,,,,,,,,,,,,,,,,,,,,,,,,,CS1_USneg,None,1,,,,,,,,,,,,,,,,,,21,f,77,n,2019_Nov_27_1317,ec_RRR,3.0.4,59.99513352015485,
Unkelbach and Hogden,Das Zielwesen für diese Aufgabe ist Shelmet:,"Also sobald Shelmet (sein Name oder sein Bild) auf dem Bildschirm erscheint, drücken Sie so schnell wie möglich die Leertaste. Drücken Sie die Leertaste immer, wenn Sie ein Bild von Shelmet oder das Wort SHELMET sehen. 

Drücken Sie die Leertaste, um die Aufgabe zu starten.",target2,stimuli/t2.jpg,77,13,stimuli/target2_6.jpg,target,True,space,,,,,,,,,,,,,,0,0,0,0,,,,,0,0,0,1,0,12,12,12,,,,,,,,,,,,,,,,,,,,,,,,,,,,,,,,,,,,,,,,,,,,,,,,,,,,,CS1_USneg,space,1,0.5787230182286294,,,,,,,,,,,,,,,,,21,f,77,n,2019_Nov_27_1317,ec_RRR,3.0.4,59.99513352015485,
Unkelbach and Hogden,Das Zielwesen für diese Aufgabe ist Shelmet:,"Also sobald Shelmet (sein Name oder sein Bild) auf dem Bildschirm erscheint, drücken Sie so schnell wie möglich die Leertaste. Drücken Sie die Leertaste immer, wenn Sie ein Bild von Shelmet oder das Wort SHELMET sehen. 

Drücken Sie die Leertaste, um die Aufgabe zu starten.",target2,stimuli/t2.jpg,77,14,stimuli/target2_2.jpg,target,True,space,,,,,,,,,,,,,,0,0,0,0,,,,,0,0,0,1,0,13,13,13,,,,,,,,,,,,,,,,,,,,,,,,,,,,,,,,,,,,,,,,,,,,,,,,,,,,,CS1_USneg,space,1,0.6464384577102464,,,,,,,,,,,,,,,,,21,f,77,n,2019_Nov_27_1317,ec_RRR,3.0.4,59.99513352015485,
Unkelbach and Hogden,Das Zielwesen für diese Aufgabe ist Shelmet:,"Also sobald Shelmet (sein Name oder sein Bild) auf dem Bildschirm erscheint, drücken Sie so schnell wie möglich die Leertaste. Drücken Sie die Leertaste immer, wenn Sie ein Bild von Shelmet oder das Wort SHELMET sehen. 

Drücken Sie die Leertaste, um die Aufgabe zu starten.",target2,stimuli/t2.jpg,77,15,stimuli/filler49.jpg,filler,False,None,,,,,,,,,,,,,,0,0,0,0,,,,,0,0,0,1,0,14,14,14,,,,,,,,,,,,,,,,,,,,,,,,,,,,,,,,,,,,,,,,,,,,,,,,,,,,,CS1_USneg,None,1,,,,,,,,,,,,,,,,,,21,f,77,n,2019_Nov_27_1317,ec_RRR,3.0.4,59.99513352015485,
Unkelbach and Hogden,Das Zielwesen für diese Aufgabe ist Shelmet:,"Also sobald Shelmet (sein Name oder sein Bild) auf dem Bildschirm erscheint, drücken Sie so schnell wie möglich die Leertaste. Drücken Sie die Leertaste immer, wenn Sie ein Bild von Shelmet oder das Wort SHELMET sehen. 

Drücken Sie die Leertaste, um die Aufgabe zu starten.",target2,stimuli/t2.jpg,77,16,stimuli/filler39.jpg,filler,False,None,,,,,,,,,,,,,,0,0,0,0,,,,,0,0,0,1,0,15,15,15,,,,,,,,,,,,,,,,,,,,,,,,,,,,,,,,,,,,,,,,,,,,,,,,,,,,,CS1_USneg,None,1,,,,,,,,,,,,,,,,,,21,f,77,n,2019_Nov_27_1317,ec_RRR,3.0.4,59.99513352015485,
Unkelbach and Hogden,Das Zielwesen für diese Aufgabe ist Shelmet:,"Also sobald Shelmet (sein Name oder sein Bild) auf dem Bildschirm erscheint, drücken Sie so schnell wie möglich die Leertaste. Drücken Sie die Leertaste immer, wenn Sie ein Bild von Shelmet oder das Wort SHELMET sehen. 

Drücken Sie die Leertaste, um die Aufgabe zu starten.",target2,stimuli/t2.jpg,77,17,stimuli/filler43.jpg,filler,False,None,,,,,,,,,,,,,,0,0,0,0,,,,,0,0,0,1,0,16,16,16,,,,,,,,,,,,,,,,,,,,,,,,,,,,,,,,,,,,,,,,,,,,,,,,,,,,,CS1_USneg,None,1,,,,,,,,,,,,,,,,,,21,f,77,n,2019_Nov_27_1317,ec_RRR,3.0.4,59.99513352015485,
Unkelbach and Hogden,Das Zielwesen für diese Aufgabe ist Shelmet:,"Also sobald Shelmet (sein Name oder sein Bild) auf dem Bildschirm erscheint, drücken Sie so schnell wie möglich die Leertaste. Drücken Sie die Leertaste immer, wenn Sie ein Bild von Shelmet oder das Wort SHELMET sehen. 

Drücken Sie die Leertaste, um die Aufgabe zu starten.",target2,stimuli/t2.jpg,77,18,stimuli/filler30.jpg,filler,False,None,,,,,,,,,,,,,,0,0,0,0,,,,,0,0,0,1,0,17,17,17,,,,,,,,,,,,,,,,,,,,,,,,,,,,,,,,,,,,,,,,,,,,,,,,,,,,,CS1_USneg,None,1,,,,,,,,,,,,,,,,,,21,f,77,n,2019_Nov_27_1317,ec_RRR,3.0.4,59.99513352015485,
Unkelbach and Hogden,Das Zielwesen für diese Aufgabe ist Shelmet:,"Also sobald Shelmet (sein Name oder sein Bild) auf dem Bildschirm erscheint, drücken Sie so schnell wie möglich die Leertaste. Drücken Sie die Leertaste immer, wenn Sie ein Bild von Shelmet oder das Wort SHELMET sehen. 

Drücken Sie die Leertaste, um die Aufgabe zu starten.",target2,stimuli/t2.jpg,77,19,stimuli/filler38.jpg,filler,False,None,,,,,,,,,,,,,,0,0,0,0,,,,,0,0,0,1,0,18,18,18,,,,,,,,,,,,,,,,,,,,,,,,,,,,,,,,,,,,,,,,,,,,,,,,,,,,,CS1_USneg,None,1,,,,,,,,,,,,,,,,,,21,f,77,n,2019_Nov_27_1317,ec_RRR,3.0.4,59.99513352015485,
Unkelbach and Hogden,Das Zielwesen für diese Aufgabe ist Shelmet:,"Also sobald Shelmet (sein Name oder sein Bild) auf dem Bildschirm erscheint, drücken Sie so schnell wie möglich die Leertaste. Drücken Sie die Leertaste immer, wenn Sie ein Bild von Shelmet oder das Wort SHELMET sehen. 

Drücken Sie die Leertaste, um die Aufgabe zu starten.",target2,stimuli/t2.jpg,77,20,stimuli/blank.jpg,blank,False,None,,,,,,,,,,,,,,0,0,0,0,,,,,0,0,0,1,0,19,19,19,,,,,,,,,,,,,,,,,,,,,,,,,,,,,,,,,,,,,,,,,,,,,,,,,,,,,CS1_USneg,None,1,,,,,,,,,,,,,,,,,,21,f,77,n,2019_Nov_27_1317,ec_RRR,3.0.4,59.99513352015485,
Unkelbach and Hogden,Das Zielwesen für diese Aufgabe ist Shelmet:,"Also sobald Shelmet (sein Name oder sein Bild) auf dem Bildschirm erscheint, drücken Sie so schnell wie möglich die Leertaste. Drücken Sie die Leertaste immer, wenn Sie ein Bild von Shelmet oder das Wort SHELMET sehen. 

Drücken Sie die Leertaste, um die Aufgabe zu starten.",target2,stimuli/t2.jpg,77,21,stimuli/cs2_pos11.jpg,CSUS,False,None,,,,,,,,,,,,,,0,0,0,0,,,,,0,0,0,1,0,20,20,20,,,,,,,,,,,,,,,,,,,,,,,,,,,,,,,,,,,,,,,,,,,,,,,,,,,,,CS1_USneg,None,1,,,,,,,,,,,,,,,,,,21,f,77,n,2019_Nov_27_1317,ec_RRR,3.0.4,59.99513352015485,
Unkelbach and Hogden,Das Zielwesen für diese Aufgabe ist Shelmet:,"Also sobald Shelmet (sein Name oder sein Bild) auf dem Bildschirm erscheint, drücken Sie so schnell wie möglich die Leertaste. Drücken Sie die Leertaste immer, wenn Sie ein Bild von Shelmet oder das Wort SHELMET sehen. 

Drücken Sie die Leertaste, um die Aufgabe zu starten.",target2,stimuli/t2.jpg,77,22,stimuli/blank.jpg,blank,False,None,,,,,,,,,,,,,,0,0,0,0,,,,,0,0,0,1,0,21,21,21,,,,,,,,,,,,,,,,,,,,,,,,,,,,,,,,,,,,,,,,,,,,,,,,,,,,,CS1_USneg,None,1,,,,,,,,,,,,,,,,,,21,f,77,n,2019_Nov_27_1317,ec_RRR,3.0.4,59.99513352015485,
Unkelbach and Hogden,Das Zielwesen für diese Aufgabe ist Shelmet:,"Also sobald Shelmet (sein Name oder sein Bild) auf dem Bildschirm erscheint, drücken Sie so schnell wie möglich die Leertaste. Drücken Sie die Leertaste immer, wenn Sie ein Bild von Shelmet oder das Wort SHELMET sehen. 

Drücken Sie die Leertaste, um die Aufgabe zu starten.",target2,stimuli/t2.jpg,77,23,stimuli/filler42.jpg,filler,False,None,,,,,,,,,,,,,,0,0,0,0,,,,,0,0,0,1,0,22,22,22,,,,,,,,,,,,,,,,,,,,,,,,,,,,,,,,,,,,,,,,,,,,,,,,,,,,,CS1_USneg,None,1,,,,,,,,,,,,,,,,,,21,f,77,n,2019_Nov_27_1317,ec_RRR,3.0.4,59.99513352015485,
Unkelbach and Hogden,Das Zielwesen für diese Aufgabe ist Shelmet:,"Also sobald Shelmet (sein Name oder sein Bild) auf dem Bildschirm erscheint, drücken Sie so schnell wie möglich die Leertaste. Drücken Sie die Leertaste immer, wenn Sie ein Bild von Shelmet oder das Wort SHELMET sehen. 

Drücken Sie die Leertaste, um die Aufgabe zu starten.",target2,stimuli/t2.jpg,77,24,stimuli/target2_8.jpg,target,True,space,,,,,,,,,,,,,,0,0,0,0,,,,,0,0,0,1,0,23,23,23,,,,,,,,,,,,,,,,,,,,,,,,,,,,,,,,,,,,,,,,,,,,,,,,,,,,,CS1_USneg,space,1,0.5850274415570311,,,,,,,,,,,,,,,,,21,f,77,n,2019_Nov_27_1317,ec_RRR,3.0.4,59.99513352015485,
Unkelbach and Hogden,Das Zielwesen für diese Aufgabe ist Shelmet:,"Also sobald Shelmet (sein Name oder sein Bild) auf dem Bildschirm erscheint, drücken Sie so schnell wie möglich die Leertaste. Drücken Sie die Leertaste immer, wenn Sie ein Bild von Shelmet oder das Wort SHELMET sehen. 

Drücken Sie die Leertaste, um die Aufgabe zu starten.",target2,stimuli/t2.jpg,77,25,stimuli/filler25.jpg,filler,False,None,,,,,,,,,,,,,,0,0,0,0,,,,,0,0,0,1,0,24,24,24,,,,,,,,,,,,,,,,,,,,,,,,,,,,,,,,,,,,,,,,,,,,,,,,,,,,,CS1_USneg,None,1,,,,,,,,,,,,,,,,,,21,f,77,n,2019_Nov_27_1317,ec_RRR,3.0.4,59.99513352015485,
Unkelbach and Hogden,Das Zielwesen für diese Aufgabe ist Shelmet:,"Also sobald Shelmet (sein Name oder sein Bild) auf dem Bildschirm erscheint, drücken Sie so schnell wie möglich die Leertaste. Drücken Sie die Leertaste immer, wenn Sie ein Bild von Shelmet oder das Wort SHELMET sehen. 

Drücken Sie die Leertaste, um die Aufgabe zu starten.",target2,stimuli/t2.jpg,77,26,stimuli/filler19.jpg,filler,False,None,,,,,,,,,,,,,,0,0,0,0,,,,,0,0,0,1,0,25,25,25,,,,,,,,,,,,,,,,,,,,,,,,,,,,,,,,,,,,,,,,,,,,,,,,,,,,,CS1_USneg,None,1,,,,,,,,,,,,,,,,,,21,f,77,n,2019_Nov_27_1317,ec_RRR,3.0.4,59.99513352015485,
Unkelbach and Hogden,Das Zielwesen für diese Aufgabe ist Shelmet:,"Also sobald Shelmet (sein Name oder sein Bild) auf dem Bildschirm erscheint, drücken Sie so schnell wie möglich die Leertaste. Drücken Sie die Leertaste immer, wenn Sie ein Bild von Shelmet oder das Wort SHELMET sehen. 

Drücken Sie die Leertaste, um die Aufgabe zu starten.",target2,stimuli/t2.jpg,77,27,stimuli/filler46.jpg,filler,False,None,,,,,,,,,,,,,,0,0,0,0,,,,,0,0,0,1,0,26,26,26,,,,,,,,,,,,,,,,,,,,,,,,,,,,,,,,,,,,,,,,,,,,,,,,,,,,,CS1_USneg,None,1,,,,,,,,,,,,,,,,,,21,f,77,n,2019_Nov_27_1317,ec_RRR,3.0.4,59.99513352015485,
Unkelbach and Hogden,Das Zielwesen für diese Aufgabe ist Shelmet:,"Also sobald Shelmet (sein Name oder sein Bild) auf dem Bildschirm erscheint, drücken Sie so schnell wie möglich die Leertaste. Drücken Sie die Leertaste immer, wenn Sie ein Bild von Shelmet oder das Wort SHELMET sehen. 

Drücken Sie die Leertaste, um die Aufgabe zu starten.",target2,stimuli/t2.jpg,77,28,stimuli/filler20.jpg,filler,False,None,,,,,,,,,,,,,,0,0,0,0,,,,,0,0,0,1,0,27,27,27,,,,,,,,,,,,,,,,,,,,,,,,,,,,,,,,,,,,,,,,,,,,,,,,,,,,,CS1_USneg,None,1,,,,,,,,,,,,,,,,,,21,f,77,n,2019_Nov_27_1317,ec_RRR,3.0.4,59.99513352015485,
Unkelbach and Hogden,Das Zielwesen für diese Aufgabe ist Shelmet:,"Also sobald Shelmet (sein Name oder sein Bild) auf dem Bildschirm erscheint, drücken Sie so schnell wie möglich die Leertaste. Drücken Sie die Leertaste immer, wenn Sie ein Bild von Shelmet oder das Wort SHELMET sehen. 

Drücken Sie die Leertaste, um die Aufgabe zu starten.",target2,stimuli/t2.jpg,77,29,stimuli/filler12.jpg,filler,False,None,,,,,,,,,,,,,,0,0,0,0,,,,,0,0,0,1,0,28,28,28,,,,,,,,,,,,,,,,,,,,,,,,,,,,,,,,,,,,,,,,,,,,,,,,,,,,,CS1_USneg,None,1,,,,,,,,,,,,,,,,,,21,f,77,n,2019_Nov_27_1317,ec_RRR,3.0.4,59.99513352015485,
Unkelbach and Hogden,Das Zielwesen für diese Aufgabe ist Shelmet:,"Also sobald Shelmet (sein Name oder sein Bild) auf dem Bildschirm erscheint, drücken Sie so schnell wie möglich die Leertaste. Drücken Sie die Leertaste immer, wenn Sie ein Bild von Shelmet oder das Wort SHELMET sehen. 

Drücken Sie die Leertaste, um die Aufgabe zu starten.",target2,stimuli/t2.jpg,77,30,stimuli/blank.jpg,blank,False,None,,,,,,,,,,,,,,0,0,0,0,,,,,0,0,0,1,0,29,29,29,,,,,,,,,,,,,,,,,,,,,,,,,,,,,,,,,,,,,,,,,,,,,,,,,,,,,CS1_USneg,None,1,,,,,,,,,,,,,,,,,,21,f,77,n,2019_Nov_27_1317,ec_RRR,3.0.4,59.99513352015485,
Unkelbach and Hogden,Das Zielwesen für diese Aufgabe ist Shelmet:,"Also sobald Shelmet (sein Name oder sein Bild) auf dem Bildschirm erscheint, drücken Sie so schnell wie möglich die Leertaste. Drücken Sie die Leertaste immer, wenn Sie ein Bild von Shelmet oder das Wort SHELMET sehen. 

Drücken Sie die Leertaste, um die Aufgabe zu starten.",target2,stimuli/t2.jpg,77,31,stimuli/cs1_neg16.jpg,CSUS,False,None,,,,,,,,,,,,,,0,0,0,0,,,,,0,0,0,1,0,30,30,30,,,,,,,,,,,,,,,,,,,,,,,,,,,,,,,,,,,,,,,,,,,,,,,,,,,,,CS1_USneg,None,1,,,,,,,,,,,,,,,,,,21,f,77,n,2019_Nov_27_1317,ec_RRR,3.0.4,59.99513352015485,
Unkelbach and Hogden,Das Zielwesen für diese Aufgabe ist Shelmet:,"Also sobald Shelmet (sein Name oder sein Bild) auf dem Bildschirm erscheint, drücken Sie so schnell wie möglich die Leertaste. Drücken Sie die Leertaste immer, wenn Sie ein Bild von Shelmet oder das Wort SHELMET sehen. 

Drücken Sie die Leertaste, um die Aufgabe zu starten.",target2,stimuli/t2.jpg,77,32,stimuli/blank.jpg,blank,False,None,,,,,,,,,,,,,,0,0,0,0,,,,,0,0,0,1,0,31,31,31,,,,,,,,,,,,,,,,,,,,,,,,,,,,,,,,,,,,,,,,,,,,,,,,,,,,,CS1_USneg,None,1,,,,,,,,,,,,,,,,,,21,f,77,n,2019_Nov_27_1317,ec_RRR,3.0.4,59.99513352015485,
Unkelbach and Hogden,Das Zielwesen für diese Aufgabe ist Shelmet:,"Also sobald Shelmet (sein Name oder sein Bild) auf dem Bildschirm erscheint, drücken Sie so schnell wie möglich die Leertaste. Drücken Sie die Leertaste immer, wenn Sie ein Bild von Shelmet oder das Wort SHELMET sehen. 

Drücken Sie die Leertaste, um die Aufgabe zu starten.",target2,stimuli/t2.jpg,77,33,stimuli/filler33.jpg,filler,False,None,,,,,,,,,,,,,,0,0,0,0,,,,,0,0,0,1,0,32,32,32,,,,,,,,,,,,,,,,,,,,,,,,,,,,,,,,,,,,,,,,,,,,,,,,,,,,,CS1_USneg,None,1,,,,,,,,,,,,,,,,,,21,f,77,n,2019_Nov_27_1317,ec_RRR,3.0.4,59.99513352015485,
Unkelbach and Hogden,Das Zielwesen für diese Aufgabe ist Shelmet:,"Also sobald Shelmet (sein Name oder sein Bild) auf dem Bildschirm erscheint, drücken Sie so schnell wie möglich die Leertaste. Drücken Sie die Leertaste immer, wenn Sie ein Bild von Shelmet oder das Wort SHELMET sehen. 

Drücken Sie die Leertaste, um die Aufgabe zu starten.",target2,stimuli/t2.jpg,77,34,stimuli/filler34.jpg,filler,False,None,,,,,,,,,,,,,,0,0,0,0,,,,,0,0,0,1,0,33,33,33,,,,,,,,,,,,,,,,,,,,,,,,,,,,,,,,,,,,,,,,,,,,,,,,,,,,,CS1_USneg,None,1,,,,,,,,,,,,,,,,,,21,f,77,n,2019_Nov_27_1317,ec_RRR,3.0.4,59.99513352015485,
Unkelbach and Hogden,Das Zielwesen für diese Aufgabe ist Shelmet:,"Also sobald Shelmet (sein Name oder sein Bild) auf dem Bildschirm erscheint, drücken Sie so schnell wie möglich die Leertaste. Drücken Sie die Leertaste immer, wenn Sie ein Bild von Shelmet oder das Wort SHELMET sehen. 

Drücken Sie die Leertaste, um die Aufgabe zu starten.",target2,stimuli/t2.jpg,77,35,stimuli/target2_1.jpg,target,True,space,,,,,,,,,,,,,,0,0,0,0,,,,,0,0,0,1,0,34,34,34,,,,,,,,,,,,,,,,,,,,,,,,,,,,,,,,,,,,,,,,,,,,,,,,,,,,,CS1_USneg,space,1,0.4975336203351617,,,,,,,,,,,,,,,,,21,f,77,n,2019_Nov_27_1317,ec_RRR,3.0.4,59.99513352015485,
Unkelbach and Hogden,Das Zielwesen für diese Aufgabe ist Shelmet:,"Also sobald Shelmet (sein Name oder sein Bild) auf dem Bildschirm erscheint, drücken Sie so schnell wie möglich die Leertaste. Drücken Sie die Leertaste immer, wenn Sie ein Bild von Shelmet oder das Wort SHELMET sehen. 

Drücken Sie die Leertaste, um die Aufgabe zu starten.",target2,stimuli/t2.jpg,77,36,stimuli/filler1.jpg,filler,False,None,,,,,,,,,,,,,,0,0,0,0,,,,,0,0,0,1,0,35,35,35,,,,,,,,,,,,,,,,,,,,,,,,,,,,,,,,,,,,,,,,,,,,,,,,,,,,,CS1_USneg,None,1,,,,,,,,,,,,,,,,,,21,f,77,n,2019_Nov_27_1317,ec_RRR,3.0.4,59.99513352015485,
Unkelbach and Hogden,Das Zielwesen für diese Aufgabe ist Shelmet:,"Also sobald Shelmet (sein Name oder sein Bild) auf dem Bildschirm erscheint, drücken Sie so schnell wie möglich die Leertaste. Drücken Sie die Leertaste immer, wenn Sie ein Bild von Shelmet oder das Wort SHELMET sehen. 

Drücken Sie die Leertaste, um die Aufgabe zu starten.",target2,stimuli/t2.jpg,77,37,stimuli/filler50.jpg,filler,False,None,,,,,,,,,,,,,,0,0,0,0,,,,,0,0,0,1,0,36,36,36,,,,,,,,,,,,,,,,,,,,,,,,,,,,,,,,,,,,,,,,,,,,,,,,,,,,,CS1_USneg,None,1,,,,,,,,,,,,,,,,,,21,f,77,n,2019_Nov_27_1317,ec_RRR,3.0.4,59.99513352015485,
Unkelbach and Hogden,Das Zielwesen für diese Aufgabe ist Shelmet:,"Also sobald Shelmet (sein Name oder sein Bild) auf dem Bildschirm erscheint, drücken Sie so schnell wie möglich die Leertaste. Drücken Sie die Leertaste immer, wenn Sie ein Bild von Shelmet oder das Wort SHELMET sehen. 

Drücken Sie die Leertaste, um die Aufgabe zu starten.",target2,stimuli/t2.jpg,77,38,stimuli/filler11.jpg,filler,False,None,,,,,,,,,,,,,,0,0,0,0,,,,,0,0,0,1,0,37,37,37,,,,,,,,,,,,,,,,,,,,,,,,,,,,,,,,,,,,,,,,,,,,,,,,,,,,,CS1_USneg,None,1,,,,,,,,,,,,,,,,,,21,f,77,n,2019_Nov_27_1317,ec_RRR,3.0.4,59.99513352015485,
Unkelbach and Hogden,Das Zielwesen für diese Aufgabe ist Shelmet:,"Also sobald Shelmet (sein Name oder sein Bild) auf dem Bildschirm erscheint, drücken Sie so schnell wie möglich die Leertaste. Drücken Sie die Leertaste immer, wenn Sie ein Bild von Shelmet oder das Wort SHELMET sehen. 

Drücken Sie die Leertaste, um die Aufgabe zu starten.",target2,stimuli/t2.jpg,77,39,stimuli/filler17.jpg,filler,False,None,,,,,,,,,,,,,,0,0,0,0,,,,,0,0,0,1,0,38,38,38,,,,,,,,,,,,,,,,,,,,,,,,,,,,,,,,,,,,,,,,,,,,,,,,,,,,,CS1_USneg,None,1,,,,,,,,,,,,,,,,,,21,f,77,n,2019_Nov_27_1317,ec_RRR,3.0.4,59.99513352015485,
Unkelbach and Hogden,Das Zielwesen für diese Aufgabe ist Shelmet:,"Also sobald Shelmet (sein Name oder sein Bild) auf dem Bildschirm erscheint, drücken Sie so schnell wie möglich die Leertaste. Drücken Sie die Leertaste immer, wenn Sie ein Bild von Shelmet oder das Wort SHELMET sehen. 

Drücken Sie die Leertaste, um die Aufgabe zu starten.",target2,stimuli/t2.jpg,77,40,stimuli/blank.jpg,blank,False,None,,,,,,,,,,,,,,0,0,0,0,,,,,0,0,0,1,0,39,39,39,,,,,,,,,,,,,,,,,,,,,,,,,,,,,,,,,,,,,,,,,,,,,,,,,,,,,CS1_USneg,None,1,,,,,,,,,,,,,,,,,,21,f,77,n,2019_Nov_27_1317,ec_RRR,3.0.4,59.99513352015485,
Unkelbach and Hogden,Das Zielwesen für diese Aufgabe ist Shelmet:,"Also sobald Shelmet (sein Name oder sein Bild) auf dem Bildschirm erscheint, drücken Sie so schnell wie möglich die Leertaste. Drücken Sie die Leertaste immer, wenn Sie ein Bild von Shelmet oder das Wort SHELMET sehen. 

Drücken Sie die Leertaste, um die Aufgabe zu starten.",target2,stimuli/t2.jpg,77,41,stimuli/cs2_pos7.jpg,CSUS,False,None,,,,,,,,,,,,,,0,0,0,0,,,,,0,0,0,1,0,40,40,40,,,,,,,,,,,,,,,,,,,,,,,,,,,,,,,,,,,,,,,,,,,,,,,,,,,,,CS1_USneg,None,1,,,,,,,,,,,,,,,,,,21,f,77,n,2019_Nov_27_1317,ec_RRR,3.0.4,59.99513352015485,
Unkelbach and Hogden,Das Zielwesen für diese Aufgabe ist Shelmet:,"Also sobald Shelmet (sein Name oder sein Bild) auf dem Bildschirm erscheint, drücken Sie so schnell wie möglich die Leertaste. Drücken Sie die Leertaste immer, wenn Sie ein Bild von Shelmet oder das Wort SHELMET sehen. 

Drücken Sie die Leertaste, um die Aufgabe zu starten.",target2,stimuli/t2.jpg,77,42,stimuli/blank.jpg,blank,False,None,,,,,,,,,,,,,,0,0,0,0,,,,,0,0,0,1,0,41,41,41,,,,,,,,,,,,,,,,,,,,,,,,,,,,,,,,,,,,,,,,,,,,,,,,,,,,,CS1_USneg,None,1,,,,,,,,,,,,,,,,,,21,f,77,n,2019_Nov_27_1317,ec_RRR,3.0.4,59.99513352015485,
Unkelbach and Hogden,Das Zielwesen für diese Aufgabe ist Shelmet:,"Also sobald Shelmet (sein Name oder sein Bild) auf dem Bildschirm erscheint, drücken Sie so schnell wie möglich die Leertaste. Drücken Sie die Leertaste immer, wenn Sie ein Bild von Shelmet oder das Wort SHELMET sehen. 

Drücken Sie die Leertaste, um die Aufgabe zu starten.",target2,stimuli/t2.jpg,77,43,stimuli/filler27.jpg,filler,False,None,,,,,,,,,,,,,,0,0,0,0,,,,,0,0,0,1,0,42,42,42,,,,,,,,,,,,,,,,,,,,,,,,,,,,,,,,,,,,,,,,,,,,,,,,,,,,,CS1_USneg,None,1,,,,,,,,,,,,,,,,,,21,f,77,n,2019_Nov_27_1317,ec_RRR,3.0.4,59.99513352015485,
Unkelbach and Hogden,Das Zielwesen für diese Aufgabe ist Shelmet:,"Also sobald Shelmet (sein Name oder sein Bild) auf dem Bildschirm erscheint, drücken Sie so schnell wie möglich die Leertaste. Drücken Sie die Leertaste immer, wenn Sie ein Bild von Shelmet oder das Wort SHELMET sehen. 

Drücken Sie die Leertaste, um die Aufgabe zu starten.",target2,stimuli/t2.jpg,77,44,stimuli/filler24.jpg,filler,False,None,,,,,,,,,,,,,,0,0,0,0,,,,,0,0,0,1,0,43,43,43,,,,,,,,,,,,,,,,,,,,,,,,,,,,,,,,,,,,,,,,,,,,,,,,,,,,,CS1_USneg,None,1,,,,,,,,,,,,,,,,,,21,f,77,n,2019_Nov_27_1317,ec_RRR,3.0.4,59.99513352015485,
Unkelbach and Hogden,Das Zielwesen für diese Aufgabe ist Shelmet:,"Also sobald Shelmet (sein Name oder sein Bild) auf dem Bildschirm erscheint, drücken Sie so schnell wie möglich die Leertaste. Drücken Sie die Leertaste immer, wenn Sie ein Bild von Shelmet oder das Wort SHELMET sehen. 

Drücken Sie die Leertaste, um die Aufgabe zu starten.",target2,stimuli/t2.jpg,77,45,stimuli/filler2.jpg,filler,False,None,,,,,,,,,,,,,,0,0,0,0,,,,,0,0,0,1,0,44,44,44,,,,,,,,,,,,,,,,,,,,,,,,,,,,,,,,,,,,,,,,,,,,,,,,,,,,,CS1_USneg,None,1,,,,,,,,,,,,,,,,,,21,f,77,n,2019_Nov_27_1317,ec_RRR,3.0.4,59.99513352015485,
Unkelbach and Hogden,Das Zielwesen für diese Aufgabe ist Shelmet:,"Also sobald Shelmet (sein Name oder sein Bild) auf dem Bildschirm erscheint, drücken Sie so schnell wie möglich die Leertaste. Drücken Sie die Leertaste immer, wenn Sie ein Bild von Shelmet oder das Wort SHELMET sehen. 

Drücken Sie die Leertaste, um die Aufgabe zu starten.",target2,stimuli/t2.jpg,77,46,stimuli/target2_5.jpg,target,True,space,,,,,,,,,,,,,,0,0,0,0,,,,,0,0,0,1,0,45,45,45,,,,,,,,,,,,,,,,,,,,,,,,,,,,,,,,,,,,,,,,,,,,,,,,,,,,,CS1_USneg,space,1,0.7304284604233544,,,,,,,,,,,,,,,,,21,f,77,n,2019_Nov_27_1317,ec_RRR,3.0.4,59.99513352015485,
Unkelbach and Hogden,Das Zielwesen für diese Aufgabe ist Shelmet:,"Also sobald Shelmet (sein Name oder sein Bild) auf dem Bildschirm erscheint, drücken Sie so schnell wie möglich die Leertaste. Drücken Sie die Leertaste immer, wenn Sie ein Bild von Shelmet oder das Wort SHELMET sehen. 

Drücken Sie die Leertaste, um die Aufgabe zu starten.",target2,stimuli/t2.jpg,77,47,stimuli/filler4.jpg,filler,False,None,,,,,,,,,,,,,,0,0,0,0,,,,,0,0,0,1,0,46,46,46,,,,,,,,,,,,,,,,,,,,,,,,,,,,,,,,,,,,,,,,,,,,,,,,,,,,,CS1_USneg,None,1,,,,,,,,,,,,,,,,,,21,f,77,n,2019_Nov_27_1317,ec_RRR,3.0.4,59.99513352015485,
Unkelbach and Hogden,Das Zielwesen für diese Aufgabe ist Shelmet:,"Also sobald Shelmet (sein Name oder sein Bild) auf dem Bildschirm erscheint, drücken Sie so schnell wie möglich die Leertaste. Drücken Sie die Leertaste immer, wenn Sie ein Bild von Shelmet oder das Wort SHELMET sehen. 

Drücken Sie die Leertaste, um die Aufgabe zu starten.",target2,stimuli/t2.jpg,77,48,stimuli/filler28.jpg,filler,False,None,,,,,,,,,,,,,,0,0,0,0,,,,,0,0,0,1,0,47,47,47,,,,,,,,,,,,,,,,,,,,,,,,,,,,,,,,,,,,,,,,,,,,,,,,,,,,,CS1_USneg,None,1,,,,,,,,,,,,,,,,,,21,f,77,n,2019_Nov_27_1317,ec_RRR,3.0.4,59.99513352015485,
Unkelbach and Hogden,Das Zielwesen für diese Aufgabe ist Shelmet:,"Also sobald Shelmet (sein Name oder sein Bild) auf dem Bildschirm erscheint, drücken Sie so schnell wie möglich die Leertaste. Drücken Sie die Leertaste immer, wenn Sie ein Bild von Shelmet oder das Wort SHELMET sehen. 

Drücken Sie die Leertaste, um die Aufgabe zu starten.",target2,stimuli/t2.jpg,77,49,stimuli/filler18.jpg,filler,False,None,,,,,,,,,,,,,,0,0,0,0,,,,,0,0,0,1,0,48,48,48,,,,,,,,,,,,,,,,,,,,,,,,,,,,,,,,,,,,,,,,,,,,,,,,,,,,,CS1_USneg,None,1,,,,,,,,,,,,,,,,,,21,f,77,n,2019_Nov_27_1317,ec_RRR,3.0.4,59.99513352015485,
Unkelbach and Hogden,Das Zielwesen für diese Aufgabe ist Shelmet:,"Also sobald Shelmet (sein Name oder sein Bild) auf dem Bildschirm erscheint, drücken Sie so schnell wie möglich die Leertaste. Drücken Sie die Leertaste immer, wenn Sie ein Bild von Shelmet oder das Wort SHELMET sehen. 

Drücken Sie die Leertaste, um die Aufgabe zu starten.",target2,stimuli/t2.jpg,77,50,stimuli/blank.jpg,blank,False,None,,,,,,,,,,,,,,0,0,0,0,,,,,0,0,0,1,0,49,49,49,,,,,,,,,,,,,,,,,,,,,,,,,,,,,,,,,,,,,,,,,,,,,,,,,,,,,CS1_USneg,None,1,,,,,,,,,,,,,,,,,,21,f,77,n,2019_Nov_27_1317,ec_RRR,3.0.4,59.99513352015485,
Unkelbach and Hogden,Das Zielwesen für diese Aufgabe ist Shelmet:,"Also sobald Shelmet (sein Name oder sein Bild) auf dem Bildschirm erscheint, drücken Sie so schnell wie möglich die Leertaste. Drücken Sie die Leertaste immer, wenn Sie ein Bild von Shelmet oder das Wort SHELMET sehen. 

Drücken Sie die Leertaste, um die Aufgabe zu starten.",target2,stimuli/t2.jpg,77,51,stimuli/cs1_neg9.jpg,CSUS,False,None,,,,,,,,,,,,,,0,0,0,0,,,,,0,0,0,1,0,50,50,50,,,,,,,,,,,,,,,,,,,,,,,,,,,,,,,,,,,,,,,,,,,,,,,,,,,,,CS1_USneg,None,1,,,,,,,,,,,,,,,,,,21,f,77,n,2019_Nov_27_1317,ec_RRR,3.0.4,59.99513352015485,
Unkelbach and Hogden,Das Zielwesen für diese Aufgabe ist Shelmet:,"Also sobald Shelmet (sein Name oder sein Bild) auf dem Bildschirm erscheint, drücken Sie so schnell wie möglich die Leertaste. Drücken Sie die Leertaste immer, wenn Sie ein Bild von Shelmet oder das Wort SHELMET sehen. 

Drücken Sie die Leertaste, um die Aufgabe zu starten.",target2,stimuli/t2.jpg,77,52,stimuli/blank.jpg,blank,False,None,,,,,,,,,,,,,,0,0,0,0,,,,,0,0,0,1,0,51,51,51,,,,,,,,,,,,,,,,,,,,,,,,,,,,,,,,,,,,,,,,,,,,,,,,,,,,,CS1_USneg,None,1,,,,,,,,,,,,,,,,,,21,f,77,n,2019_Nov_27_1317,ec_RRR,3.0.4,59.99513352015485,
Unkelbach and Hogden,Das Zielwesen für diese Aufgabe ist Shelmet:,"Also sobald Shelmet (sein Name oder sein Bild) auf dem Bildschirm erscheint, drücken Sie so schnell wie möglich die Leertaste. Drücken Sie die Leertaste immer, wenn Sie ein Bild von Shelmet oder das Wort SHELMET sehen. 

Drücken Sie die Leertaste, um die Aufgabe zu starten.",target2,stimuli/t2.jpg,77,53,stimuli/filler6.jpg,filler,False,None,,,,,,,,,,,,,,0,0,0,0,,,,,0,0,0,1,0,52,52,52,,,,,,,,,,,,,,,,,,,,,,,,,,,,,,,,,,,,,,,,,,,,,,,,,,,,,CS1_USneg,None,1,,,,,,,,,,,,,,,,,,21,f,77,n,2019_Nov_27_1317,ec_RRR,3.0.4,59.99513352015485,
Unkelbach and Hogden,Das Zielwesen für diese Aufgabe ist Shelmet:,"Also sobald Shelmet (sein Name oder sein Bild) auf dem Bildschirm erscheint, drücken Sie so schnell wie möglich die Leertaste. Drücken Sie die Leertaste immer, wenn Sie ein Bild von Shelmet oder das Wort SHELMET sehen. 

Drücken Sie die Leertaste, um die Aufgabe zu starten.",target2,stimuli/t2.jpg,77,54,stimuli/filler7.jpg,filler,False,None,,,,,,,,,,,,,,0,0,0,0,,,,,0,0,0,1,0,53,53,53,,,,,,,,,,,,,,,,,,,,,,,,,,,,,,,,,,,,,,,,,,,,,,,,,,,,,CS1_USneg,None,1,,,,,,,,,,,,,,,,,,21,f,77,n,2019_Nov_27_1317,ec_RRR,3.0.4,59.99513352015485,
Unkelbach and Hogden,Das Zielwesen für diese Aufgabe ist Shelmet:,"Also sobald Shelmet (sein Name oder sein Bild) auf dem Bildschirm erscheint, drücken Sie so schnell wie möglich die Leertaste. Drücken Sie die Leertaste immer, wenn Sie ein Bild von Shelmet oder das Wort SHELMET sehen. 

Drücken Sie die Leertaste, um die Aufgabe zu starten.",target2,stimuli/t2.jpg,77,55,stimuli/filler13.jpg,filler,False,None,,,,,,,,,,,,,,0,0,0,0,,,,,0,0,0,1,0,54,54,54,,,,,,,,,,,,,,,,,,,,,,,,,,,,,,,,,,,,,,,,,,,,,,,,,,,,,CS1_USneg,None,1,,,,,,,,,,,,,,,,,,21,f,77,n,2019_Nov_27_1317,ec_RRR,3.0.4,59.99513352015485,
Unkelbach and Hogden,Das Zielwesen für diese Aufgabe ist Shelmet:,"Also sobald Shelmet (sein Name oder sein Bild) auf dem Bildschirm erscheint, drücken Sie so schnell wie möglich die Leertaste. Drücken Sie die Leertaste immer, wenn Sie ein Bild von Shelmet oder das Wort SHELMET sehen. 

Drücken Sie die Leertaste, um die Aufgabe zu starten.",target2,stimuli/t2.jpg,77,56,stimuli/filler3.jpg,filler,False,None,,,,,,,,,,,,,,0,0,0,0,,,,,0,0,0,1,0,55,55,55,,,,,,,,,,,,,,,,,,,,,,,,,,,,,,,,,,,,,,,,,,,,,,,,,,,,,CS1_USneg,None,1,,,,,,,,,,,,,,,,,,21,f,77,n,2019_Nov_27_1317,ec_RRR,3.0.4,59.99513352015485,
Unkelbach and Hogden,Das Zielwesen für diese Aufgabe ist Shelmet:,"Also sobald Shelmet (sein Name oder sein Bild) auf dem Bildschirm erscheint, drücken Sie so schnell wie möglich die Leertaste. Drücken Sie die Leertaste immer, wenn Sie ein Bild von Shelmet oder das Wort SHELMET sehen. 

Drücken Sie die Leertaste, um die Aufgabe zu starten.",target2,stimuli/t2.jpg,77,57,stimuli/filler36.jpg,filler,False,None,,,,,,,,,,,,,,0,0,0,0,,,,,0,0,0,1,0,56,56,56,,,,,,,,,,,,,,,,,,,,,,,,,,,,,,,,,,,,,,,,,,,,,,,,,,,,,CS1_USneg,None,1,,,,,,,,,,,,,,,,,,21,f,77,n,2019_Nov_27_1317,ec_RRR,3.0.4,59.99513352015485,
Unkelbach and Hogden,Das Zielwesen für diese Aufgabe ist Shelmet:,"Also sobald Shelmet (sein Name oder sein Bild) auf dem Bildschirm erscheint, drücken Sie so schnell wie möglich die Leertaste. Drücken Sie die Leertaste immer, wenn Sie ein Bild von Shelmet oder das Wort SHELMET sehen. 

Drücken Sie die Leertaste, um die Aufgabe zu starten.",target2,stimuli/t2.jpg,77,58,stimuli/filler35.jpg,filler,False,None,,,,,,,,,,,,,,0,0,0,0,,,,,0,0,0,1,0,57,57,57,,,,,,,,,,,,,,,,,,,,,,,,,,,,,,,,,,,,,,,,,,,,,,,,,,,,,CS1_USneg,None,1,,,,,,,,,,,,,,,,,,21,f,77,n,2019_Nov_27_1317,ec_RRR,3.0.4,59.99513352015485,
Unkelbach and Hogden,Das Zielwesen für diese Aufgabe ist Shelmet:,"Also sobald Shelmet (sein Name oder sein Bild) auf dem Bildschirm erscheint, drücken Sie so schnell wie möglich die Leertaste. Drücken Sie die Leertaste immer, wenn Sie ein Bild von Shelmet oder das Wort SHELMET sehen. 

Drücken Sie die Leertaste, um die Aufgabe zu starten.",target2,stimuli/t2.jpg,77,59,stimuli/filler21.jpg,filler,False,None,,,,,,,,,,,,,,0,0,0,0,,,,,0,0,0,1,0,58,58,58,,,,,,,,,,,,,,,,,,,,,,,,,,,,,,,,,,,,,,,,,,,,,,,,,,,,,CS1_USneg,None,1,,,,,,,,,,,,,,,,,,21,f,77,n,2019_Nov_27_1317,ec_RRR,3.0.4,59.99513352015485,
Unkelbach and Hogden,Das Zielwesen für diese Aufgabe ist Shelmet:,"Also sobald Shelmet (sein Name oder sein Bild) auf dem Bildschirm erscheint, drücken Sie so schnell wie möglich die Leertaste. Drücken Sie die Leertaste immer, wenn Sie ein Bild von Shelmet oder das Wort SHELMET sehen. 

Drücken Sie die Leertaste, um die Aufgabe zu starten.",target2,stimuli/t2.jpg,77,60,stimuli/blank.jpg,blank,False,None,,,,,,,,,,,,,,0,0,0,0,,,,,0,0,0,1,0,59,59,59,,,,,,,,,,,,,,,,,,,,,,,,,,,,,,,,,,,,,,,,,,,,,,,,,,,,,CS1_USneg,None,1,,,,,,,,,,,,,,,,,,21,f,77,n,2019_Nov_27_1317,ec_RRR,3.0.4,59.99513352015485,
Unkelbach and Hogden,Das Zielwesen für diese Aufgabe ist Shelmet:,"Also sobald Shelmet (sein Name oder sein Bild) auf dem Bildschirm erscheint, drücken Sie so schnell wie möglich die Leertaste. Drücken Sie die Leertaste immer, wenn Sie ein Bild von Shelmet oder das Wort SHELMET sehen. 

Drücken Sie die Leertaste, um die Aufgabe zu starten.",target2,stimuli/t2.jpg,77,61,stimuli/cs2_pos2.jpg,CSUS,False,None,,,,,,,,,,,,,,0,0,0,0,,,,,0,0,0,1,0,60,60,60,,,,,,,,,,,,,,,,,,,,,,,,,,,,,,,,,,,,,,,,,,,,,,,,,,,,,CS1_USneg,None,1,,,,,,,,,,,,,,,,,,21,f,77,n,2019_Nov_27_1317,ec_RRR,3.0.4,59.99513352015485,
Unkelbach and Hogden,Das Zielwesen für diese Aufgabe ist Shelmet:,"Also sobald Shelmet (sein Name oder sein Bild) auf dem Bildschirm erscheint, drücken Sie so schnell wie möglich die Leertaste. Drücken Sie die Leertaste immer, wenn Sie ein Bild von Shelmet oder das Wort SHELMET sehen. 

Drücken Sie die Leertaste, um die Aufgabe zu starten.",target2,stimuli/t2.jpg,77,62,stimuli/blank.jpg,blank,False,None,,,,,,,,,,,,,,0,0,0,0,,,,,0,0,0,1,0,61,61,61,,,,,,,,,,,,,,,,,,,,,,,,,,,,,,,,,,,,,,,,,,,,,,,,,,,,,CS1_USneg,None,1,,,,,,,,,,,,,,,,,,21,f,77,n,2019_Nov_27_1317,ec_RRR,3.0.4,59.99513352015485,
Unkelbach and Hogden,Das Zielwesen für diese Aufgabe ist Shelmet:,"Also sobald Shelmet (sein Name oder sein Bild) auf dem Bildschirm erscheint, drücken Sie so schnell wie möglich die Leertaste. Drücken Sie die Leertaste immer, wenn Sie ein Bild von Shelmet oder das Wort SHELMET sehen. 

Drücken Sie die Leertaste, um die Aufgabe zu starten.",target2,stimuli/t2.jpg,77,63,stimuli/filler31.jpg,filler,False,None,,,,,,,,,,,,,,0,0,0,0,,,,,0,0,0,1,0,62,62,62,,,,,,,,,,,,,,,,,,,,,,,,,,,,,,,,,,,,,,,,,,,,,,,,,,,,,CS1_USneg,None,1,,,,,,,,,,,,,,,,,,21,f,77,n,2019_Nov_27_1317,ec_RRR,3.0.4,59.99513352015485,
Unkelbach and Hogden,Das Zielwesen für diese Aufgabe ist Shelmet:,"Also sobald Shelmet (sein Name oder sein Bild) auf dem Bildschirm erscheint, drücken Sie so schnell wie möglich die Leertaste. Drücken Sie die Leertaste immer, wenn Sie ein Bild von Shelmet oder das Wort SHELMET sehen. 

Drücken Sie die Leertaste, um die Aufgabe zu starten.",target2,stimuli/t2.jpg,77,64,stimuli/filler22.jpg,filler,False,None,,,,,,,,,,,,,,0,0,0,0,,,,,0,0,0,1,0,63,63,63,,,,,,,,,,,,,,,,,,,,,,,,,,,,,,,,,,,,,,,,,,,,,,,,,,,,,CS1_USneg,None,1,,,,,,,,,,,,,,,,,,21,f,77,n,2019_Nov_27_1317,ec_RRR,3.0.4,59.99513352015485,
Unkelbach and Hogden,Das Zielwesen für diese Aufgabe ist Shelmet:,"Also sobald Shelmet (sein Name oder sein Bild) auf dem Bildschirm erscheint, drücken Sie so schnell wie möglich die Leertaste. Drücken Sie die Leertaste immer, wenn Sie ein Bild von Shelmet oder das Wort SHELMET sehen. 

Drücken Sie die Leertaste, um die Aufgabe zu starten.",target2,stimuli/t2.jpg,77,65,stimuli/filler5.jpg,filler,False,None,,,,,,,,,,,,,,0,0,0,0,,,,,0,0,0,1,0,64,64,64,,,,,,,,,,,,,,,,,,,,,,,,,,,,,,,,,,,,,,,,,,,,,,,,,,,,,CS1_USneg,None,1,,,,,,,,,,,,,,,,,,21,f,77,n,2019_Nov_27_1317,ec_RRR,3.0.4,59.99513352015485,
Unkelbach and Hogden,Das Zielwesen für diese Aufgabe ist Shelmet:,"Also sobald Shelmet (sein Name oder sein Bild) auf dem Bildschirm erscheint, drücken Sie so schnell wie möglich die Leertaste. Drücken Sie die Leertaste immer, wenn Sie ein Bild von Shelmet oder das Wort SHELMET sehen. 

Drücken Sie die Leertaste, um die Aufgabe zu starten.",target2,stimuli/t2.jpg,77,66,stimuli/target2_3.jpg,target,True,space,,,,,,,,,,,,,,0,0,0,0,,,,,0,0,0,1,0,65,65,65,,,,,,,,,,,,,,,,,,,,,,,,,,,,,,,,,,,,,,,,,,,,,,,,,,,,,CS1_USneg,space,1,0.659227742906296,,,,,,,,,,,,,,,,,21,f,77,n,2019_Nov_27_1317,ec_RRR,3.0.4,59.99513352015485,
Unkelbach and Hogden,Das Zielwesen für diese Aufgabe ist Shelmet:,"Also sobald Shelmet (sein Name oder sein Bild) auf dem Bildschirm erscheint, drücken Sie so schnell wie möglich die Leertaste. Drücken Sie die Leertaste immer, wenn Sie ein Bild von Shelmet oder das Wort SHELMET sehen. 

Drücken Sie die Leertaste, um die Aufgabe zu starten.",target2,stimuli/t2.jpg,77,67,stimuli/filler52.jpg,filler,False,None,,,,,,,,,,,,,,0,0,0,0,,,,,0,0,0,1,0,66,66,66,,,,,,,,,,,,,,,,,,,,,,,,,,,,,,,,,,,,,,,,,,,,,,,,,,,,,CS1_USneg,None,1,,,,,,,,,,,,,,,,,,21,f,77,n,2019_Nov_27_1317,ec_RRR,3.0.4,59.99513352015485,
Unkelbach and Hogden,Das Zielwesen für diese Aufgabe ist Shelmet:,"Also sobald Shelmet (sein Name oder sein Bild) auf dem Bildschirm erscheint, drücken Sie so schnell wie möglich die Leertaste. Drücken Sie die Leertaste immer, wenn Sie ein Bild von Shelmet oder das Wort SHELMET sehen. 

Drücken Sie die Leertaste, um die Aufgabe zu starten.",target2,stimuli/t2.jpg,77,68,stimuli/filler26.jpg,filler,False,None,,,,,,,,,,,,,,0,0,0,0,,,,,0,0,0,1,0,67,67,67,,,,,,,,,,,,,,,,,,,,,,,,,,,,,,,,,,,,,,,,,,,,,,,,,,,,,CS1_USneg,None,1,,,,,,,,,,,,,,,,,,21,f,77,n,2019_Nov_27_1317,ec_RRR,3.0.4,59.99513352015485,
Unkelbach and Hogden,Das Zielwesen für diese Aufgabe ist Shelmet:,"Also sobald Shelmet (sein Name oder sein Bild) auf dem Bildschirm erscheint, drücken Sie so schnell wie möglich die Leertaste. Drücken Sie die Leertaste immer, wenn Sie ein Bild von Shelmet oder das Wort SHELMET sehen. 

Drücken Sie die Leertaste, um die Aufgabe zu starten.",target2,stimuli/t2.jpg,77,69,stimuli/filler47.jpg,filler,False,None,,,,,,,,,,,,,,0,0,0,0,,,,,0,0,0,1,0,68,68,68,,,,,,,,,,,,,,,,,,,,,,,,,,,,,,,,,,,,,,,,,,,,,,,,,,,,,CS1_USneg,None,1,,,,,,,,,,,,,,,,,,21,f,77,n,2019_Nov_27_1317,ec_RRR,3.0.4,59.99513352015485,
Unkelbach and Hogden,Das Zielwesen für diese Aufgabe ist Shelmet:,"Also sobald Shelmet (sein Name oder sein Bild) auf dem Bildschirm erscheint, drücken Sie so schnell wie möglich die Leertaste. Drücken Sie die Leertaste immer, wenn Sie ein Bild von Shelmet oder das Wort SHELMET sehen. 

Drücken Sie die Leertaste, um die Aufgabe zu starten.",target2,stimuli/t2.jpg,77,70,stimuli/blank.jpg,blank,False,None,,,,,,,,,,,,,,0,0,0,0,,,,,0,0,0,1,0,69,69,69,,,,,,,,,,,,,,,,,,,,,,,,,,,,,,,,,,,,,,,,,,,,,,,,,,,,,CS1_USneg,None,1,,,,,,,,,,,,,,,,,,21,f,77,n,2019_Nov_27_1317,ec_RRR,3.0.4,59.99513352015485,
Unkelbach and Hogden,Das Zielwesen für diese Aufgabe ist Shelmet:,"Also sobald Shelmet (sein Name oder sein Bild) auf dem Bildschirm erscheint, drücken Sie so schnell wie möglich die Leertaste. Drücken Sie die Leertaste immer, wenn Sie ein Bild von Shelmet oder das Wort SHELMET sehen. 

Drücken Sie die Leertaste, um die Aufgabe zu starten.",target2,stimuli/t2.jpg,77,71,stimuli/cs1_neg19.jpg,CSUS,False,None,,,,,,,,,,,,,,0,0,0,0,,,,,0,0,0,1,0,70,70,70,,,,,,,,,,,,,,,,,,,,,,,,,,,,,,,,,,,,,,,,,,,,,,,,,,,,,CS1_USneg,None,1,,,,,,,,,,,,,,,,,,21,f,77,n,2019_Nov_27_1317,ec_RRR,3.0.4,59.99513352015485,
Unkelbach and Hogden,Das Zielwesen für diese Aufgabe ist Shelmet:,"Also sobald Shelmet (sein Name oder sein Bild) auf dem Bildschirm erscheint, drücken Sie so schnell wie möglich die Leertaste. Drücken Sie die Leertaste immer, wenn Sie ein Bild von Shelmet oder das Wort SHELMET sehen. 

Drücken Sie die Leertaste, um die Aufgabe zu starten.",target2,stimuli/t2.jpg,77,72,stimuli/blank.jpg,blank,False,None,,,,,,,,,,,,,,0,0,0,0,,,,,0,0,0,1,0,71,71,71,,,,,,,,,,,,,,,,,,,,,,,,,,,,,,,,,,,,,,,,,,,,,,,,,,,,,CS1_USneg,None,1,,,,,,,,,,,,,,,,,,21,f,77,n,2019_Nov_27_1317,ec_RRR,3.0.4,59.99513352015485,
Unkelbach and Hogden,Das Zielwesen für diese Aufgabe ist Shelmet:,"Also sobald Shelmet (sein Name oder sein Bild) auf dem Bildschirm erscheint, drücken Sie so schnell wie möglich die Leertaste. Drücken Sie die Leertaste immer, wenn Sie ein Bild von Shelmet oder das Wort SHELMET sehen. 

Drücken Sie die Leertaste, um die Aufgabe zu starten.",target2,stimuli/t2.jpg,77,73,stimuli/target2_9.jpg,target,True,space,,,,,,,,,,,,,,0,0,0,0,,,,,0,0,0,1,0,72,72,72,,,,,,,,,,,,,,,,,,,,,,,,,,,,,,,,,,,,,,,,,,,,,,,,,,,,,CS1_USneg,space,1,0.6609473718708614,,,,,,,,,,,,,,,,,21,f,77,n,2019_Nov_27_1317,ec_RRR,3.0.4,59.99513352015485,
Unkelbach and Hogden,Das Zielwesen für diese Aufgabe ist Shelmet:,"Also sobald Shelmet (sein Name oder sein Bild) auf dem Bildschirm erscheint, drücken Sie so schnell wie möglich die Leertaste. Drücken Sie die Leertaste immer, wenn Sie ein Bild von Shelmet oder das Wort SHELMET sehen. 

Drücken Sie die Leertaste, um die Aufgabe zu starten.",target2,stimuli/t2.jpg,77,74,stimuli/filler44.jpg,filler,False,None,,,,,,,,,,,,,,0,0,0,0,,,,,0,0,0,1,0,73,73,73,,,,,,,,,,,,,,,,,,,,,,,,,,,,,,,,,,,,,,,,,,,,,,,,,,,,,CS1_USneg,None,1,,,,,,,,,,,,,,,,,,21,f,77,n,2019_Nov_27_1317,ec_RRR,3.0.4,59.99513352015485,
Unkelbach and Hogden,Das Zielwesen für diese Aufgabe ist Shelmet:,"Also sobald Shelmet (sein Name oder sein Bild) auf dem Bildschirm erscheint, drücken Sie so schnell wie möglich die Leertaste. Drücken Sie die Leertaste immer, wenn Sie ein Bild von Shelmet oder das Wort SHELMET sehen. 

Drücken Sie die Leertaste, um die Aufgabe zu starten.",target2,stimuli/t2.jpg,77,75,stimuli/filler29.jpg,filler,False,None,,,,,,,,,,,,,,0,0,0,0,,,,,0,0,0,1,0,74,74,74,,,,,,,,,,,,,,,,,,,,,,,,,,,,,,,,,,,,,,,,,,,,,,,,,,,,,CS1_USneg,None,1,,,,,,,,,,,,,,,,,,21,f,77,n,2019_Nov_27_1317,ec_RRR,3.0.4,59.99513352015485,
Unkelbach and Hogden,Das Zielwesen für diese Aufgabe ist Shelmet:,"Also sobald Shelmet (sein Name oder sein Bild) auf dem Bildschirm erscheint, drücken Sie so schnell wie möglich die Leertaste. Drücken Sie die Leertaste immer, wenn Sie ein Bild von Shelmet oder das Wort SHELMET sehen. 

Drücken Sie die Leertaste, um die Aufgabe zu starten.",target2,stimuli/t2.jpg,77,76,stimuli/target2_4.jpg,target,True,space,,,,,,,,,,,,,,0,0,0,0,,,,,0,0,0,1,0,75,75,75,,,,,,,,,,,,,,,,,,,,,,,,,,,,,,,,,,,,,,,,,,,,,,,,,,,,,CS1_USneg,space,1,0.6930177568083309,,,,,,,,,,,,,,,,,21,f,77,n,2019_Nov_27_1317,ec_RRR,3.0.4,59.99513352015485,
Unkelbach and Hogden,Das Zielwesen für diese Aufgabe ist Shelmet:,"Also sobald Shelmet (sein Name oder sein Bild) auf dem Bildschirm erscheint, drücken Sie so schnell wie möglich die Leertaste. Drücken Sie die Leertaste immer, wenn Sie ein Bild von Shelmet oder das Wort SHELMET sehen. 

Drücken Sie die Leertaste, um die Aufgabe zu starten.",target2,stimuli/t2.jpg,77,77,stimuli/filler16.jpg,filler,False,None,,,,,,,,,,,,,,0,0,0,0,,,,,0,0,0,1,0,76,76,76,,,,,,,,,,,,,,,,,,,,,,,,,,,,,,,,,,,,,,,,,,,,,,,,,,,,,CS1_USneg,None,1,,,,,,,,,,,,,,,,,,21,f,77,n,2019_Nov_27_1317,ec_RRR,3.0.4,59.99513352015485,
Unkelbach and Hogden,Das Zielwesen für diese Aufgabe ist Shelmet:,"Also sobald Shelmet (sein Name oder sein Bild) auf dem Bildschirm erscheint, drücken Sie so schnell wie möglich die Leertaste. Drücken Sie die Leertaste immer, wenn Sie ein Bild von Shelmet oder das Wort SHELMET sehen. 

Drücken Sie die Leertaste, um die Aufgabe zu starten.",target2,stimuli/t2.jpg,77,78,stimuli/filler9.jpg,filler,False,None,,,,,,,,,,,,,,0,0,0,0,,,,,0,0,0,1,0,77,77,77,,,,,,,,,,,,,,,,,,,,,,,,,,,,,,,,,,,,,,,,,,,,,,,,,,,,,CS1_USneg,None,1,,,,,,,,,,,,,,,,,,21,f,77,n,2019_Nov_27_1317,ec_RRR,3.0.4,59.99513352015485,
Unkelbach and Hogden,Das Zielwesen für diese Aufgabe ist Shelmet:,"Also sobald Shelmet (sein Name oder sein Bild) auf dem Bildschirm erscheint, drücken Sie so schnell wie möglich die Leertaste. Drücken Sie die Leertaste immer, wenn Sie ein Bild von Shelmet oder das Wort SHELMET sehen. 

Drücken Sie die Leertaste, um die Aufgabe zu starten.",target2,stimuli/t2.jpg,77,79,stimuli/filler23.jpg,filler,False,None,,,,,,,,,,,,,,0,0,0,0,,,,,0,0,0,1,0,78,78,78,,,,,,,,,,,,,,,,,,,,,,,,,,,,,,,,,,,,,,,,,,,,,,,,,,,,,CS1_USneg,None,1,,,,,,,,,,,,,,,,,,21,f,77,n,2019_Nov_27_1317,ec_RRR,3.0.4,59.99513352015485,
Unkelbach and Hogden,Das Zielwesen für diese Aufgabe ist Shelmet:,"Also sobald Shelmet (sein Name oder sein Bild) auf dem Bildschirm erscheint, drücken Sie so schnell wie möglich die Leertaste. Drücken Sie die Leertaste immer, wenn Sie ein Bild von Shelmet oder das Wort SHELMET sehen. 

Drücken Sie die Leertaste, um die Aufgabe zu starten.",target2,stimuli/t2.jpg,77,80,stimuli/blank.jpg,blank,False,None,,,,,,,,,,,,,,0,0,0,0,,,,,0,0,0,1,0,79,79,79,,,,,,,,,,,,,,,,,,,,,,,,,,,,,,,,,,,,,,,,,,,,,,,,,,,,,CS1_USneg,None,1,,,,,,,,,,,,,,,,,,21,f,77,n,2019_Nov_27_1317,ec_RRR,3.0.4,59.99513352015485,
Unkelbach and Hogden,Das Zielwesen für diese Aufgabe ist Shelmet:,"Also sobald Shelmet (sein Name oder sein Bild) auf dem Bildschirm erscheint, drücken Sie so schnell wie möglich die Leertaste. Drücken Sie die Leertaste immer, wenn Sie ein Bild von Shelmet oder das Wort SHELMET sehen. 

Drücken Sie die Leertaste, um die Aufgabe zu starten.",target2,stimuli/t2.jpg,77,81,stimuli/cs2_pos1.jpg,CSUS,False,None,,,,,,,,,,,,,,0,0,0,0,,,,,0,0,0,1,0,80,80,80,,,,,,,,,,,,,,,,,,,,,,,,,,,,,,,,,,,,,,,,,,,,,,,,,,,,,CS1_USneg,None,1,,,,,,,,,,,,,,,,,,21,f,77,n,2019_Nov_27_1317,ec_RRR,3.0.4,59.99513352015485,
Unkelbach and Hogden,Das Zielwesen für diese Aufgabe ist Shelmet:,"Also sobald Shelmet (sein Name oder sein Bild) auf dem Bildschirm erscheint, drücken Sie so schnell wie möglich die Leertaste. Drücken Sie die Leertaste immer, wenn Sie ein Bild von Shelmet oder das Wort SHELMET sehen. 

Drücken Sie die Leertaste, um die Aufgabe zu starten.",target2,stimuli/t2.jpg,77,82,stimuli/blank.jpg,blank,False,None,,,,,,,,,,,,,,0,0,0,0,,,,,0,0,0,1,0,81,81,81,,,,,,,,,,,,,,,,,,,,,,,,,,,,,,,,,,,,,,,,,,,,,,,,,,,,,CS1_USneg,None,1,,,,,,,,,,,,,,,,,,21,f,77,n,2019_Nov_27_1317,ec_RRR,3.0.4,59.99513352015485,
Unkelbach and Hogden,Das Zielwesen für diese Aufgabe ist Shelmet:,"Also sobald Shelmet (sein Name oder sein Bild) auf dem Bildschirm erscheint, drücken Sie so schnell wie möglich die Leertaste. Drücken Sie die Leertaste immer, wenn Sie ein Bild von Shelmet oder das Wort SHELMET sehen. 

Drücken Sie die Leertaste, um die Aufgabe zu starten.",target2,stimuli/t2.jpg,77,83,stimuli/filler40.jpg,filler,False,None,,,,,,,,,,,,,,0,0,0,0,,,,,0,0,0,1,0,82,82,82,,,,,,,,,,,,,,,,,,,,,,,,,,,,,,,,,,,,,,,,,,,,,,,,,,,,,CS1_USneg,None,1,,,,,,,,,,,,,,,,,,21,f,77,n,2019_Nov_27_1317,ec_RRR,3.0.4,59.99513352015485,
Unkelbach and Hogden,Das Zielwesen für diese Aufgabe ist Shelmet:,"Also sobald Shelmet (sein Name oder sein Bild) auf dem Bildschirm erscheint, drücken Sie so schnell wie möglich die Leertaste. Drücken Sie die Leertaste immer, wenn Sie ein Bild von Shelmet oder das Wort SHELMET sehen. 

Drücken Sie die Leertaste, um die Aufgabe zu starten.",target2,stimuli/t2.jpg,77,84,stimuli/target2_10.jpg,target,True,space,,,,,,,,,,,,,,0,0,0,0,,,,,0,0,0,1,0,83,83,83,,,,,,,,,,,,,,,,,,,,,,,,,,,,,,,,,,,,,,,,,,,,,,,,,,,,,CS1_USneg,space,1,0.5432044362059969,,,,,,,,,,,,,,,,,21,f,77,n,2019_Nov_27_1317,ec_RRR,3.0.4,59.99513352015485,
Unkelbach and Hogden,Das Zielwesen für diese Aufgabe ist Shelmet:,"Also sobald Shelmet (sein Name oder sein Bild) auf dem Bildschirm erscheint, drücken Sie so schnell wie möglich die Leertaste. Drücken Sie die Leertaste immer, wenn Sie ein Bild von Shelmet oder das Wort SHELMET sehen. 

Drücken Sie die Leertaste, um die Aufgabe zu starten.",target2,stimuli/t2.jpg,77,85,stimuli/filler37.jpg,filler,False,None,,,,,,,,,,,,,,0,0,0,0,,,,,0,0,0,1,0,84,84,84,,,,,,,,,,,,,,,,,,,,,,,,,,,,,,,,,,,,,,,,,,,,,,,,,,,,,CS1_USneg,None,1,,,,,,,,,,,,,,,,,,21,f,77,n,2019_Nov_27_1317,ec_RRR,3.0.4,59.99513352015485,
Unkelbach and Hogden,Das Zielwesen für diese Aufgabe ist Shelmet:,"Also sobald Shelmet (sein Name oder sein Bild) auf dem Bildschirm erscheint, drücken Sie so schnell wie möglich die Leertaste. Drücken Sie die Leertaste immer, wenn Sie ein Bild von Shelmet oder das Wort SHELMET sehen. 

Drücken Sie die Leertaste, um die Aufgabe zu starten.",target2,stimuli/t2.jpg,77,86,stimuli/filler41.jpg,filler,False,None,,,,,,,,,,,,,,0,0,0,0,,,,,0,0,0,1,0,85,85,85,,,,,,,,,,,,,,,,,,,,,,,,,,,,,,,,,,,,,,,,,,,,,,,,,,,,,CS1_USneg,None,1,,,,,,,,,,,,,,,,,,21,f,77,n,2019_Nov_27_1317,ec_RRR,3.0.4,59.99513352015485,
Unkelbach and Hogden,Das Zielwesen für diese Aufgabe ist Cranidos:,"Also sobald Cranidos (sein Name oder sein Bild) auf dem Bildschirm erscheint, drücken Sie so schnell wie möglich die Leertaste. Drücken Sie die Leertaste immer, wenn Sie ein Bild von Cranidos oder das Wort CRANIDOS sehen. 

Drücken Sie die Leertaste, um die Aufgabe zu starten.",target1,stimuli/t1.jpg,77,1,stimuli/target1_4.jpg,target,True,space,,,,,,,,,,,,,,0,0,0,0,,,,,0,1,1,0,0,0,0,0,,,,,,,,,,,,,,,,,,,,,,,,,,,,,,,,,,,,,,,,,,,,,,,,,,,,,CS1_USneg,space,1,0.5454912050281564,,,,,,,,,,,,,,,,,21,f,77,n,2019_Nov_27_1317,ec_RRR,3.0.4,59.99513352015485,
Unkelbach and Hogden,Das Zielwesen für diese Aufgabe ist Cranidos:,"Also sobald Cranidos (sein Name oder sein Bild) auf dem Bildschirm erscheint, drücken Sie so schnell wie möglich die Leertaste. Drücken Sie die Leertaste immer, wenn Sie ein Bild von Cranidos oder das Wort CRANIDOS sehen. 

Drücken Sie die Leertaste, um die Aufgabe zu starten.",target1,stimuli/t1.jpg,77,2,stimuli/filler13.jpg,filler,False,None,,,,,,,,,,,,,,0,0,0,0,,,,,0,1,1,0,0,1,1,1,,,,,,,,,,,,,,,,,,,,,,,,,,,,,,,,,,,,,,,,,,,,,,,,,,,,,CS1_USneg,None,1,,,,,,,,,,,,,,,,,,21,f,77,n,2019_Nov_27_1317,ec_RRR,3.0.4,59.99513352015485,
Unkelbach and Hogden,Das Zielwesen für diese Aufgabe ist Cranidos:,"Also sobald Cranidos (sein Name oder sein Bild) auf dem Bildschirm erscheint, drücken Sie so schnell wie möglich die Leertaste. Drücken Sie die Leertaste immer, wenn Sie ein Bild von Cranidos oder das Wort CRANIDOS sehen. 

Drücken Sie die Leertaste, um die Aufgabe zu starten.",target1,stimuli/t1.jpg,77,3,stimuli/filler24.jpg,filler,False,None,,,,,,,,,,,,,,0,0,0,0,,,,,0,1,1,0,0,2,2,2,,,,,,,,,,,,,,,,,,,,,,,,,,,,,,,,,,,,,,,,,,,,,,,,,,,,,CS1_USneg,None,1,,,,,,,,,,,,,,,,,,21,f,77,n,2019_Nov_27_1317,ec_RRR,3.0.4,59.99513352015485,
Unkelbach and Hogden,Das Zielwesen für diese Aufgabe ist Cranidos:,"Also sobald Cranidos (sein Name oder sein Bild) auf dem Bildschirm erscheint, drücken Sie so schnell wie möglich die Leertaste. Drücken Sie die Leertaste immer, wenn Sie ein Bild von Cranidos oder das Wort CRANIDOS sehen. 

Drücken Sie die Leertaste, um die Aufgabe zu starten.",target1,stimuli/t1.jpg,77,4,stimuli/filler34.jpg,filler,False,None,,,,,,,,,,,,,,0,0,0,0,,,,,0,1,1,0,0,3,3,3,,,,,,,,,,,,,,,,,,,,,,,,,,,,,,,,,,,,,,,,,,,,,,,,,,,,,CS1_USneg,None,1,,,,,,,,,,,,,,,,,,21,f,77,n,2019_Nov_27_1317,ec_RRR,3.0.4,59.99513352015485,
Unkelbach and Hogden,Das Zielwesen für diese Aufgabe ist Cranidos:,"Also sobald Cranidos (sein Name oder sein Bild) auf dem Bildschirm erscheint, drücken Sie so schnell wie möglich die Leertaste. Drücken Sie die Leertaste immer, wenn Sie ein Bild von Cranidos oder das Wort CRANIDOS sehen. 

Drücken Sie die Leertaste, um die Aufgabe zu starten.",target1,stimuli/t1.jpg,77,5,stimuli/target1_1.jpg,target,True,space,,,,,,,,,,,,,,0,0,0,0,,,,,0,1,1,0,0,4,4,4,,,,,,,,,,,,,,,,,,,,,,,,,,,,,,,,,,,,,,,,,,,,,,,,,,,,,CS1_USneg,space,1,0.6177795199928369,,,,,,,,,,,,,,,,,21,f,77,n,2019_Nov_27_1317,ec_RRR,3.0.4,59.99513352015485,
Unkelbach and Hogden,Das Zielwesen für diese Aufgabe ist Cranidos:,"Also sobald Cranidos (sein Name oder sein Bild) auf dem Bildschirm erscheint, drücken Sie so schnell wie möglich die Leertaste. Drücken Sie die Leertaste immer, wenn Sie ein Bild von Cranidos oder das Wort CRANIDOS sehen. 

Drücken Sie die Leertaste, um die Aufgabe zu starten.",target1,stimuli/t1.jpg,77,6,stimuli/filler25.jpg,filler,False,None,,,,,,,,,,,,,,0,0,0,0,,,,,0,1,1,0,0,5,5,5,,,,,,,,,,,,,,,,,,,,,,,,,,,,,,,,,,,,,,,,,,,,,,,,,,,,,CS1_USneg,None,1,,,,,,,,,,,,,,,,,,21,f,77,n,2019_Nov_27_1317,ec_RRR,3.0.4,59.99513352015485,
Unkelbach and Hogden,Das Zielwesen für diese Aufgabe ist Cranidos:,"Also sobald Cranidos (sein Name oder sein Bild) auf dem Bildschirm erscheint, drücken Sie so schnell wie möglich die Leertaste. Drücken Sie die Leertaste immer, wenn Sie ein Bild von Cranidos oder das Wort CRANIDOS sehen. 

Drücken Sie die Leertaste, um die Aufgabe zu starten.",target1,stimuli/t1.jpg,77,7,stimuli/filler18.jpg,filler,False,None,,,,,,,,,,,,,,0,0,0,0,,,,,0,1,1,0,0,6,6,6,,,,,,,,,,,,,,,,,,,,,,,,,,,,,,,,,,,,,,,,,,,,,,,,,,,,,CS1_USneg,None,1,,,,,,,,,,,,,,,,,,21,f,77,n,2019_Nov_27_1317,ec_RRR,3.0.4,59.99513352015485,
Unkelbach and Hogden,Das Zielwesen für diese Aufgabe ist Cranidos:,"Also sobald Cranidos (sein Name oder sein Bild) auf dem Bildschirm erscheint, drücken Sie so schnell wie möglich die Leertaste. Drücken Sie die Leertaste immer, wenn Sie ein Bild von Cranidos oder das Wort CRANIDOS sehen. 

Drücken Sie die Leertaste, um die Aufgabe zu starten.",target1,stimuli/t1.jpg,77,8,stimuli/filler14.jpg,filler,False,None,,,,,,,,,,,,,,0,0,0,0,,,,,0,1,1,0,0,7,7,7,,,,,,,,,,,,,,,,,,,,,,,,,,,,,,,,,,,,,,,,,,,,,,,,,,,,,CS1_USneg,None,1,,,,,,,,,,,,,,,,,,21,f,77,n,2019_Nov_27_1317,ec_RRR,3.0.4,59.99513352015485,
Unkelbach and Hogden,Das Zielwesen für diese Aufgabe ist Cranidos:,"Also sobald Cranidos (sein Name oder sein Bild) auf dem Bildschirm erscheint, drücken Sie so schnell wie möglich die Leertaste. Drücken Sie die Leertaste immer, wenn Sie ein Bild von Cranidos oder das Wort CRANIDOS sehen. 

Drücken Sie die Leertaste, um die Aufgabe zu starten.",target1,stimuli/t1.jpg,77,9,stimuli/filler46.jpg,filler,False,None,,,,,,,,,,,,,,0,0,0,0,,,,,0,1,1,0,0,8,8,8,,,,,,,,,,,,,,,,,,,,,,,,,,,,,,,,,,,,,,,,,,,,,,,,,,,,,CS1_USneg,None,1,,,,,,,,,,,,,,,,,,21,f,77,n,2019_Nov_27_1317,ec_RRR,3.0.4,59.99513352015485,
Unkelbach and Hogden,Das Zielwesen für diese Aufgabe ist Cranidos:,"Also sobald Cranidos (sein Name oder sein Bild) auf dem Bildschirm erscheint, drücken Sie so schnell wie möglich die Leertaste. Drücken Sie die Leertaste immer, wenn Sie ein Bild von Cranidos oder das Wort CRANIDOS sehen. 

Drücken Sie die Leertaste, um die Aufgabe zu starten.",target1,stimuli/t1.jpg,77,10,stimuli/blank.jpg,blank,False,None,,,,,,,,,,,,,,0,0,0,0,,,,,0,1,1,0,0,9,9,9,,,,,,,,,,,,,,,,,,,,,,,,,,,,,,,,,,,,,,,,,,,,,,,,,,,,,CS1_USneg,None,1,,,,,,,,,,,,,,,,,,21,f,77,n,2019_Nov_27_1317,ec_RRR,3.0.4,59.99513352015485,
Unkelbach and Hogden,Das Zielwesen für diese Aufgabe ist Cranidos:,"Also sobald Cranidos (sein Name oder sein Bild) auf dem Bildschirm erscheint, drücken Sie so schnell wie möglich die Leertaste. Drücken Sie die Leertaste immer, wenn Sie ein Bild von Cranidos oder das Wort CRANIDOS sehen. 

Drücken Sie die Leertaste, um die Aufgabe zu starten.",target1,stimuli/t1.jpg,77,11,stimuli/cs1_neg3.jpg,CSUS,False,None,,,,,,,,,,,,,,0,0,0,0,,,,,0,1,1,0,0,10,10,10,,,,,,,,,,,,,,,,,,,,,,,,,,,,,,,,,,,,,,,,,,,,,,,,,,,,,CS1_USneg,None,1,,,,,,,,,,,,,,,,,,21,f,77,n,2019_Nov_27_1317,ec_RRR,3.0.4,59.99513352015485,
Unkelbach and Hogden,Das Zielwesen für diese Aufgabe ist Cranidos:,"Also sobald Cranidos (sein Name oder sein Bild) auf dem Bildschirm erscheint, drücken Sie so schnell wie möglich die Leertaste. Drücken Sie die Leertaste immer, wenn Sie ein Bild von Cranidos oder das Wort CRANIDOS sehen. 

Drücken Sie die Leertaste, um die Aufgabe zu starten.",target1,stimuli/t1.jpg,77,12,stimuli/blank.jpg,blank,False,None,,,,,,,,,,,,,,0,0,0,0,,,,,0,1,1,0,0,11,11,11,,,,,,,,,,,,,,,,,,,,,,,,,,,,,,,,,,,,,,,,,,,,,,,,,,,,,CS1_USneg,None,1,,,,,,,,,,,,,,,,,,21,f,77,n,2019_Nov_27_1317,ec_RRR,3.0.4,59.99513352015485,
Unkelbach and Hogden,Das Zielwesen für diese Aufgabe ist Cranidos:,"Also sobald Cranidos (sein Name oder sein Bild) auf dem Bildschirm erscheint, drücken Sie so schnell wie möglich die Leertaste. Drücken Sie die Leertaste immer, wenn Sie ein Bild von Cranidos oder das Wort CRANIDOS sehen. 

Drücken Sie die Leertaste, um die Aufgabe zu starten.",target1,stimuli/t1.jpg,77,13,stimuli/filler49.jpg,filler,False,None,,,,,,,,,,,,,,0,0,0,0,,,,,0,1,1,0,0,12,12,12,,,,,,,,,,,,,,,,,,,,,,,,,,,,,,,,,,,,,,,,,,,,,,,,,,,,,CS1_USneg,None,1,,,,,,,,,,,,,,,,,,21,f,77,n,2019_Nov_27_1317,ec_RRR,3.0.4,59.99513352015485,
Unkelbach and Hogden,Das Zielwesen für diese Aufgabe ist Cranidos:,"Also sobald Cranidos (sein Name oder sein Bild) auf dem Bildschirm erscheint, drücken Sie so schnell wie möglich die Leertaste. Drücken Sie die Leertaste immer, wenn Sie ein Bild von Cranidos oder das Wort CRANIDOS sehen. 

Drücken Sie die Leertaste, um die Aufgabe zu starten.",target1,stimuli/t1.jpg,77,14,stimuli/target1_5.jpg,target,True,space,,,,,,,,,,,,,,0,0,0,0,,,,,0,1,1,0,0,13,13,13,,,,,,,,,,,,,,,,,,,,,,,,,,,,,,,,,,,,,,,,,,,,,,,,,,,,,CS1_USneg,space,1,0.7446231797639484,,,,,,,,,,,,,,,,,21,f,77,n,2019_Nov_27_1317,ec_RRR,3.0.4,59.99513352015485,
Unkelbach and Hogden,Das Zielwesen für diese Aufgabe ist Cranidos:,"Also sobald Cranidos (sein Name oder sein Bild) auf dem Bildschirm erscheint, drücken Sie so schnell wie möglich die Leertaste. Drücken Sie die Leertaste immer, wenn Sie ein Bild von Cranidos oder das Wort CRANIDOS sehen. 

Drücken Sie die Leertaste, um die Aufgabe zu starten.",target1,stimuli/t1.jpg,77,15,stimuli/target1_6.jpg,target,True,space,,,,,,,,,,,,,,0,0,0,0,,,,,0,1,1,0,0,14,14,14,,,,,,,,,,,,,,,,,,,,,,,,,,,,,,,,,,,,,,,,,,,,,,,,,,,,,CS1_USneg,space,1,0.8788836913026898,,,,,,,,,,,,,,,,,21,f,77,n,2019_Nov_27_1317,ec_RRR,3.0.4,59.99513352015485,
Unkelbach and Hogden,Das Zielwesen für diese Aufgabe ist Cranidos:,"Also sobald Cranidos (sein Name oder sein Bild) auf dem Bildschirm erscheint, drücken Sie so schnell wie möglich die Leertaste. Drücken Sie die Leertaste immer, wenn Sie ein Bild von Cranidos oder das Wort CRANIDOS sehen. 

Drücken Sie die Leertaste, um die Aufgabe zu starten.",target1,stimuli/t1.jpg,77,16,stimuli/filler28.jpg,filler,False,None,,,,,,,,,,,,,,0,0,0,0,,,,,0,1,1,0,0,15,15,15,,,,,,,,,,,,,,,,,,,,,,,,,,,,,,,,,,,,,,,,,,,,,,,,,,,,,CS1_USneg,None,1,,,,,,,,,,,,,,,,,,21,f,77,n,2019_Nov_27_1317,ec_RRR,3.0.4,59.99513352015485,
Unkelbach and Hogden,Das Zielwesen für diese Aufgabe ist Cranidos:,"Also sobald Cranidos (sein Name oder sein Bild) auf dem Bildschirm erscheint, drücken Sie so schnell wie möglich die Leertaste. Drücken Sie die Leertaste immer, wenn Sie ein Bild von Cranidos oder das Wort CRANIDOS sehen. 

Drücken Sie die Leertaste, um die Aufgabe zu starten.",target1,stimuli/t1.jpg,77,17,stimuli/filler31.jpg,filler,False,None,,,,,,,,,,,,,,0,0,0,0,,,,,0,1,1,0,0,16,16,16,,,,,,,,,,,,,,,,,,,,,,,,,,,,,,,,,,,,,,,,,,,,,,,,,,,,,CS1_USneg,None,1,,,,,,,,,,,,,,,,,,21,f,77,n,2019_Nov_27_1317,ec_RRR,3.0.4,59.99513352015485,
Unkelbach and Hogden,Das Zielwesen für diese Aufgabe ist Cranidos:,"Also sobald Cranidos (sein Name oder sein Bild) auf dem Bildschirm erscheint, drücken Sie so schnell wie möglich die Leertaste. Drücken Sie die Leertaste immer, wenn Sie ein Bild von Cranidos oder das Wort CRANIDOS sehen. 

Drücken Sie die Leertaste, um die Aufgabe zu starten.",target1,stimuli/t1.jpg,77,18,stimuli/filler51.jpg,filler,False,None,,,,,,,,,,,,,,0,0,0,0,,,,,0,1,1,0,0,17,17,17,,,,,,,,,,,,,,,,,,,,,,,,,,,,,,,,,,,,,,,,,,,,,,,,,,,,,CS1_USneg,None,1,,,,,,,,,,,,,,,,,,21,f,77,n,2019_Nov_27_1317,ec_RRR,3.0.4,59.99513352015485,
Unkelbach and Hogden,Das Zielwesen für diese Aufgabe ist Cranidos:,"Also sobald Cranidos (sein Name oder sein Bild) auf dem Bildschirm erscheint, drücken Sie so schnell wie möglich die Leertaste. Drücken Sie die Leertaste immer, wenn Sie ein Bild von Cranidos oder das Wort CRANIDOS sehen. 

Drücken Sie die Leertaste, um die Aufgabe zu starten.",target1,stimuli/t1.jpg,77,19,stimuli/filler42.jpg,filler,False,None,,,,,,,,,,,,,,0,0,0,0,,,,,0,1,1,0,0,18,18,18,,,,,,,,,,,,,,,,,,,,,,,,,,,,,,,,,,,,,,,,,,,,,,,,,,,,,CS1_USneg,None,1,,,,,,,,,,,,,,,,,,21,f,77,n,2019_Nov_27_1317,ec_RRR,3.0.4,59.99513352015485,
Unkelbach and Hogden,Das Zielwesen für diese Aufgabe ist Cranidos:,"Also sobald Cranidos (sein Name oder sein Bild) auf dem Bildschirm erscheint, drücken Sie so schnell wie möglich die Leertaste. Drücken Sie die Leertaste immer, wenn Sie ein Bild von Cranidos oder das Wort CRANIDOS sehen. 

Drücken Sie die Leertaste, um die Aufgabe zu starten.",target1,stimuli/t1.jpg,77,20,stimuli/blank.jpg,blank,False,None,,,,,,,,,,,,,,0,0,0,0,,,,,0,1,1,0,0,19,19,19,,,,,,,,,,,,,,,,,,,,,,,,,,,,,,,,,,,,,,,,,,,,,,,,,,,,,CS1_USneg,None,1,,,,,,,,,,,,,,,,,,21,f,77,n,2019_Nov_27_1317,ec_RRR,3.0.4,59.99513352015485,
Unkelbach and Hogden,Das Zielwesen für diese Aufgabe ist Cranidos:,"Also sobald Cranidos (sein Name oder sein Bild) auf dem Bildschirm erscheint, drücken Sie so schnell wie möglich die Leertaste. Drücken Sie die Leertaste immer, wenn Sie ein Bild von Cranidos oder das Wort CRANIDOS sehen. 

Drücken Sie die Leertaste, um die Aufgabe zu starten.",target1,stimuli/t1.jpg,77,21,stimuli/cs2_pos3.jpg,CSUS,False,None,,,,,,,,,,,,,,0,0,0,0,,,,,0,1,1,0,0,20,20,20,,,,,,,,,,,,,,,,,,,,,,,,,,,,,,,,,,,,,,,,,,,,,,,,,,,,,CS1_USneg,None,1,,,,,,,,,,,,,,,,,,21,f,77,n,2019_Nov_27_1317,ec_RRR,3.0.4,59.99513352015485,
Unkelbach and Hogden,Das Zielwesen für diese Aufgabe ist Cranidos:,"Also sobald Cranidos (sein Name oder sein Bild) auf dem Bildschirm erscheint, drücken Sie so schnell wie möglich die Leertaste. Drücken Sie die Leertaste immer, wenn Sie ein Bild von Cranidos oder das Wort CRANIDOS sehen. 

Drücken Sie die Leertaste, um die Aufgabe zu starten.",target1,stimuli/t1.jpg,77,22,stimuli/blank.jpg,blank,False,None,,,,,,,,,,,,,,0,0,0,0,,,,,0,1,1,0,0,21,21,21,,,,,,,,,,,,,,,,,,,,,,,,,,,,,,,,,,,,,,,,,,,,,,,,,,,,,CS1_USneg,None,1,,,,,,,,,,,,,,,,,,21,f,77,n,2019_Nov_27_1317,ec_RRR,3.0.4,59.99513352015485,
Unkelbach and Hogden,Das Zielwesen für diese Aufgabe ist Cranidos:,"Also sobald Cranidos (sein Name oder sein Bild) auf dem Bildschirm erscheint, drücken Sie so schnell wie möglich die Leertaste. Drücken Sie die Leertaste immer, wenn Sie ein Bild von Cranidos oder das Wort CRANIDOS sehen. 

Drücken Sie die Leertaste, um die Aufgabe zu starten.",target1,stimuli/t1.jpg,77,23,stimuli/filler30.jpg,filler,False,None,,,,,,,,,,,,,,0,0,0,0,,,,,0,1,1,0,0,22,22,22,,,,,,,,,,,,,,,,,,,,,,,,,,,,,,,,,,,,,,,,,,,,,,,,,,,,,CS1_USneg,None,1,,,,,,,,,,,,,,,,,,21,f,77,n,2019_Nov_27_1317,ec_RRR,3.0.4,59.99513352015485,
Unkelbach and Hogden,Das Zielwesen für diese Aufgabe ist Cranidos:,"Also sobald Cranidos (sein Name oder sein Bild) auf dem Bildschirm erscheint, drücken Sie so schnell wie möglich die Leertaste. Drücken Sie die Leertaste immer, wenn Sie ein Bild von Cranidos oder das Wort CRANIDOS sehen. 

Drücken Sie die Leertaste, um die Aufgabe zu starten.",target1,stimuli/t1.jpg,77,24,stimuli/filler33.jpg,filler,False,None,,,,,,,,,,,,,,0,0,0,0,,,,,0,1,1,0,0,23,23,23,,,,,,,,,,,,,,,,,,,,,,,,,,,,,,,,,,,,,,,,,,,,,,,,,,,,,CS1_USneg,None,1,,,,,,,,,,,,,,,,,,21,f,77,n,2019_Nov_27_1317,ec_RRR,3.0.4,59.99513352015485,
Unkelbach and Hogden,Das Zielwesen für diese Aufgabe ist Cranidos:,"Also sobald Cranidos (sein Name oder sein Bild) auf dem Bildschirm erscheint, drücken Sie so schnell wie möglich die Leertaste. Drücken Sie die Leertaste immer, wenn Sie ein Bild von Cranidos oder das Wort CRANIDOS sehen. 

Drücken Sie die Leertaste, um die Aufgabe zu starten.",target1,stimuli/t1.jpg,77,25,stimuli/target1_7.jpg,target,True,space,,,,,,,,,,,,,,0,0,0,0,,,,,0,1,1,0,0,24,24,24,,,,,,,,,,,,,,,,,,,,,,,,,,,,,,,,,,,,,,,,,,,,,,,,,,,,,CS1_USneg,space,1,0.5301082399491861,,,,,,,,,,,,,,,,,21,f,77,n,2019_Nov_27_1317,ec_RRR,3.0.4,59.99513352015485,
Unkelbach and Hogden,Das Zielwesen für diese Aufgabe ist Cranidos:,"Also sobald Cranidos (sein Name oder sein Bild) auf dem Bildschirm erscheint, drücken Sie so schnell wie möglich die Leertaste. Drücken Sie die Leertaste immer, wenn Sie ein Bild von Cranidos oder das Wort CRANIDOS sehen. 

Drücken Sie die Leertaste, um die Aufgabe zu starten.",target1,stimuli/t1.jpg,77,26,stimuli/filler38.jpg,filler,False,None,,,,,,,,,,,,,,0,0,0,0,,,,,0,1,1,0,0,25,25,25,,,,,,,,,,,,,,,,,,,,,,,,,,,,,,,,,,,,,,,,,,,,,,,,,,,,,CS1_USneg,None,1,,,,,,,,,,,,,,,,,,21,f,77,n,2019_Nov_27_1317,ec_RRR,3.0.4,59.99513352015485,
Unkelbach and Hogden,Das Zielwesen für diese Aufgabe ist Cranidos:,"Also sobald Cranidos (sein Name oder sein Bild) auf dem Bildschirm erscheint, drücken Sie so schnell wie möglich die Leertaste. Drücken Sie die Leertaste immer, wenn Sie ein Bild von Cranidos oder das Wort CRANIDOS sehen. 

Drücken Sie die Leertaste, um die Aufgabe zu starten.",target1,stimuli/t1.jpg,77,27,stimuli/filler50.jpg,filler,False,None,,,,,,,,,,,,,,0,0,0,0,,,,,0,1,1,0,0,26,26,26,,,,,,,,,,,,,,,,,,,,,,,,,,,,,,,,,,,,,,,,,,,,,,,,,,,,,CS1_USneg,None,1,,,,,,,,,,,,,,,,,,21,f,77,n,2019_Nov_27_1317,ec_RRR,3.0.4,59.99513352015485,
Unkelbach and Hogden,Das Zielwesen für diese Aufgabe ist Cranidos:,"Also sobald Cranidos (sein Name oder sein Bild) auf dem Bildschirm erscheint, drücken Sie so schnell wie möglich die Leertaste. Drücken Sie die Leertaste immer, wenn Sie ein Bild von Cranidos oder das Wort CRANIDOS sehen. 

Drücken Sie die Leertaste, um die Aufgabe zu starten.",target1,stimuli/t1.jpg,77,28,stimuli/filler2.jpg,filler,False,None,,,,,,,,,,,,,,0,0,0,0,,,,,0,1,1,0,0,27,27,27,,,,,,,,,,,,,,,,,,,,,,,,,,,,,,,,,,,,,,,,,,,,,,,,,,,,,CS1_USneg,None,1,,,,,,,,,,,,,,,,,,21,f,77,n,2019_Nov_27_1317,ec_RRR,3.0.4,59.99513352015485,
Unkelbach and Hogden,Das Zielwesen für diese Aufgabe ist Cranidos:,"Also sobald Cranidos (sein Name oder sein Bild) auf dem Bildschirm erscheint, drücken Sie so schnell wie möglich die Leertaste. Drücken Sie die Leertaste immer, wenn Sie ein Bild von Cranidos oder das Wort CRANIDOS sehen. 

Drücken Sie die Leertaste, um die Aufgabe zu starten.",target1,stimuli/t1.jpg,77,29,stimuli/target1_2.jpg,target,True,space,,,,,,,,,,,,,,0,0,0,0,,,,,0,1,1,0,0,28,28,28,,,,,,,,,,,,,,,,,,,,,,,,,,,,,,,,,,,,,,,,,,,,,,,,,,,,,CS1_USneg,space,1,0.5470323819317855,,,,,,,,,,,,,,,,,21,f,77,n,2019_Nov_27_1317,ec_RRR,3.0.4,59.99513352015485,
Unkelbach and Hogden,Das Zielwesen für diese Aufgabe ist Cranidos:,"Also sobald Cranidos (sein Name oder sein Bild) auf dem Bildschirm erscheint, drücken Sie so schnell wie möglich die Leertaste. Drücken Sie die Leertaste immer, wenn Sie ein Bild von Cranidos oder das Wort CRANIDOS sehen. 

Drücken Sie die Leertaste, um die Aufgabe zu starten.",target1,stimuli/t1.jpg,77,30,stimuli/blank.jpg,blank,False,None,,,,,,,,,,,,,,0,0,0,0,,,,,0,1,1,0,0,29,29,29,,,,,,,,,,,,,,,,,,,,,,,,,,,,,,,,,,,,,,,,,,,,,,,,,,,,,CS1_USneg,None,1,,,,,,,,,,,,,,,,,,21,f,77,n,2019_Nov_27_1317,ec_RRR,3.0.4,59.99513352015485,
Unkelbach and Hogden,Das Zielwesen für diese Aufgabe ist Cranidos:,"Also sobald Cranidos (sein Name oder sein Bild) auf dem Bildschirm erscheint, drücken Sie so schnell wie möglich die Leertaste. Drücken Sie die Leertaste immer, wenn Sie ein Bild von Cranidos oder das Wort CRANIDOS sehen. 

Drücken Sie die Leertaste, um die Aufgabe zu starten.",target1,stimuli/t1.jpg,77,31,stimuli/cs1_neg18.jpg,CSUS,False,None,,,,,,,,,,,,,,0,0,0,0,,,,,0,1,1,0,0,30,30,30,,,,,,,,,,,,,,,,,,,,,,,,,,,,,,,,,,,,,,,,,,,,,,,,,,,,,CS1_USneg,None,1,,,,,,,,,,,,,,,,,,21,f,77,n,2019_Nov_27_1317,ec_RRR,3.0.4,59.99513352015485,
Unkelbach and Hogden,Das Zielwesen für diese Aufgabe ist Cranidos:,"Also sobald Cranidos (sein Name oder sein Bild) auf dem Bildschirm erscheint, drücken Sie so schnell wie möglich die Leertaste. Drücken Sie die Leertaste immer, wenn Sie ein Bild von Cranidos oder das Wort CRANIDOS sehen. 

Drücken Sie die Leertaste, um die Aufgabe zu starten.",target1,stimuli/t1.jpg,77,32,stimuli/blank.jpg,blank,False,None,,,,,,,,,,,,,,0,0,0,0,,,,,0,1,1,0,0,31,31,31,,,,,,,,,,,,,,,,,,,,,,,,,,,,,,,,,,,,,,,,,,,,,,,,,,,,,CS1_USneg,None,1,,,,,,,,,,,,,,,,,,21,f,77,n,2019_Nov_27_1317,ec_RRR,3.0.4,59.99513352015485,
Unkelbach and Hogden,Das Zielwesen für diese Aufgabe ist Cranidos:,"Also sobald Cranidos (sein Name oder sein Bild) auf dem Bildschirm erscheint, drücken Sie so schnell wie möglich die Leertaste. Drücken Sie die Leertaste immer, wenn Sie ein Bild von Cranidos oder das Wort CRANIDOS sehen. 

Drücken Sie die Leertaste, um die Aufgabe zu starten.",target1,stimuli/t1.jpg,77,33,stimuli/target1_8.jpg,target,True,space,,,,,,,,,,,,,,0,0,0,0,,,,,0,1,1,0,0,32,32,32,,,,,,,,,,,,,,,,,,,,,,,,,,,,,,,,,,,,,,,,,,,,,,,,,,,,,CS1_USneg,space,1,0.8314955640253174,,,,,,,,,,,,,,,,,21,f,77,n,2019_Nov_27_1317,ec_RRR,3.0.4,59.99513352015485,
Unkelbach and Hogden,Das Zielwesen für diese Aufgabe ist Cranidos:,"Also sobald Cranidos (sein Name oder sein Bild) auf dem Bildschirm erscheint, drücken Sie so schnell wie möglich die Leertaste. Drücken Sie die Leertaste immer, wenn Sie ein Bild von Cranidos oder das Wort CRANIDOS sehen. 

Drücken Sie die Leertaste, um die Aufgabe zu starten.",target1,stimuli/t1.jpg,77,34,stimuli/filler15.jpg,filler,False,None,,,,,,,,,,,,,,0,0,0,0,,,,,0,1,1,0,0,33,33,33,,,,,,,,,,,,,,,,,,,,,,,,,,,,,,,,,,,,,,,,,,,,,,,,,,,,,CS1_USneg,None,1,,,,,,,,,,,,,,,,,,21,f,77,n,2019_Nov_27_1317,ec_RRR,3.0.4,59.99513352015485,
Unkelbach and Hogden,Das Zielwesen für diese Aufgabe ist Cranidos:,"Also sobald Cranidos (sein Name oder sein Bild) auf dem Bildschirm erscheint, drücken Sie so schnell wie möglich die Leertaste. Drücken Sie die Leertaste immer, wenn Sie ein Bild von Cranidos oder das Wort CRANIDOS sehen. 

Drücken Sie die Leertaste, um die Aufgabe zu starten.",target1,stimuli/t1.jpg,77,35,stimuli/filler39.jpg,filler,False,None,,,,,,,,,,,,,,0,0,0,0,,,,,0,1,1,0,0,34,34,34,,,,,,,,,,,,,,,,,,,,,,,,,,,,,,,,,,,,,,,,,,,,,,,,,,,,,CS1_USneg,None,1,,,,,,,,,,,,,,,,,,21,f,77,n,2019_Nov_27_1317,ec_RRR,3.0.4,59.99513352015485,
Unkelbach and Hogden,Das Zielwesen für diese Aufgabe ist Cranidos:,"Also sobald Cranidos (sein Name oder sein Bild) auf dem Bildschirm erscheint, drücken Sie so schnell wie möglich die Leertaste. Drücken Sie die Leertaste immer, wenn Sie ein Bild von Cranidos oder das Wort CRANIDOS sehen. 

Drücken Sie die Leertaste, um die Aufgabe zu starten.",target1,stimuli/t1.jpg,77,36,stimuli/filler9.jpg,filler,False,None,,,,,,,,,,,,,,0,0,0,0,,,,,0,1,1,0,0,35,35,35,,,,,,,,,,,,,,,,,,,,,,,,,,,,,,,,,,,,,,,,,,,,,,,,,,,,,CS1_USneg,None,1,,,,,,,,,,,,,,,,,,21,f,77,n,2019_Nov_27_1317,ec_RRR,3.0.4,59.99513352015485,
Unkelbach and Hogden,Das Zielwesen für diese Aufgabe ist Cranidos:,"Also sobald Cranidos (sein Name oder sein Bild) auf dem Bildschirm erscheint, drücken Sie so schnell wie möglich die Leertaste. Drücken Sie die Leertaste immer, wenn Sie ein Bild von Cranidos oder das Wort CRANIDOS sehen. 

Drücken Sie die Leertaste, um die Aufgabe zu starten.",target1,stimuli/t1.jpg,77,37,stimuli/filler7.jpg,filler,False,None,,,,,,,,,,,,,,0,0,0,0,,,,,0,1,1,0,0,36,36,36,,,,,,,,,,,,,,,,,,,,,,,,,,,,,,,,,,,,,,,,,,,,,,,,,,,,,CS1_USneg,None,1,,,,,,,,,,,,,,,,,,21,f,77,n,2019_Nov_27_1317,ec_RRR,3.0.4,59.99513352015485,
Unkelbach and Hogden,Das Zielwesen für diese Aufgabe ist Cranidos:,"Also sobald Cranidos (sein Name oder sein Bild) auf dem Bildschirm erscheint, drücken Sie so schnell wie möglich die Leertaste. Drücken Sie die Leertaste immer, wenn Sie ein Bild von Cranidos oder das Wort CRANIDOS sehen. 

Drücken Sie die Leertaste, um die Aufgabe zu starten.",target1,stimuli/t1.jpg,77,38,stimuli/target1_3.jpg,target,True,space,,,,,,,,,,,,,,0,0,0,0,,,,,0,1,1,0,0,37,37,37,,,,,,,,,,,,,,,,,,,,,,,,,,,,,,,,,,,,,,,,,,,,,,,,,,,,,CS1_USneg,space,1,0.5659294289962418,,,,,,,,,,,,,,,,,21,f,77,n,2019_Nov_27_1317,ec_RRR,3.0.4,59.99513352015485,
Unkelbach and Hogden,Das Zielwesen für diese Aufgabe ist Cranidos:,"Also sobald Cranidos (sein Name oder sein Bild) auf dem Bildschirm erscheint, drücken Sie so schnell wie möglich die Leertaste. Drücken Sie die Leertaste immer, wenn Sie ein Bild von Cranidos oder das Wort CRANIDOS sehen. 

Drücken Sie die Leertaste, um die Aufgabe zu starten.",target1,stimuli/t1.jpg,77,39,stimuli/filler22.jpg,filler,False,None,,,,,,,,,,,,,,0,0,0,0,,,,,0,1,1,0,0,38,38,38,,,,,,,,,,,,,,,,,,,,,,,,,,,,,,,,,,,,,,,,,,,,,,,,,,,,,CS1_USneg,None,1,,,,,,,,,,,,,,,,,,21,f,77,n,2019_Nov_27_1317,ec_RRR,3.0.4,59.99513352015485,
Unkelbach and Hogden,Das Zielwesen für diese Aufgabe ist Cranidos:,"Also sobald Cranidos (sein Name oder sein Bild) auf dem Bildschirm erscheint, drücken Sie so schnell wie möglich die Leertaste. Drücken Sie die Leertaste immer, wenn Sie ein Bild von Cranidos oder das Wort CRANIDOS sehen. 

Drücken Sie die Leertaste, um die Aufgabe zu starten.",target1,stimuli/t1.jpg,77,40,stimuli/blank.jpg,blank,False,None,,,,,,,,,,,,,,0,0,0,0,,,,,0,1,1,0,0,39,39,39,,,,,,,,,,,,,,,,,,,,,,,,,,,,,,,,,,,,,,,,,,,,,,,,,,,,,CS1_USneg,None,1,,,,,,,,,,,,,,,,,,21,f,77,n,2019_Nov_27_1317,ec_RRR,3.0.4,59.99513352015485,
Unkelbach and Hogden,Das Zielwesen für diese Aufgabe ist Cranidos:,"Also sobald Cranidos (sein Name oder sein Bild) auf dem Bildschirm erscheint, drücken Sie so schnell wie möglich die Leertaste. Drücken Sie die Leertaste immer, wenn Sie ein Bild von Cranidos oder das Wort CRANIDOS sehen. 

Drücken Sie die Leertaste, um die Aufgabe zu starten.",target1,stimuli/t1.jpg,77,41,stimuli/cs2_pos12.jpg,CSUS,False,None,,,,,,,,,,,,,,0,0,0,0,,,,,0,1,1,0,0,40,40,40,,,,,,,,,,,,,,,,,,,,,,,,,,,,,,,,,,,,,,,,,,,,,,,,,,,,,CS1_USneg,None,1,,,,,,,,,,,,,,,,,,21,f,77,n,2019_Nov_27_1317,ec_RRR,3.0.4,59.99513352015485,
Unkelbach and Hogden,Das Zielwesen für diese Aufgabe ist Cranidos:,"Also sobald Cranidos (sein Name oder sein Bild) auf dem Bildschirm erscheint, drücken Sie so schnell wie möglich die Leertaste. Drücken Sie die Leertaste immer, wenn Sie ein Bild von Cranidos oder das Wort CRANIDOS sehen. 

Drücken Sie die Leertaste, um die Aufgabe zu starten.",target1,stimuli/t1.jpg,77,42,stimuli/blank.jpg,blank,False,None,,,,,,,,,,,,,,0,0,0,0,,,,,0,1,1,0,0,41,41,41,,,,,,,,,,,,,,,,,,,,,,,,,,,,,,,,,,,,,,,,,,,,,,,,,,,,,CS1_USneg,None,1,,,,,,,,,,,,,,,,,,21,f,77,n,2019_Nov_27_1317,ec_RRR,3.0.4,59.99513352015485,
Unkelbach and Hogden,Das Zielwesen für diese Aufgabe ist Cranidos:,"Also sobald Cranidos (sein Name oder sein Bild) auf dem Bildschirm erscheint, drücken Sie so schnell wie möglich die Leertaste. Drücken Sie die Leertaste immer, wenn Sie ein Bild von Cranidos oder das Wort CRANIDOS sehen. 

Drücken Sie die Leertaste, um die Aufgabe zu starten.",target1,stimuli/t1.jpg,77,43,stimuli/target1_10.jpg,target,True,space,,,,,,,,,,,,,,0,0,0,0,,,,,0,1,1,0,0,42,42,42,,,,,,,,,,,,,,,,,,,,,,,,,,,,,,,,,,,,,,,,,,,,,,,,,,,,,CS1_USneg,space,1,0.5656433759686479,,,,,,,,,,,,,,,,,21,f,77,n,2019_Nov_27_1317,ec_RRR,3.0.4,59.99513352015485,
Unkelbach and Hogden,Das Zielwesen für diese Aufgabe ist Cranidos:,"Also sobald Cranidos (sein Name oder sein Bild) auf dem Bildschirm erscheint, drücken Sie so schnell wie möglich die Leertaste. Drücken Sie die Leertaste immer, wenn Sie ein Bild von Cranidos oder das Wort CRANIDOS sehen. 

Drücken Sie die Leertaste, um die Aufgabe zu starten.",target1,stimuli/t1.jpg,77,44,stimuli/filler41.jpg,filler,False,None,,,,,,,,,,,,,,0,0,0,0,,,,,0,1,1,0,0,43,43,43,,,,,,,,,,,,,,,,,,,,,,,,,,,,,,,,,,,,,,,,,,,,,,,,,,,,,CS1_USneg,None,1,,,,,,,,,,,,,,,,,,21,f,77,n,2019_Nov_27_1317,ec_RRR,3.0.4,59.99513352015485,
Unkelbach and Hogden,Das Zielwesen für diese Aufgabe ist Cranidos:,"Also sobald Cranidos (sein Name oder sein Bild) auf dem Bildschirm erscheint, drücken Sie so schnell wie möglich die Leertaste. Drücken Sie die Leertaste immer, wenn Sie ein Bild von Cranidos oder das Wort CRANIDOS sehen. 

Drücken Sie die Leertaste, um die Aufgabe zu starten.",target1,stimuli/t1.jpg,77,45,stimuli/filler40.jpg,filler,False,None,,,,,,,,,,,,,,0,0,0,0,,,,,0,1,1,0,0,44,44,44,,,,,,,,,,,,,,,,,,,,,,,,,,,,,,,,,,,,,,,,,,,,,,,,,,,,,CS1_USneg,None,1,,,,,,,,,,,,,,,,,,21,f,77,n,2019_Nov_27_1317,ec_RRR,3.0.4,59.99513352015485,
Unkelbach and Hogden,Das Zielwesen für diese Aufgabe ist Cranidos:,"Also sobald Cranidos (sein Name oder sein Bild) auf dem Bildschirm erscheint, drücken Sie so schnell wie möglich die Leertaste. Drücken Sie die Leertaste immer, wenn Sie ein Bild von Cranidos oder das Wort CRANIDOS sehen. 

Drücken Sie die Leertaste, um die Aufgabe zu starten.",target1,stimuli/t1.jpg,77,46,stimuli/filler19.jpg,filler,False,None,,,,,,,,,,,,,,0,0,0,0,,,,,0,1,1,0,0,45,45,45,,,,,,,,,,,,,,,,,,,,,,,,,,,,,,,,,,,,,,,,,,,,,,,,,,,,,CS1_USneg,None,1,,,,,,,,,,,,,,,,,,21,f,77,n,2019_Nov_27_1317,ec_RRR,3.0.4,59.99513352015485,
Unkelbach and Hogden,Das Zielwesen für diese Aufgabe ist Cranidos:,"Also sobald Cranidos (sein Name oder sein Bild) auf dem Bildschirm erscheint, drücken Sie so schnell wie möglich die Leertaste. Drücken Sie die Leertaste immer, wenn Sie ein Bild von Cranidos oder das Wort CRANIDOS sehen. 

Drücken Sie die Leertaste, um die Aufgabe zu starten.",target1,stimuli/t1.jpg,77,47,stimuli/filler27.jpg,filler,False,None,,,,,,,,,,,,,,0,0,0,0,,,,,0,1,1,0,0,46,46,46,,,,,,,,,,,,,,,,,,,,,,,,,,,,,,,,,,,,,,,,,,,,,,,,,,,,,CS1_USneg,None,1,,,,,,,,,,,,,,,,,,21,f,77,n,2019_Nov_27_1317,ec_RRR,3.0.4,59.99513352015485,
Unkelbach and Hogden,Das Zielwesen für diese Aufgabe ist Cranidos:,"Also sobald Cranidos (sein Name oder sein Bild) auf dem Bildschirm erscheint, drücken Sie so schnell wie möglich die Leertaste. Drücken Sie die Leertaste immer, wenn Sie ein Bild von Cranidos oder das Wort CRANIDOS sehen. 

Drücken Sie die Leertaste, um die Aufgabe zu starten.",target1,stimuli/t1.jpg,77,48,stimuli/filler48.jpg,filler,False,None,,,,,,,,,,,,,,0,0,0,0,,,,,0,1,1,0,0,47,47,47,,,,,,,,,,,,,,,,,,,,,,,,,,,,,,,,,,,,,,,,,,,,,,,,,,,,,CS1_USneg,None,1,,,,,,,,,,,,,,,,,,21,f,77,n,2019_Nov_27_1317,ec_RRR,3.0.4,59.99513352015485,
Unkelbach and Hogden,Das Zielwesen für diese Aufgabe ist Cranidos:,"Also sobald Cranidos (sein Name oder sein Bild) auf dem Bildschirm erscheint, drücken Sie so schnell wie möglich die Leertaste. Drücken Sie die Leertaste immer, wenn Sie ein Bild von Cranidos oder das Wort CRANIDOS sehen. 

Drücken Sie die Leertaste, um die Aufgabe zu starten.",target1,stimuli/t1.jpg,77,49,stimuli/filler12.jpg,filler,False,None,,,,,,,,,,,,,,0,0,0,0,,,,,0,1,1,0,0,48,48,48,,,,,,,,,,,,,,,,,,,,,,,,,,,,,,,,,,,,,,,,,,,,,,,,,,,,,CS1_USneg,None,1,,,,,,,,,,,,,,,,,,21,f,77,n,2019_Nov_27_1317,ec_RRR,3.0.4,59.99513352015485,
Unkelbach and Hogden,Das Zielwesen für diese Aufgabe ist Cranidos:,"Also sobald Cranidos (sein Name oder sein Bild) auf dem Bildschirm erscheint, drücken Sie so schnell wie möglich die Leertaste. Drücken Sie die Leertaste immer, wenn Sie ein Bild von Cranidos oder das Wort CRANIDOS sehen. 

Drücken Sie die Leertaste, um die Aufgabe zu starten.",target1,stimuli/t1.jpg,77,50,stimuli/blank.jpg,blank,False,None,,,,,,,,,,,,,,0,0,0,0,,,,,0,1,1,0,0,49,49,49,,,,,,,,,,,,,,,,,,,,,,,,,,,,,,,,,,,,,,,,,,,,,,,,,,,,,CS1_USneg,None,1,,,,,,,,,,,,,,,,,,21,f,77,n,2019_Nov_27_1317,ec_RRR,3.0.4,59.99513352015485,
Unkelbach and Hogden,Das Zielwesen für diese Aufgabe ist Cranidos:,"Also sobald Cranidos (sein Name oder sein Bild) auf dem Bildschirm erscheint, drücken Sie so schnell wie möglich die Leertaste. Drücken Sie die Leertaste immer, wenn Sie ein Bild von Cranidos oder das Wort CRANIDOS sehen. 

Drücken Sie die Leertaste, um die Aufgabe zu starten.",target1,stimuli/t1.jpg,77,51,stimuli/cs1_neg15.jpg,CSUS,False,None,,,,,,,,,,,,,,0,0,0,0,,,,,0,1,1,0,0,50,50,50,,,,,,,,,,,,,,,,,,,,,,,,,,,,,,,,,,,,,,,,,,,,,,,,,,,,,CS1_USneg,None,1,,,,,,,,,,,,,,,,,,21,f,77,n,2019_Nov_27_1317,ec_RRR,3.0.4,59.99513352015485,
Unkelbach and Hogden,Das Zielwesen für diese Aufgabe ist Cranidos:,"Also sobald Cranidos (sein Name oder sein Bild) auf dem Bildschirm erscheint, drücken Sie so schnell wie möglich die Leertaste. Drücken Sie die Leertaste immer, wenn Sie ein Bild von Cranidos oder das Wort CRANIDOS sehen. 

Drücken Sie die Leertaste, um die Aufgabe zu starten.",target1,stimuli/t1.jpg,77,52,stimuli/blank.jpg,blank,False,None,,,,,,,,,,,,,,0,0,0,0,,,,,0,1,1,0,0,51,51,51,,,,,,,,,,,,,,,,,,,,,,,,,,,,,,,,,,,,,,,,,,,,,,,,,,,,,CS1_USneg,None,1,,,,,,,,,,,,,,,,,,21,f,77,n,2019_Nov_27_1317,ec_RRR,3.0.4,59.99513352015485,
Unkelbach and Hogden,Das Zielwesen für diese Aufgabe ist Cranidos:,"Also sobald Cranidos (sein Name oder sein Bild) auf dem Bildschirm erscheint, drücken Sie so schnell wie möglich die Leertaste. Drücken Sie die Leertaste immer, wenn Sie ein Bild von Cranidos oder das Wort CRANIDOS sehen. 

Drücken Sie die Leertaste, um die Aufgabe zu starten.",target1,stimuli/t1.jpg,77,53,stimuli/filler5.jpg,filler,False,None,,,,,,,,,,,,,,0,0,0,0,,,,,0,1,1,0,0,52,52,52,,,,,,,,,,,,,,,,,,,,,,,,,,,,,,,,,,,,,,,,,,,,,,,,,,,,,CS1_USneg,None,1,,,,,,,,,,,,,,,,,,21,f,77,n,2019_Nov_27_1317,ec_RRR,3.0.4,59.99513352015485,
Unkelbach and Hogden,Das Zielwesen für diese Aufgabe ist Cranidos:,"Also sobald Cranidos (sein Name oder sein Bild) auf dem Bildschirm erscheint, drücken Sie so schnell wie möglich die Leertaste. Drücken Sie die Leertaste immer, wenn Sie ein Bild von Cranidos oder das Wort CRANIDOS sehen. 

Drücken Sie die Leertaste, um die Aufgabe zu starten.",target1,stimuli/t1.jpg,77,54,stimuli/filler52.jpg,filler,False,None,,,,,,,,,,,,,,0,0,0,0,,,,,0,1,1,0,0,53,53,53,,,,,,,,,,,,,,,,,,,,,,,,,,,,,,,,,,,,,,,,,,,,,,,,,,,,,CS1_USneg,None,1,,,,,,,,,,,,,,,,,,21,f,77,n,2019_Nov_27_1317,ec_RRR,3.0.4,59.99513352015485,
Unkelbach and Hogden,Das Zielwesen für diese Aufgabe ist Cranidos:,"Also sobald Cranidos (sein Name oder sein Bild) auf dem Bildschirm erscheint, drücken Sie so schnell wie möglich die Leertaste. Drücken Sie die Leertaste immer, wenn Sie ein Bild von Cranidos oder das Wort CRANIDOS sehen. 

Drücken Sie die Leertaste, um die Aufgabe zu starten.",target1,stimuli/t1.jpg,77,55,stimuli/filler47.jpg,filler,False,None,,,,,,,,,,,,,,0,0,0,0,,,,,0,1,1,0,0,54,54,54,,,,,,,,,,,,,,,,,,,,,,,,,,,,,,,,,,,,,,,,,,,,,,,,,,,,,CS1_USneg,None,1,,,,,,,,,,,,,,,,,,21,f,77,n,2019_Nov_27_1317,ec_RRR,3.0.4,59.99513352015485,
Unkelbach and Hogden,Das Zielwesen für diese Aufgabe ist Cranidos:,"Also sobald Cranidos (sein Name oder sein Bild) auf dem Bildschirm erscheint, drücken Sie so schnell wie möglich die Leertaste. Drücken Sie die Leertaste immer, wenn Sie ein Bild von Cranidos oder das Wort CRANIDOS sehen. 

Drücken Sie die Leertaste, um die Aufgabe zu starten.",target1,stimuli/t1.jpg,77,56,stimuli/filler43.jpg,filler,False,None,,,,,,,,,,,,,,0,0,0,0,,,,,0,1,1,0,0,55,55,55,,,,,,,,,,,,,,,,,,,,,,,,,,,,,,,,,,,,,,,,,,,,,,,,,,,,,CS1_USneg,None,1,,,,,,,,,,,,,,,,,,21,f,77,n,2019_Nov_27_1317,ec_RRR,3.0.4,59.99513352015485,
Unkelbach and Hogden,Das Zielwesen für diese Aufgabe ist Cranidos:,"Also sobald Cranidos (sein Name oder sein Bild) auf dem Bildschirm erscheint, drücken Sie so schnell wie möglich die Leertaste. Drücken Sie die Leertaste immer, wenn Sie ein Bild von Cranidos oder das Wort CRANIDOS sehen. 

Drücken Sie die Leertaste, um die Aufgabe zu starten.",target1,stimuli/t1.jpg,77,57,stimuli/filler23.jpg,filler,False,None,,,,,,,,,,,,,,0,0,0,0,,,,,0,1,1,0,0,56,56,56,,,,,,,,,,,,,,,,,,,,,,,,,,,,,,,,,,,,,,,,,,,,,,,,,,,,,CS1_USneg,None,1,,,,,,,,,,,,,,,,,,21,f,77,n,2019_Nov_27_1317,ec_RRR,3.0.4,59.99513352015485,
Unkelbach and Hogden,Das Zielwesen für diese Aufgabe ist Cranidos:,"Also sobald Cranidos (sein Name oder sein Bild) auf dem Bildschirm erscheint, drücken Sie so schnell wie möglich die Leertaste. Drücken Sie die Leertaste immer, wenn Sie ein Bild von Cranidos oder das Wort CRANIDOS sehen. 

Drücken Sie die Leertaste, um die Aufgabe zu starten.",target1,stimuli/t1.jpg,77,58,stimuli/target1_9.jpg,target,True,space,,,,,,,,,,,,,,0,0,0,0,,,,,0,1,1,0,0,57,57,57,,,,,,,,,,,,,,,,,,,,,,,,,,,,,,,,,,,,,,,,,,,,,,,,,,,,,CS1_USneg,space,1,0.8508475148646539,,,,,,,,,,,,,,,,,21,f,77,n,2019_Nov_27_1317,ec_RRR,3.0.4,59.99513352015485,
Unkelbach and Hogden,Das Zielwesen für diese Aufgabe ist Cranidos:,"Also sobald Cranidos (sein Name oder sein Bild) auf dem Bildschirm erscheint, drücken Sie so schnell wie möglich die Leertaste. Drücken Sie die Leertaste immer, wenn Sie ein Bild von Cranidos oder das Wort CRANIDOS sehen. 

Drücken Sie die Leertaste, um die Aufgabe zu starten.",target1,stimuli/t1.jpg,77,59,stimuli/filler32.jpg,filler,False,None,,,,,,,,,,,,,,0,0,0,0,,,,,0,1,1,0,0,58,58,58,,,,,,,,,,,,,,,,,,,,,,,,,,,,,,,,,,,,,,,,,,,,,,,,,,,,,CS1_USneg,None,1,,,,,,,,,,,,,,,,,,21,f,77,n,2019_Nov_27_1317,ec_RRR,3.0.4,59.99513352015485,
Unkelbach and Hogden,Das Zielwesen für diese Aufgabe ist Cranidos:,"Also sobald Cranidos (sein Name oder sein Bild) auf dem Bildschirm erscheint, drücken Sie so schnell wie möglich die Leertaste. Drücken Sie die Leertaste immer, wenn Sie ein Bild von Cranidos oder das Wort CRANIDOS sehen. 

Drücken Sie die Leertaste, um die Aufgabe zu starten.",target1,stimuli/t1.jpg,77,60,stimuli/blank.jpg,blank,False,None,,,,,,,,,,,,,,0,0,0,0,,,,,0,1,1,0,0,59,59,59,,,,,,,,,,,,,,,,,,,,,,,,,,,,,,,,,,,,,,,,,,,,,,,,,,,,,CS1_USneg,None,1,,,,,,,,,,,,,,,,,,21,f,77,n,2019_Nov_27_1317,ec_RRR,3.0.4,59.99513352015485,
Unkelbach and Hogden,Das Zielwesen für diese Aufgabe ist Cranidos:,"Also sobald Cranidos (sein Name oder sein Bild) auf dem Bildschirm erscheint, drücken Sie so schnell wie möglich die Leertaste. Drücken Sie die Leertaste immer, wenn Sie ein Bild von Cranidos oder das Wort CRANIDOS sehen. 

Drücken Sie die Leertaste, um die Aufgabe zu starten.",target1,stimuli/t1.jpg,77,61,stimuli/cs2_pos14.jpg,CSUS,False,None,,,,,,,,,,,,,,0,0,0,0,,,,,0,1,1,0,0,60,60,60,,,,,,,,,,,,,,,,,,,,,,,,,,,,,,,,,,,,,,,,,,,,,,,,,,,,,CS1_USneg,None,1,,,,,,,,,,,,,,,,,,21,f,77,n,2019_Nov_27_1317,ec_RRR,3.0.4,59.99513352015485,
Unkelbach and Hogden,Das Zielwesen für diese Aufgabe ist Cranidos:,"Also sobald Cranidos (sein Name oder sein Bild) auf dem Bildschirm erscheint, drücken Sie so schnell wie möglich die Leertaste. Drücken Sie die Leertaste immer, wenn Sie ein Bild von Cranidos oder das Wort CRANIDOS sehen. 

Drücken Sie die Leertaste, um die Aufgabe zu starten.",target1,stimuli/t1.jpg,77,62,stimuli/blank.jpg,blank,False,None,,,,,,,,,,,,,,0,0,0,0,,,,,0,1,1,0,0,61,61,61,,,,,,,,,,,,,,,,,,,,,,,,,,,,,,,,,,,,,,,,,,,,,,,,,,,,,CS1_USneg,None,1,,,,,,,,,,,,,,,,,,21,f,77,n,2019_Nov_27_1317,ec_RRR,3.0.4,59.99513352015485,
Unkelbach and Hogden,Das Zielwesen für diese Aufgabe ist Cranidos:,"Also sobald Cranidos (sein Name oder sein Bild) auf dem Bildschirm erscheint, drücken Sie so schnell wie möglich die Leertaste. Drücken Sie die Leertaste immer, wenn Sie ein Bild von Cranidos oder das Wort CRANIDOS sehen. 

Drücken Sie die Leertaste, um die Aufgabe zu starten.",target1,stimuli/t1.jpg,77,63,stimuli/filler29.jpg,filler,False,None,,,,,,,,,,,,,,0,0,0,0,,,,,0,1,1,0,0,62,62,62,,,,,,,,,,,,,,,,,,,,,,,,,,,,,,,,,,,,,,,,,,,,,,,,,,,,,CS1_USneg,None,1,,,,,,,,,,,,,,,,,,21,f,77,n,2019_Nov_27_1317,ec_RRR,3.0.4,59.99513352015485,
Unkelbach and Hogden,Das Zielwesen für diese Aufgabe ist Cranidos:,"Also sobald Cranidos (sein Name oder sein Bild) auf dem Bildschirm erscheint, drücken Sie so schnell wie möglich die Leertaste. Drücken Sie die Leertaste immer, wenn Sie ein Bild von Cranidos oder das Wort CRANIDOS sehen. 

Drücken Sie die Leertaste, um die Aufgabe zu starten.",target1,stimuli/t1.jpg,77,64,stimuli/filler21.jpg,filler,False,None,,,,,,,,,,,,,,0,0,0,0,,,,,0,1,1,0,0,63,63,63,,,,,,,,,,,,,,,,,,,,,,,,,,,,,,,,,,,,,,,,,,,,,,,,,,,,,CS1_USneg,None,1,,,,,,,,,,,,,,,,,,21,f,77,n,2019_Nov_27_1317,ec_RRR,3.0.4,59.99513352015485,
Unkelbach and Hogden,Das Zielwesen für diese Aufgabe ist Cranidos:,"Also sobald Cranidos (sein Name oder sein Bild) auf dem Bildschirm erscheint, drücken Sie so schnell wie möglich die Leertaste. Drücken Sie die Leertaste immer, wenn Sie ein Bild von Cranidos oder das Wort CRANIDOS sehen. 

Drücken Sie die Leertaste, um die Aufgabe zu starten.",target1,stimuli/t1.jpg,77,65,stimuli/filler10.jpg,filler,False,None,,,,,,,,,,,,,,0,0,0,0,,,,,0,1,1,0,0,64,64,64,,,,,,,,,,,,,,,,,,,,,,,,,,,,,,,,,,,,,,,,,,,,,,,,,,,,,CS1_USneg,None,1,,,,,,,,,,,,,,,,,,21,f,77,n,2019_Nov_27_1317,ec_RRR,3.0.4,59.99513352015485,
Unkelbach and Hogden,Das Zielwesen für diese Aufgabe ist Cranidos:,"Also sobald Cranidos (sein Name oder sein Bild) auf dem Bildschirm erscheint, drücken Sie so schnell wie möglich die Leertaste. Drücken Sie die Leertaste immer, wenn Sie ein Bild von Cranidos oder das Wort CRANIDOS sehen. 

Drücken Sie die Leertaste, um die Aufgabe zu starten.",target1,stimuli/t1.jpg,77,66,stimuli/filler20.jpg,filler,False,None,,,,,,,,,,,,,,0,0,0,0,,,,,0,1,1,0,0,65,65,65,,,,,,,,,,,,,,,,,,,,,,,,,,,,,,,,,,,,,,,,,,,,,,,,,,,,,CS1_USneg,None,1,,,,,,,,,,,,,,,,,,21,f,77,n,2019_Nov_27_1317,ec_RRR,3.0.4,59.99513352015485,
Unkelbach and Hogden,Das Zielwesen für diese Aufgabe ist Cranidos:,"Also sobald Cranidos (sein Name oder sein Bild) auf dem Bildschirm erscheint, drücken Sie so schnell wie möglich die Leertaste. Drücken Sie die Leertaste immer, wenn Sie ein Bild von Cranidos oder das Wort CRANIDOS sehen. 

Drücken Sie die Leertaste, um die Aufgabe zu starten.",target1,stimuli/t1.jpg,77,67,stimuli/filler36.jpg,filler,False,None,,,,,,,,,,,,,,0,0,0,0,,,,,0,1,1,0,0,66,66,66,,,,,,,,,,,,,,,,,,,,,,,,,,,,,,,,,,,,,,,,,,,,,,,,,,,,,CS1_USneg,None,1,,,,,,,,,,,,,,,,,,21,f,77,n,2019_Nov_27_1317,ec_RRR,3.0.4,59.99513352015485,
Unkelbach and Hogden,Das Zielwesen für diese Aufgabe ist Cranidos:,"Also sobald Cranidos (sein Name oder sein Bild) auf dem Bildschirm erscheint, drücken Sie so schnell wie möglich die Leertaste. Drücken Sie die Leertaste immer, wenn Sie ein Bild von Cranidos oder das Wort CRANIDOS sehen. 

Drücken Sie die Leertaste, um die Aufgabe zu starten.",target1,stimuli/t1.jpg,77,68,stimuli/filler11.jpg,filler,False,None,,,,,,,,,,,,,,0,0,0,0,,,,,0,1,1,0,0,67,67,67,,,,,,,,,,,,,,,,,,,,,,,,,,,,,,,,,,,,,,,,,,,,,,,,,,,,,CS1_USneg,None,1,,,,,,,,,,,,,,,,,,21,f,77,n,2019_Nov_27_1317,ec_RRR,3.0.4,59.99513352015485,
Unkelbach and Hogden,Das Zielwesen für diese Aufgabe ist Cranidos:,"Also sobald Cranidos (sein Name oder sein Bild) auf dem Bildschirm erscheint, drücken Sie so schnell wie möglich die Leertaste. Drücken Sie die Leertaste immer, wenn Sie ein Bild von Cranidos oder das Wort CRANIDOS sehen. 

Drücken Sie die Leertaste, um die Aufgabe zu starten.",target1,stimuli/t1.jpg,77,69,stimuli/filler6.jpg,filler,False,None,,,,,,,,,,,,,,0,0,0,0,,,,,0,1,1,0,0,68,68,68,,,,,,,,,,,,,,,,,,,,,,,,,,,,,,,,,,,,,,,,,,,,,,,,,,,,,CS1_USneg,None,1,,,,,,,,,,,,,,,,,,21,f,77,n,2019_Nov_27_1317,ec_RRR,3.0.4,59.99513352015485,
Unkelbach and Hogden,Das Zielwesen für diese Aufgabe ist Cranidos:,"Also sobald Cranidos (sein Name oder sein Bild) auf dem Bildschirm erscheint, drücken Sie so schnell wie möglich die Leertaste. Drücken Sie die Leertaste immer, wenn Sie ein Bild von Cranidos oder das Wort CRANIDOS sehen. 

Drücken Sie die Leertaste, um die Aufgabe zu starten.",target1,stimuli/t1.jpg,77,70,stimuli/blank.jpg,blank,False,None,,,,,,,,,,,,,,0,0,0,0,,,,,0,1,1,0,0,69,69,69,,,,,,,,,,,,,,,,,,,,,,,,,,,,,,,,,,,,,,,,,,,,,,,,,,,,,CS1_USneg,None,1,,,,,,,,,,,,,,,,,,21,f,77,n,2019_Nov_27_1317,ec_RRR,3.0.4,59.99513352015485,
Unkelbach and Hogden,Das Zielwesen für diese Aufgabe ist Cranidos:,"Also sobald Cranidos (sein Name oder sein Bild) auf dem Bildschirm erscheint, drücken Sie so schnell wie möglich die Leertaste. Drücken Sie die Leertaste immer, wenn Sie ein Bild von Cranidos oder das Wort CRANIDOS sehen. 

Drücken Sie die Leertaste, um die Aufgabe zu starten.",target1,stimuli/t1.jpg,77,71,stimuli/cs1_neg5.jpg,CSUS,False,None,,,,,,,,,,,,,,0,0,0,0,,,,,0,1,1,0,0,70,70,70,,,,,,,,,,,,,,,,,,,,,,,,,,,,,,,,,,,,,,,,,,,,,,,,,,,,,CS1_USneg,None,1,,,,,,,,,,,,,,,,,,21,f,77,n,2019_Nov_27_1317,ec_RRR,3.0.4,59.99513352015485,
Unkelbach and Hogden,Das Zielwesen für diese Aufgabe ist Cranidos:,"Also sobald Cranidos (sein Name oder sein Bild) auf dem Bildschirm erscheint, drücken Sie so schnell wie möglich die Leertaste. Drücken Sie die Leertaste immer, wenn Sie ein Bild von Cranidos oder das Wort CRANIDOS sehen. 

Drücken Sie die Leertaste, um die Aufgabe zu starten.",target1,stimuli/t1.jpg,77,72,stimuli/blank.jpg,blank,False,None,,,,,,,,,,,,,,0,0,0,0,,,,,0,1,1,0,0,71,71,71,,,,,,,,,,,,,,,,,,,,,,,,,,,,,,,,,,,,,,,,,,,,,,,,,,,,,CS1_USneg,None,1,,,,,,,,,,,,,,,,,,21,f,77,n,2019_Nov_27_1317,ec_RRR,3.0.4,59.99513352015485,
Unkelbach and Hogden,Das Zielwesen für diese Aufgabe ist Cranidos:,"Also sobald Cranidos (sein Name oder sein Bild) auf dem Bildschirm erscheint, drücken Sie so schnell wie möglich die Leertaste. Drücken Sie die Leertaste immer, wenn Sie ein Bild von Cranidos oder das Wort CRANIDOS sehen. 

Drücken Sie die Leertaste, um die Aufgabe zu starten.",target1,stimuli/t1.jpg,77,73,stimuli/filler8.jpg,filler,False,None,,,,,,,,,,,,,,0,0,0,0,,,,,0,1,1,0,0,72,72,72,,,,,,,,,,,,,,,,,,,,,,,,,,,,,,,,,,,,,,,,,,,,,,,,,,,,,CS1_USneg,None,1,,,,,,,,,,,,,,,,,,21,f,77,n,2019_Nov_27_1317,ec_RRR,3.0.4,59.99513352015485,
Unkelbach and Hogden,Das Zielwesen für diese Aufgabe ist Cranidos:,"Also sobald Cranidos (sein Name oder sein Bild) auf dem Bildschirm erscheint, drücken Sie so schnell wie möglich die Leertaste. Drücken Sie die Leertaste immer, wenn Sie ein Bild von Cranidos oder das Wort CRANIDOS sehen. 

Drücken Sie die Leertaste, um die Aufgabe zu starten.",target1,stimuli/t1.jpg,77,74,stimuli/filler45.jpg,filler,False,None,,,,,,,,,,,,,,0,0,0,0,,,,,0,1,1,0,0,73,73,73,,,,,,,,,,,,,,,,,,,,,,,,,,,,,,,,,,,,,,,,,,,,,,,,,,,,,CS1_USneg,None,1,,,,,,,,,,,,,,,,,,21,f,77,n,2019_Nov_27_1317,ec_RRR,3.0.4,59.99513352015485,
