data_collection_site,instructions_text_top,instructions_text_bottom,block_id,example_image,participant,trial_number,stimulus,trial_type,target_trial,surveillance_correct_response,filler_1_items,filler_2_items,middle_text,left_text,right_text,evaluation_stimulus,left_stimulus,right_stimulus,evaluation_response_indicating_CS1_preferred,awareness_1_question_text,awareness_2a_question_text,awareness_2b_question_text,awareness_2_question_text,record_data_collection_site_variable.thisRepN,record_data_collection_site_variable.thisTrialN,record_data_collection_site_variable.thisN,record_data_collection_site_variable.thisIndex,surveillance_instructions_loop.thisRepN,surveillance_instructions_loop.thisTrialN,surveillance_instructions_loop.thisN,surveillance_instructions_loop.thisIndex,surveillance_blocks_loop.thisRepN,surveillance_blocks_loop.thisTrialN,surveillance_blocks_loop.thisN,surveillance_blocks_loop.thisIndex,surveillance_trials_loop.thisRepN,surveillance_trials_loop.thisTrialN,surveillance_trials_loop.thisN,surveillance_trials_loop.thisIndex,filler_1_instructions_loop.thisRepN,filler_1_instructions_loop.thisTrialN,filler_1_instructions_loop.thisN,filler_1_instructions_loop.thisIndex,filler_1_loop.thisRepN,filler_1_loop.thisTrialN,filler_1_loop.thisN,filler_1_loop.thisIndex,filler_2_instructions_loop.thisRepN,filler_2_instructions_loop.thisTrialN,filler_2_instructions_loop.thisN,filler_2_instructions_loop.thisIndex,filler_2_loop.thisRepN,filler_2_loop.thisTrialN,filler_2_loop.thisN,filler_2_loop.thisIndex,evaluation_instructions_loop.thisRepN,evaluation_instructions_loop.thisTrialN,evaluation_instructions_loop.thisN,evaluation_instructions_loop.thisIndex,evaluation_loop.thisRepN,evaluation_loop.thisTrialN,evaluation_loop.thisN,evaluation_loop.thisIndex,evaluation_trials.thisRepN,evaluation_trials.thisTrialN,evaluation_trials.thisN,evaluation_trials.thisIndex,awareness_instructions_loop.thisRepN,awareness_instructions_loop.thisTrialN,awareness_instructions_loop.thisN,awareness_instructions_loop.thisIndex,awareness_1_trials_loop.thisRepN,awareness_1_trials_loop.thisTrialN,awareness_1_trials_loop.thisN,awareness_1_trials_loop.thisIndex,awareness_2a_trials_loop.thisRepN,awareness_2a_trials_loop.thisTrialN,awareness_2a_trials_loop.thisN,awareness_2a_trials_loop.thisIndex,awareness_2b_trials_loop.thisRepN,awareness_2b_trials_loop.thisTrialN,awareness_2b_trials_loop.thisN,awareness_2b_trials_loop.thisIndex,awareness_2c_trials_loop.thisRepN,awareness_2c_trials_loop.thisTrialN,awareness_2c_trials_loop.thisN,awareness_2c_trials_loop.thisIndex,end_message_loop.thisRepN,end_message_loop.thisTrialN,end_message_loop.thisN,end_message_loop.thisIndex,condition,surveillance_response.keys,surveillance_response.corr,surveillance_response.rt,filler_1_rating.response,filler_1_rating.rt,filler_2_rating.response,filler_2_rating.rt,evaluation_response.keys,evaluation_response.corr,evaluation_response.rt,inputText,awareness_1_response.keys,awareness_1_response.rt,awareness_type_2a_rating.response,awareness_type_2a_rating.rt,awareness_type_2b_rating.response,awareness_type_2b_rating.rt,awareness_type_2c_rating.response,awareness_type_2c_rating.rt,age,gender,participant,UseMonkey,date,expName,psychopyVersion,frameRate
Kurdi and Ferguson,"For this task, the target creature is Shelmet:","So whenever Shelmet (his name or his picture) appears on the screen, hit the spacebar as quickly as possible. Hit the spacebar whenever you see an image of Shelmet or the word SHELMET. 

Press the spacebar to start the task",target2,stimuli/t2.jpg,38,1,stimuli/filler49.jpg,filler,FALSE,None,,,,,,,,,,,,,,0,0,0,0,,,,,0,0,0,1,0,0,0,0,,,,,,,,,,,,,,,,,,,,,,,,,,,,,,,,,,,,,,,,,,,,,,,,,,,,,CS1_USneg,None,1,,,,,,,,,,,,,,,,,,20,f ,38,n,2019_Oct_08_1506,ec_RRR,3.0.4,60.007
Kurdi and Ferguson,"For this task, the target creature is Shelmet:","So whenever Shelmet (his name or his picture) appears on the screen, hit the spacebar as quickly as possible. Hit the spacebar whenever you see an image of Shelmet or the word SHELMET. 

Press the spacebar to start the task",target2,stimuli/t2.jpg,38,2,stimuli/target2_9.jpg,target,TRUE,space,,,,,,,,,,,,,,0,0,0,0,,,,,0,0,0,1,0,1,1,1,,,,,,,,,,,,,,,,,,,,,,,,,,,,,,,,,,,,,,,,,,,,,,,,,,,,,CS1_USneg,space,1,1.069143442,,,,,,,,,,,,,,,,,20,f ,38,n,2019_Oct_08_1506,ec_RRR,3.0.4,60.007
Kurdi and Ferguson,"For this task, the target creature is Shelmet:","So whenever Shelmet (his name or his picture) appears on the screen, hit the spacebar as quickly as possible. Hit the spacebar whenever you see an image of Shelmet or the word SHELMET. 

Press the spacebar to start the task",target2,stimuli/t2.jpg,38,3,stimuli/filler29.jpg,filler,FALSE,None,,,,,,,,,,,,,,0,0,0,0,,,,,0,0,0,1,0,2,2,2,,,,,,,,,,,,,,,,,,,,,,,,,,,,,,,,,,,,,,,,,,,,,,,,,,,,,CS1_USneg,None,1,,,,,,,,,,,,,,,,,,20,f ,38,n,2019_Oct_08_1506,ec_RRR,3.0.4,60.007
Kurdi and Ferguson,"For this task, the target creature is Shelmet:","So whenever Shelmet (his name or his picture) appears on the screen, hit the spacebar as quickly as possible. Hit the spacebar whenever you see an image of Shelmet or the word SHELMET. 

Press the spacebar to start the task",target2,stimuli/t2.jpg,38,4,stimuli/filler4.jpg,filler,FALSE,None,,,,,,,,,,,,,,0,0,0,0,,,,,0,0,0,1,0,3,3,3,,,,,,,,,,,,,,,,,,,,,,,,,,,,,,,,,,,,,,,,,,,,,,,,,,,,,CS1_USneg,None,1,,,,,,,,,,,,,,,,,,20,f ,38,n,2019_Oct_08_1506,ec_RRR,3.0.4,60.007
Kurdi and Ferguson,"For this task, the target creature is Shelmet:","So whenever Shelmet (his name or his picture) appears on the screen, hit the spacebar as quickly as possible. Hit the spacebar whenever you see an image of Shelmet or the word SHELMET. 

Press the spacebar to start the task",target2,stimuli/t2.jpg,38,5,stimuli/filler25.jpg,filler,FALSE,None,,,,,,,,,,,,,,0,0,0,0,,,,,0,0,0,1,0,4,4,4,,,,,,,,,,,,,,,,,,,,,,,,,,,,,,,,,,,,,,,,,,,,,,,,,,,,,CS1_USneg,None,1,,,,,,,,,,,,,,,,,,20,f ,38,n,2019_Oct_08_1506,ec_RRR,3.0.4,60.007
Kurdi and Ferguson,"For this task, the target creature is Shelmet:","So whenever Shelmet (his name or his picture) appears on the screen, hit the spacebar as quickly as possible. Hit the spacebar whenever you see an image of Shelmet or the word SHELMET. 

Press the spacebar to start the task",target2,stimuli/t2.jpg,38,6,stimuli/filler31.jpg,filler,FALSE,None,,,,,,,,,,,,,,0,0,0,0,,,,,0,0,0,1,0,5,5,5,,,,,,,,,,,,,,,,,,,,,,,,,,,,,,,,,,,,,,,,,,,,,,,,,,,,,CS1_USneg,None,1,,,,,,,,,,,,,,,,,,20,f ,38,n,2019_Oct_08_1506,ec_RRR,3.0.4,60.007
Kurdi and Ferguson,"For this task, the target creature is Shelmet:","So whenever Shelmet (his name or his picture) appears on the screen, hit the spacebar as quickly as possible. Hit the spacebar whenever you see an image of Shelmet or the word SHELMET. 

Press the spacebar to start the task",target2,stimuli/t2.jpg,38,7,stimuli/filler20.jpg,filler,FALSE,None,,,,,,,,,,,,,,0,0,0,0,,,,,0,0,0,1,0,6,6,6,,,,,,,,,,,,,,,,,,,,,,,,,,,,,,,,,,,,,,,,,,,,,,,,,,,,,CS1_USneg,None,1,,,,,,,,,,,,,,,,,,20,f ,38,n,2019_Oct_08_1506,ec_RRR,3.0.4,60.007
Kurdi and Ferguson,"For this task, the target creature is Shelmet:","So whenever Shelmet (his name or his picture) appears on the screen, hit the spacebar as quickly as possible. Hit the spacebar whenever you see an image of Shelmet or the word SHELMET. 

Press the spacebar to start the task",target2,stimuli/t2.jpg,38,8,stimuli/filler13.jpg,filler,FALSE,None,,,,,,,,,,,,,,0,0,0,0,,,,,0,0,0,1,0,7,7,7,,,,,,,,,,,,,,,,,,,,,,,,,,,,,,,,,,,,,,,,,,,,,,,,,,,,,CS1_USneg,None,1,,,,,,,,,,,,,,,,,,20,f ,38,n,2019_Oct_08_1506,ec_RRR,3.0.4,60.007
Kurdi and Ferguson,"For this task, the target creature is Shelmet:","So whenever Shelmet (his name or his picture) appears on the screen, hit the spacebar as quickly as possible. Hit the spacebar whenever you see an image of Shelmet or the word SHELMET. 

Press the spacebar to start the task",target2,stimuli/t2.jpg,38,9,stimuli/target2_4.jpg,target,TRUE,space,,,,,,,,,,,,,,0,0,0,0,,,,,0,0,0,1,0,8,8,8,,,,,,,,,,,,,,,,,,,,,,,,,,,,,,,,,,,,,,,,,,,,,,,,,,,,,CS1_USneg,space,1,0.700517672,,,,,,,,,,,,,,,,,20,f ,38,n,2019_Oct_08_1506,ec_RRR,3.0.4,60.007
Kurdi and Ferguson,"For this task, the target creature is Shelmet:","So whenever Shelmet (his name or his picture) appears on the screen, hit the spacebar as quickly as possible. Hit the spacebar whenever you see an image of Shelmet or the word SHELMET. 

Press the spacebar to start the task",target2,stimuli/t2.jpg,38,10,stimuli/blank.jpg,blank,FALSE,None,,,,,,,,,,,,,,0,0,0,0,,,,,0,0,0,1,0,9,9,9,,,,,,,,,,,,,,,,,,,,,,,,,,,,,,,,,,,,,,,,,,,,,,,,,,,,,CS1_USneg,None,1,,,,,,,,,,,,,,,,,,20,f ,38,n,2019_Oct_08_1506,ec_RRR,3.0.4,60.007
Kurdi and Ferguson,"For this task, the target creature is Shelmet:","So whenever Shelmet (his name or his picture) appears on the screen, hit the spacebar as quickly as possible. Hit the spacebar whenever you see an image of Shelmet or the word SHELMET. 

Press the spacebar to start the task",target2,stimuli/t2.jpg,38,11,stimuli/cs1_neg6.jpg,CSUS,FALSE,None,,,,,,,,,,,,,,0,0,0,0,,,,,0,0,0,1,0,10,10,10,,,,,,,,,,,,,,,,,,,,,,,,,,,,,,,,,,,,,,,,,,,,,,,,,,,,,CS1_USneg,None,1,,,,,,,,,,,,,,,,,,20,f ,38,n,2019_Oct_08_1506,ec_RRR,3.0.4,60.007
Kurdi and Ferguson,"For this task, the target creature is Shelmet:","So whenever Shelmet (his name or his picture) appears on the screen, hit the spacebar as quickly as possible. Hit the spacebar whenever you see an image of Shelmet or the word SHELMET. 

Press the spacebar to start the task",target2,stimuli/t2.jpg,38,12,stimuli/blank.jpg,blank,FALSE,None,,,,,,,,,,,,,,0,0,0,0,,,,,0,0,0,1,0,11,11,11,,,,,,,,,,,,,,,,,,,,,,,,,,,,,,,,,,,,,,,,,,,,,,,,,,,,,CS1_USneg,None,1,,,,,,,,,,,,,,,,,,20,f ,38,n,2019_Oct_08_1506,ec_RRR,3.0.4,60.007
Kurdi and Ferguson,"For this task, the target creature is Shelmet:","So whenever Shelmet (his name or his picture) appears on the screen, hit the spacebar as quickly as possible. Hit the spacebar whenever you see an image of Shelmet or the word SHELMET. 

Press the spacebar to start the task",target2,stimuli/t2.jpg,38,13,stimuli/filler12.jpg,filler,FALSE,None,,,,,,,,,,,,,,0,0,0,0,,,,,0,0,0,1,0,12,12,12,,,,,,,,,,,,,,,,,,,,,,,,,,,,,,,,,,,,,,,,,,,,,,,,,,,,,CS1_USneg,None,1,,,,,,,,,,,,,,,,,,20,f ,38,n,2019_Oct_08_1506,ec_RRR,3.0.4,60.007
Kurdi and Ferguson,"For this task, the target creature is Shelmet:","So whenever Shelmet (his name or his picture) appears on the screen, hit the spacebar as quickly as possible. Hit the spacebar whenever you see an image of Shelmet or the word SHELMET. 

Press the spacebar to start the task",target2,stimuli/t2.jpg,38,14,stimuli/filler27.jpg,filler,FALSE,None,,,,,,,,,,,,,,0,0,0,0,,,,,0,0,0,1,0,13,13,13,,,,,,,,,,,,,,,,,,,,,,,,,,,,,,,,,,,,,,,,,,,,,,,,,,,,,CS1_USneg,None,1,,,,,,,,,,,,,,,,,,20,f ,38,n,2019_Oct_08_1506,ec_RRR,3.0.4,60.007
Kurdi and Ferguson,"For this task, the target creature is Shelmet:","So whenever Shelmet (his name or his picture) appears on the screen, hit the spacebar as quickly as possible. Hit the spacebar whenever you see an image of Shelmet or the word SHELMET. 

Press the spacebar to start the task",target2,stimuli/t2.jpg,38,15,stimuli/filler36.jpg,filler,FALSE,None,,,,,,,,,,,,,,0,0,0,0,,,,,0,0,0,1,0,14,14,14,,,,,,,,,,,,,,,,,,,,,,,,,,,,,,,,,,,,,,,,,,,,,,,,,,,,,CS1_USneg,None,1,,,,,,,,,,,,,,,,,,20,f ,38,n,2019_Oct_08_1506,ec_RRR,3.0.4,60.007
Kurdi and Ferguson,"For this task, the target creature is Shelmet:","So whenever Shelmet (his name or his picture) appears on the screen, hit the spacebar as quickly as possible. Hit the spacebar whenever you see an image of Shelmet or the word SHELMET. 

Press the spacebar to start the task",target2,stimuli/t2.jpg,38,16,stimuli/target2_8.jpg,target,TRUE,space,,,,,,,,,,,,,,0,0,0,0,,,,,0,0,0,1,0,15,15,15,,,,,,,,,,,,,,,,,,,,,,,,,,,,,,,,,,,,,,,,,,,,,,,,,,,,,CS1_USneg,space,1,0.599991246,,,,,,,,,,,,,,,,,20,f ,38,n,2019_Oct_08_1506,ec_RRR,3.0.4,60.007
Kurdi and Ferguson,"For this task, the target creature is Shelmet:","So whenever Shelmet (his name or his picture) appears on the screen, hit the spacebar as quickly as possible. Hit the spacebar whenever you see an image of Shelmet or the word SHELMET. 

Press the spacebar to start the task",target2,stimuli/t2.jpg,38,17,stimuli/filler52.jpg,filler,FALSE,None,,,,,,,,,,,,,,0,0,0,0,,,,,0,0,0,1,0,16,16,16,,,,,,,,,,,,,,,,,,,,,,,,,,,,,,,,,,,,,,,,,,,,,,,,,,,,,CS1_USneg,None,1,,,,,,,,,,,,,,,,,,20,f ,38,n,2019_Oct_08_1506,ec_RRR,3.0.4,60.007
Kurdi and Ferguson,"For this task, the target creature is Shelmet:","So whenever Shelmet (his name or his picture) appears on the screen, hit the spacebar as quickly as possible. Hit the spacebar whenever you see an image of Shelmet or the word SHELMET. 

Press the spacebar to start the task",target2,stimuli/t2.jpg,38,18,stimuli/filler42.jpg,filler,FALSE,None,,,,,,,,,,,,,,0,0,0,0,,,,,0,0,0,1,0,17,17,17,,,,,,,,,,,,,,,,,,,,,,,,,,,,,,,,,,,,,,,,,,,,,,,,,,,,,CS1_USneg,None,1,,,,,,,,,,,,,,,,,,20,f ,38,n,2019_Oct_08_1506,ec_RRR,3.0.4,60.007
Kurdi and Ferguson,"For this task, the target creature is Shelmet:","So whenever Shelmet (his name or his picture) appears on the screen, hit the spacebar as quickly as possible. Hit the spacebar whenever you see an image of Shelmet or the word SHELMET. 

Press the spacebar to start the task",target2,stimuli/t2.jpg,38,19,stimuli/filler23.jpg,filler,FALSE,None,,,,,,,,,,,,,,0,0,0,0,,,,,0,0,0,1,0,18,18,18,,,,,,,,,,,,,,,,,,,,,,,,,,,,,,,,,,,,,,,,,,,,,,,,,,,,,CS1_USneg,None,1,,,,,,,,,,,,,,,,,,20,f ,38,n,2019_Oct_08_1506,ec_RRR,3.0.4,60.007
Kurdi and Ferguson,"For this task, the target creature is Shelmet:","So whenever Shelmet (his name or his picture) appears on the screen, hit the spacebar as quickly as possible. Hit the spacebar whenever you see an image of Shelmet or the word SHELMET. 

Press the spacebar to start the task",target2,stimuli/t2.jpg,38,20,stimuli/blank.jpg,blank,FALSE,None,,,,,,,,,,,,,,0,0,0,0,,,,,0,0,0,1,0,19,19,19,,,,,,,,,,,,,,,,,,,,,,,,,,,,,,,,,,,,,,,,,,,,,,,,,,,,,CS1_USneg,None,1,,,,,,,,,,,,,,,,,,20,f ,38,n,2019_Oct_08_1506,ec_RRR,3.0.4,60.007
Kurdi and Ferguson,"For this task, the target creature is Shelmet:","So whenever Shelmet (his name or his picture) appears on the screen, hit the spacebar as quickly as possible. Hit the spacebar whenever you see an image of Shelmet or the word SHELMET. 

Press the spacebar to start the task",target2,stimuli/t2.jpg,38,21,stimuli/cs2_pos17.jpg,CSUS,FALSE,None,,,,,,,,,,,,,,0,0,0,0,,,,,0,0,0,1,0,20,20,20,,,,,,,,,,,,,,,,,,,,,,,,,,,,,,,,,,,,,,,,,,,,,,,,,,,,,CS1_USneg,None,1,,,,,,,,,,,,,,,,,,20,f ,38,n,2019_Oct_08_1506,ec_RRR,3.0.4,60.007
Kurdi and Ferguson,"For this task, the target creature is Shelmet:","So whenever Shelmet (his name or his picture) appears on the screen, hit the spacebar as quickly as possible. Hit the spacebar whenever you see an image of Shelmet or the word SHELMET. 

Press the spacebar to start the task",target2,stimuli/t2.jpg,38,22,stimuli/blank.jpg,blank,FALSE,None,,,,,,,,,,,,,,0,0,0,0,,,,,0,0,0,1,0,21,21,21,,,,,,,,,,,,,,,,,,,,,,,,,,,,,,,,,,,,,,,,,,,,,,,,,,,,,CS1_USneg,None,1,,,,,,,,,,,,,,,,,,20,f ,38,n,2019_Oct_08_1506,ec_RRR,3.0.4,60.007
Kurdi and Ferguson,"For this task, the target creature is Shelmet:","So whenever Shelmet (his name or his picture) appears on the screen, hit the spacebar as quickly as possible. Hit the spacebar whenever you see an image of Shelmet or the word SHELMET. 

Press the spacebar to start the task",target2,stimuli/t2.jpg,38,23,stimuli/filler37.jpg,filler,FALSE,None,,,,,,,,,,,,,,0,0,0,0,,,,,0,0,0,1,0,22,22,22,,,,,,,,,,,,,,,,,,,,,,,,,,,,,,,,,,,,,,,,,,,,,,,,,,,,,CS1_USneg,None,1,,,,,,,,,,,,,,,,,,20,f ,38,n,2019_Oct_08_1506,ec_RRR,3.0.4,60.007
Kurdi and Ferguson,"For this task, the target creature is Shelmet:","So whenever Shelmet (his name or his picture) appears on the screen, hit the spacebar as quickly as possible. Hit the spacebar whenever you see an image of Shelmet or the word SHELMET. 

Press the spacebar to start the task",target2,stimuli/t2.jpg,38,24,stimuli/filler34.jpg,filler,FALSE,None,,,,,,,,,,,,,,0,0,0,0,,,,,0,0,0,1,0,23,23,23,,,,,,,,,,,,,,,,,,,,,,,,,,,,,,,,,,,,,,,,,,,,,,,,,,,,,CS1_USneg,None,1,,,,,,,,,,,,,,,,,,20,f ,38,n,2019_Oct_08_1506,ec_RRR,3.0.4,60.007
Kurdi and Ferguson,"For this task, the target creature is Shelmet:","So whenever Shelmet (his name or his picture) appears on the screen, hit the spacebar as quickly as possible. Hit the spacebar whenever you see an image of Shelmet or the word SHELMET. 

Press the spacebar to start the task",target2,stimuli/t2.jpg,38,25,stimuli/target2_10.jpg,target,TRUE,space,,,,,,,,,,,,,,0,0,0,0,,,,,0,0,0,1,0,24,24,24,,,,,,,,,,,,,,,,,,,,,,,,,,,,,,,,,,,,,,,,,,,,,,,,,,,,,CS1_USneg,space,1,0.650718854,,,,,,,,,,,,,,,,,20,f ,38,n,2019_Oct_08_1506,ec_RRR,3.0.4,60.007
Kurdi and Ferguson,"For this task, the target creature is Shelmet:","So whenever Shelmet (his name or his picture) appears on the screen, hit the spacebar as quickly as possible. Hit the spacebar whenever you see an image of Shelmet or the word SHELMET. 

Press the spacebar to start the task",target2,stimuli/t2.jpg,38,26,stimuli/filler18.jpg,filler,FALSE,None,,,,,,,,,,,,,,0,0,0,0,,,,,0,0,0,1,0,25,25,25,,,,,,,,,,,,,,,,,,,,,,,,,,,,,,,,,,,,,,,,,,,,,,,,,,,,,CS1_USneg,None,1,,,,,,,,,,,,,,,,,,20,f ,38,n,2019_Oct_08_1506,ec_RRR,3.0.4,60.007
Kurdi and Ferguson,"For this task, the target creature is Shelmet:","So whenever Shelmet (his name or his picture) appears on the screen, hit the spacebar as quickly as possible. Hit the spacebar whenever you see an image of Shelmet or the word SHELMET. 

Press the spacebar to start the task",target2,stimuli/t2.jpg,38,27,stimuli/filler33.jpg,filler,FALSE,None,,,,,,,,,,,,,,0,0,0,0,,,,,0,0,0,1,0,26,26,26,,,,,,,,,,,,,,,,,,,,,,,,,,,,,,,,,,,,,,,,,,,,,,,,,,,,,CS1_USneg,None,1,,,,,,,,,,,,,,,,,,20,f ,38,n,2019_Oct_08_1506,ec_RRR,3.0.4,60.007
Kurdi and Ferguson,"For this task, the target creature is Shelmet:","So whenever Shelmet (his name or his picture) appears on the screen, hit the spacebar as quickly as possible. Hit the spacebar whenever you see an image of Shelmet or the word SHELMET. 

Press the spacebar to start the task",target2,stimuli/t2.jpg,38,28,stimuli/filler11.jpg,filler,FALSE,None,,,,,,,,,,,,,,0,0,0,0,,,,,0,0,0,1,0,27,27,27,,,,,,,,,,,,,,,,,,,,,,,,,,,,,,,,,,,,,,,,,,,,,,,,,,,,,CS1_USneg,None,1,,,,,,,,,,,,,,,,,,20,f ,38,n,2019_Oct_08_1506,ec_RRR,3.0.4,60.007
Kurdi and Ferguson,"For this task, the target creature is Shelmet:","So whenever Shelmet (his name or his picture) appears on the screen, hit the spacebar as quickly as possible. Hit the spacebar whenever you see an image of Shelmet or the word SHELMET. 

Press the spacebar to start the task",target2,stimuli/t2.jpg,38,29,stimuli/filler39.jpg,filler,FALSE,None,,,,,,,,,,,,,,0,0,0,0,,,,,0,0,0,1,0,28,28,28,,,,,,,,,,,,,,,,,,,,,,,,,,,,,,,,,,,,,,,,,,,,,,,,,,,,,CS1_USneg,None,1,,,,,,,,,,,,,,,,,,20,f ,38,n,2019_Oct_08_1506,ec_RRR,3.0.4,60.007
Kurdi and Ferguson,"For this task, the target creature is Shelmet:","So whenever Shelmet (his name or his picture) appears on the screen, hit the spacebar as quickly as possible. Hit the spacebar whenever you see an image of Shelmet or the word SHELMET. 

Press the spacebar to start the task",target2,stimuli/t2.jpg,38,30,stimuli/blank.jpg,blank,FALSE,None,,,,,,,,,,,,,,0,0,0,0,,,,,0,0,0,1,0,29,29,29,,,,,,,,,,,,,,,,,,,,,,,,,,,,,,,,,,,,,,,,,,,,,,,,,,,,,CS1_USneg,None,1,,,,,,,,,,,,,,,,,,20,f ,38,n,2019_Oct_08_1506,ec_RRR,3.0.4,60.007
Kurdi and Ferguson,"For this task, the target creature is Shelmet:","So whenever Shelmet (his name or his picture) appears on the screen, hit the spacebar as quickly as possible. Hit the spacebar whenever you see an image of Shelmet or the word SHELMET. 

Press the spacebar to start the task",target2,stimuli/t2.jpg,38,31,stimuli/cs1_neg17.jpg,CSUS,FALSE,None,,,,,,,,,,,,,,0,0,0,0,,,,,0,0,0,1,0,30,30,30,,,,,,,,,,,,,,,,,,,,,,,,,,,,,,,,,,,,,,,,,,,,,,,,,,,,,CS1_USneg,None,1,,,,,,,,,,,,,,,,,,20,f ,38,n,2019_Oct_08_1506,ec_RRR,3.0.4,60.007
Kurdi and Ferguson,"For this task, the target creature is Shelmet:","So whenever Shelmet (his name or his picture) appears on the screen, hit the spacebar as quickly as possible. Hit the spacebar whenever you see an image of Shelmet or the word SHELMET. 

Press the spacebar to start the task",target2,stimuli/t2.jpg,38,32,stimuli/blank.jpg,blank,FALSE,None,,,,,,,,,,,,,,0,0,0,0,,,,,0,0,0,1,0,31,31,31,,,,,,,,,,,,,,,,,,,,,,,,,,,,,,,,,,,,,,,,,,,,,,,,,,,,,CS1_USneg,None,1,,,,,,,,,,,,,,,,,,20,f ,38,n,2019_Oct_08_1506,ec_RRR,3.0.4,60.007
Kurdi and Ferguson,"For this task, the target creature is Shelmet:","So whenever Shelmet (his name or his picture) appears on the screen, hit the spacebar as quickly as possible. Hit the spacebar whenever you see an image of Shelmet or the word SHELMET. 

Press the spacebar to start the task",target2,stimuli/t2.jpg,38,33,stimuli/filler19.jpg,filler,FALSE,None,,,,,,,,,,,,,,0,0,0,0,,,,,0,0,0,1,0,32,32,32,,,,,,,,,,,,,,,,,,,,,,,,,,,,,,,,,,,,,,,,,,,,,,,,,,,,,CS1_USneg,None,1,,,,,,,,,,,,,,,,,,20,f ,38,n,2019_Oct_08_1506,ec_RRR,3.0.4,60.007
Kurdi and Ferguson,"For this task, the target creature is Shelmet:","So whenever Shelmet (his name or his picture) appears on the screen, hit the spacebar as quickly as possible. Hit the spacebar whenever you see an image of Shelmet or the word SHELMET. 

Press the spacebar to start the task",target2,stimuli/t2.jpg,38,34,stimuli/filler30.jpg,filler,FALSE,None,,,,,,,,,,,,,,0,0,0,0,,,,,0,0,0,1,0,33,33,33,,,,,,,,,,,,,,,,,,,,,,,,,,,,,,,,,,,,,,,,,,,,,,,,,,,,,CS1_USneg,None,1,,,,,,,,,,,,,,,,,,20,f ,38,n,2019_Oct_08_1506,ec_RRR,3.0.4,60.007
Kurdi and Ferguson,"For this task, the target creature is Shelmet:","So whenever Shelmet (his name or his picture) appears on the screen, hit the spacebar as quickly as possible. Hit the spacebar whenever you see an image of Shelmet or the word SHELMET. 

Press the spacebar to start the task",target2,stimuli/t2.jpg,38,35,stimuli/filler8.jpg,filler,FALSE,None,,,,,,,,,,,,,,0,0,0,0,,,,,0,0,0,1,0,34,34,34,,,,,,,,,,,,,,,,,,,,,,,,,,,,,,,,,,,,,,,,,,,,,,,,,,,,,CS1_USneg,None,1,,,,,,,,,,,,,,,,,,20,f ,38,n,2019_Oct_08_1506,ec_RRR,3.0.4,60.007
Kurdi and Ferguson,"For this task, the target creature is Shelmet:","So whenever Shelmet (his name or his picture) appears on the screen, hit the spacebar as quickly as possible. Hit the spacebar whenever you see an image of Shelmet or the word SHELMET. 

Press the spacebar to start the task",target2,stimuli/t2.jpg,38,36,stimuli/filler48.jpg,filler,FALSE,None,,,,,,,,,,,,,,0,0,0,0,,,,,0,0,0,1,0,35,35,35,,,,,,,,,,,,,,,,,,,,,,,,,,,,,,,,,,,,,,,,,,,,,,,,,,,,,CS1_USneg,None,1,,,,,,,,,,,,,,,,,,20,f ,38,n,2019_Oct_08_1506,ec_RRR,3.0.4,60.007
Kurdi and Ferguson,"For this task, the target creature is Shelmet:","So whenever Shelmet (his name or his picture) appears on the screen, hit the spacebar as quickly as possible. Hit the spacebar whenever you see an image of Shelmet or the word SHELMET. 

Press the spacebar to start the task",target2,stimuli/t2.jpg,38,37,stimuli/filler51.jpg,filler,FALSE,None,,,,,,,,,,,,,,0,0,0,0,,,,,0,0,0,1,0,36,36,36,,,,,,,,,,,,,,,,,,,,,,,,,,,,,,,,,,,,,,,,,,,,,,,,,,,,,CS1_USneg,None,1,,,,,,,,,,,,,,,,,,20,f ,38,n,2019_Oct_08_1506,ec_RRR,3.0.4,60.007
Kurdi and Ferguson,"For this task, the target creature is Shelmet:","So whenever Shelmet (his name or his picture) appears on the screen, hit the spacebar as quickly as possible. Hit the spacebar whenever you see an image of Shelmet or the word SHELMET. 

Press the spacebar to start the task",target2,stimuli/t2.jpg,38,38,stimuli/filler24.jpg,filler,FALSE,None,,,,,,,,,,,,,,0,0,0,0,,,,,0,0,0,1,0,37,37,37,,,,,,,,,,,,,,,,,,,,,,,,,,,,,,,,,,,,,,,,,,,,,,,,,,,,,CS1_USneg,None,1,,,,,,,,,,,,,,,,,,20,f ,38,n,2019_Oct_08_1506,ec_RRR,3.0.4,60.007
Kurdi and Ferguson,"For this task, the target creature is Shelmet:","So whenever Shelmet (his name or his picture) appears on the screen, hit the spacebar as quickly as possible. Hit the spacebar whenever you see an image of Shelmet or the word SHELMET. 

Press the spacebar to start the task",target2,stimuli/t2.jpg,38,39,stimuli/filler14.jpg,filler,FALSE,None,,,,,,,,,,,,,,0,0,0,0,,,,,0,0,0,1,0,38,38,38,,,,,,,,,,,,,,,,,,,,,,,,,,,,,,,,,,,,,,,,,,,,,,,,,,,,,CS1_USneg,None,1,,,,,,,,,,,,,,,,,,20,f ,38,n,2019_Oct_08_1506,ec_RRR,3.0.4,60.007
Kurdi and Ferguson,"For this task, the target creature is Shelmet:","So whenever Shelmet (his name or his picture) appears on the screen, hit the spacebar as quickly as possible. Hit the spacebar whenever you see an image of Shelmet or the word SHELMET. 

Press the spacebar to start the task",target2,stimuli/t2.jpg,38,40,stimuli/blank.jpg,blank,FALSE,None,,,,,,,,,,,,,,0,0,0,0,,,,,0,0,0,1,0,39,39,39,,,,,,,,,,,,,,,,,,,,,,,,,,,,,,,,,,,,,,,,,,,,,,,,,,,,,CS1_USneg,None,1,,,,,,,,,,,,,,,,,,20,f ,38,n,2019_Oct_08_1506,ec_RRR,3.0.4,60.007
Kurdi and Ferguson,"For this task, the target creature is Shelmet:","So whenever Shelmet (his name or his picture) appears on the screen, hit the spacebar as quickly as possible. Hit the spacebar whenever you see an image of Shelmet or the word SHELMET. 

Press the spacebar to start the task",target2,stimuli/t2.jpg,38,41,stimuli/cs2_pos8.jpg,CSUS,FALSE,None,,,,,,,,,,,,,,0,0,0,0,,,,,0,0,0,1,0,40,40,40,,,,,,,,,,,,,,,,,,,,,,,,,,,,,,,,,,,,,,,,,,,,,,,,,,,,,CS1_USneg,None,1,,,,,,,,,,,,,,,,,,20,f ,38,n,2019_Oct_08_1506,ec_RRR,3.0.4,60.007
Kurdi and Ferguson,"For this task, the target creature is Shelmet:","So whenever Shelmet (his name or his picture) appears on the screen, hit the spacebar as quickly as possible. Hit the spacebar whenever you see an image of Shelmet or the word SHELMET. 

Press the spacebar to start the task",target2,stimuli/t2.jpg,38,42,stimuli/blank.jpg,blank,FALSE,None,,,,,,,,,,,,,,0,0,0,0,,,,,0,0,0,1,0,41,41,41,,,,,,,,,,,,,,,,,,,,,,,,,,,,,,,,,,,,,,,,,,,,,,,,,,,,,CS1_USneg,None,1,,,,,,,,,,,,,,,,,,20,f ,38,n,2019_Oct_08_1506,ec_RRR,3.0.4,60.007
Kurdi and Ferguson,"For this task, the target creature is Shelmet:","So whenever Shelmet (his name or his picture) appears on the screen, hit the spacebar as quickly as possible. Hit the spacebar whenever you see an image of Shelmet or the word SHELMET. 

Press the spacebar to start the task",target2,stimuli/t2.jpg,38,43,stimuli/filler6.jpg,filler,FALSE,None,,,,,,,,,,,,,,0,0,0,0,,,,,0,0,0,1,0,42,42,42,,,,,,,,,,,,,,,,,,,,,,,,,,,,,,,,,,,,,,,,,,,,,,,,,,,,,CS1_USneg,None,1,,,,,,,,,,,,,,,,,,20,f ,38,n,2019_Oct_08_1506,ec_RRR,3.0.4,60.007
Kurdi and Ferguson,"For this task, the target creature is Shelmet:","So whenever Shelmet (his name or his picture) appears on the screen, hit the spacebar as quickly as possible. Hit the spacebar whenever you see an image of Shelmet or the word SHELMET. 

Press the spacebar to start the task",target2,stimuli/t2.jpg,38,44,stimuli/filler45.jpg,filler,FALSE,None,,,,,,,,,,,,,,0,0,0,0,,,,,0,0,0,1,0,43,43,43,,,,,,,,,,,,,,,,,,,,,,,,,,,,,,,,,,,,,,,,,,,,,,,,,,,,,CS1_USneg,None,1,,,,,,,,,,,,,,,,,,20,f ,38,n,2019_Oct_08_1506,ec_RRR,3.0.4,60.007
Kurdi and Ferguson,"For this task, the target creature is Shelmet:","So whenever Shelmet (his name or his picture) appears on the screen, hit the spacebar as quickly as possible. Hit the spacebar whenever you see an image of Shelmet or the word SHELMET. 

Press the spacebar to start the task",target2,stimuli/t2.jpg,38,45,stimuli/filler40.jpg,filler,FALSE,None,,,,,,,,,,,,,,0,0,0,0,,,,,0,0,0,1,0,44,44,44,,,,,,,,,,,,,,,,,,,,,,,,,,,,,,,,,,,,,,,,,,,,,,,,,,,,,CS1_USneg,None,1,,,,,,,,,,,,,,,,,,20,f ,38,n,2019_Oct_08_1506,ec_RRR,3.0.4,60.007
Kurdi and Ferguson,"For this task, the target creature is Shelmet:","So whenever Shelmet (his name or his picture) appears on the screen, hit the spacebar as quickly as possible. Hit the spacebar whenever you see an image of Shelmet or the word SHELMET. 

Press the spacebar to start the task",target2,stimuli/t2.jpg,38,46,stimuli/filler28.jpg,filler,FALSE,None,,,,,,,,,,,,,,0,0,0,0,,,,,0,0,0,1,0,45,45,45,,,,,,,,,,,,,,,,,,,,,,,,,,,,,,,,,,,,,,,,,,,,,,,,,,,,,CS1_USneg,None,1,,,,,,,,,,,,,,,,,,20,f ,38,n,2019_Oct_08_1506,ec_RRR,3.0.4,60.007
Kurdi and Ferguson,"For this task, the target creature is Shelmet:","So whenever Shelmet (his name or his picture) appears on the screen, hit the spacebar as quickly as possible. Hit the spacebar whenever you see an image of Shelmet or the word SHELMET. 

Press the spacebar to start the task",target2,stimuli/t2.jpg,38,47,stimuli/target2_7.jpg,target,TRUE,space,,,,,,,,,,,,,,0,0,0,0,,,,,0,0,0,1,0,46,46,46,,,,,,,,,,,,,,,,,,,,,,,,,,,,,,,,,,,,,,,,,,,,,,,,,,,,,CS1_USneg,space,1,0.63416513,,,,,,,,,,,,,,,,,20,f ,38,n,2019_Oct_08_1506,ec_RRR,3.0.4,60.007
Kurdi and Ferguson,"For this task, the target creature is Shelmet:","So whenever Shelmet (his name or his picture) appears on the screen, hit the spacebar as quickly as possible. Hit the spacebar whenever you see an image of Shelmet or the word SHELMET. 

Press the spacebar to start the task",target2,stimuli/t2.jpg,38,48,stimuli/filler16.jpg,filler,FALSE,None,,,,,,,,,,,,,,0,0,0,0,,,,,0,0,0,1,0,47,47,47,,,,,,,,,,,,,,,,,,,,,,,,,,,,,,,,,,,,,,,,,,,,,,,,,,,,,CS1_USneg,None,1,,,,,,,,,,,,,,,,,,20,f ,38,n,2019_Oct_08_1506,ec_RRR,3.0.4,60.007
Kurdi and Ferguson,"For this task, the target creature is Shelmet:","So whenever Shelmet (his name or his picture) appears on the screen, hit the spacebar as quickly as possible. Hit the spacebar whenever you see an image of Shelmet or the word SHELMET. 

Press the spacebar to start the task",target2,stimuli/t2.jpg,38,49,stimuli/filler35.jpg,filler,FALSE,None,,,,,,,,,,,,,,0,0,0,0,,,,,0,0,0,1,0,48,48,48,,,,,,,,,,,,,,,,,,,,,,,,,,,,,,,,,,,,,,,,,,,,,,,,,,,,,CS1_USneg,None,1,,,,,,,,,,,,,,,,,,20,f ,38,n,2019_Oct_08_1506,ec_RRR,3.0.4,60.007
Kurdi and Ferguson,"For this task, the target creature is Shelmet:","So whenever Shelmet (his name or his picture) appears on the screen, hit the spacebar as quickly as possible. Hit the spacebar whenever you see an image of Shelmet or the word SHELMET. 

Press the spacebar to start the task",target2,stimuli/t2.jpg,38,50,stimuli/blank.jpg,blank,FALSE,None,,,,,,,,,,,,,,0,0,0,0,,,,,0,0,0,1,0,49,49,49,,,,,,,,,,,,,,,,,,,,,,,,,,,,,,,,,,,,,,,,,,,,,,,,,,,,,CS1_USneg,None,1,,,,,,,,,,,,,,,,,,20,f ,38,n,2019_Oct_08_1506,ec_RRR,3.0.4,60.007
Kurdi and Ferguson,"For this task, the target creature is Shelmet:","So whenever Shelmet (his name or his picture) appears on the screen, hit the spacebar as quickly as possible. Hit the spacebar whenever you see an image of Shelmet or the word SHELMET. 

Press the spacebar to start the task",target2,stimuli/t2.jpg,38,51,stimuli/cs1_neg15.jpg,CSUS,FALSE,None,,,,,,,,,,,,,,0,0,0,0,,,,,0,0,0,1,0,50,50,50,,,,,,,,,,,,,,,,,,,,,,,,,,,,,,,,,,,,,,,,,,,,,,,,,,,,,CS1_USneg,None,1,,,,,,,,,,,,,,,,,,20,f ,38,n,2019_Oct_08_1506,ec_RRR,3.0.4,60.007
Kurdi and Ferguson,"For this task, the target creature is Shelmet:","So whenever Shelmet (his name or his picture) appears on the screen, hit the spacebar as quickly as possible. Hit the spacebar whenever you see an image of Shelmet or the word SHELMET. 

Press the spacebar to start the task",target2,stimuli/t2.jpg,38,52,stimuli/blank.jpg,blank,FALSE,None,,,,,,,,,,,,,,0,0,0,0,,,,,0,0,0,1,0,51,51,51,,,,,,,,,,,,,,,,,,,,,,,,,,,,,,,,,,,,,,,,,,,,,,,,,,,,,CS1_USneg,None,1,,,,,,,,,,,,,,,,,,20,f ,38,n,2019_Oct_08_1506,ec_RRR,3.0.4,60.007
Kurdi and Ferguson,"For this task, the target creature is Shelmet:","So whenever Shelmet (his name or his picture) appears on the screen, hit the spacebar as quickly as possible. Hit the spacebar whenever you see an image of Shelmet or the word SHELMET. 

Press the spacebar to start the task",target2,stimuli/t2.jpg,38,53,stimuli/filler21.jpg,filler,FALSE,None,,,,,,,,,,,,,,0,0,0,0,,,,,0,0,0,1,0,52,52,52,,,,,,,,,,,,,,,,,,,,,,,,,,,,,,,,,,,,,,,,,,,,,,,,,,,,,CS1_USneg,None,1,,,,,,,,,,,,,,,,,,20,f ,38,n,2019_Oct_08_1506,ec_RRR,3.0.4,60.007
Kurdi and Ferguson,"For this task, the target creature is Shelmet:","So whenever Shelmet (his name or his picture) appears on the screen, hit the spacebar as quickly as possible. Hit the spacebar whenever you see an image of Shelmet or the word SHELMET. 

Press the spacebar to start the task",target2,stimuli/t2.jpg,38,54,stimuli/filler32.jpg,filler,FALSE,None,,,,,,,,,,,,,,0,0,0,0,,,,,0,0,0,1,0,53,53,53,,,,,,,,,,,,,,,,,,,,,,,,,,,,,,,,,,,,,,,,,,,,,,,,,,,,,CS1_USneg,None,1,,,,,,,,,,,,,,,,,,20,f ,38,n,2019_Oct_08_1506,ec_RRR,3.0.4,60.007
Kurdi and Ferguson,"For this task, the target creature is Shelmet:","So whenever Shelmet (his name or his picture) appears on the screen, hit the spacebar as quickly as possible. Hit the spacebar whenever you see an image of Shelmet or the word SHELMET. 

Press the spacebar to start the task",target2,stimuli/t2.jpg,38,55,stimuli/target2_1.jpg,target,TRUE,space,,,,,,,,,,,,,,0,0,0,0,,,,,0,0,0,1,0,54,54,54,,,,,,,,,,,,,,,,,,,,,,,,,,,,,,,,,,,,,,,,,,,,,,,,,,,,,CS1_USneg,space,1,0.667366152,,,,,,,,,,,,,,,,,20,f ,38,n,2019_Oct_08_1506,ec_RRR,3.0.4,60.007
Kurdi and Ferguson,"For this task, the target creature is Shelmet:","So whenever Shelmet (his name or his picture) appears on the screen, hit the spacebar as quickly as possible. Hit the spacebar whenever you see an image of Shelmet or the word SHELMET. 

Press the spacebar to start the task",target2,stimuli/t2.jpg,38,56,stimuli/filler26.jpg,filler,FALSE,None,,,,,,,,,,,,,,0,0,0,0,,,,,0,0,0,1,0,55,55,55,,,,,,,,,,,,,,,,,,,,,,,,,,,,,,,,,,,,,,,,,,,,,,,,,,,,,CS1_USneg,None,1,,,,,,,,,,,,,,,,,,20,f ,38,n,2019_Oct_08_1506,ec_RRR,3.0.4,60.007
Kurdi and Ferguson,"For this task, the target creature is Shelmet:","So whenever Shelmet (his name or his picture) appears on the screen, hit the spacebar as quickly as possible. Hit the spacebar whenever you see an image of Shelmet or the word SHELMET. 

Press the spacebar to start the task",target2,stimuli/t2.jpg,38,57,stimuli/filler5.jpg,filler,FALSE,None,,,,,,,,,,,,,,0,0,0,0,,,,,0,0,0,1,0,56,56,56,,,,,,,,,,,,,,,,,,,,,,,,,,,,,,,,,,,,,,,,,,,,,,,,,,,,,CS1_USneg,None,1,,,,,,,,,,,,,,,,,,20,f ,38,n,2019_Oct_08_1506,ec_RRR,3.0.4,60.007
Kurdi and Ferguson,"For this task, the target creature is Shelmet:","So whenever Shelmet (his name or his picture) appears on the screen, hit the spacebar as quickly as possible. Hit the spacebar whenever you see an image of Shelmet or the word SHELMET. 

Press the spacebar to start the task",target2,stimuli/t2.jpg,38,58,stimuli/filler38.jpg,filler,FALSE,None,,,,,,,,,,,,,,0,0,0,0,,,,,0,0,0,1,0,57,57,57,,,,,,,,,,,,,,,,,,,,,,,,,,,,,,,,,,,,,,,,,,,,,,,,,,,,,CS1_USneg,None,1,,,,,,,,,,,,,,,,,,20,f ,38,n,2019_Oct_08_1506,ec_RRR,3.0.4,60.007
Kurdi and Ferguson,"For this task, the target creature is Shelmet:","So whenever Shelmet (his name or his picture) appears on the screen, hit the spacebar as quickly as possible. Hit the spacebar whenever you see an image of Shelmet or the word SHELMET. 

Press the spacebar to start the task",target2,stimuli/t2.jpg,38,59,stimuli/filler47.jpg,filler,FALSE,None,,,,,,,,,,,,,,0,0,0,0,,,,,0,0,0,1,0,58,58,58,,,,,,,,,,,,,,,,,,,,,,,,,,,,,,,,,,,,,,,,,,,,,,,,,,,,,CS1_USneg,None,1,,,,,,,,,,,,,,,,,,20,f ,38,n,2019_Oct_08_1506,ec_RRR,3.0.4,60.007
Kurdi and Ferguson,"For this task, the target creature is Shelmet:","So whenever Shelmet (his name or his picture) appears on the screen, hit the spacebar as quickly as possible. Hit the spacebar whenever you see an image of Shelmet or the word SHELMET. 

Press the spacebar to start the task",target2,stimuli/t2.jpg,38,60,stimuli/blank.jpg,blank,FALSE,None,,,,,,,,,,,,,,0,0,0,0,,,,,0,0,0,1,0,59,59,59,,,,,,,,,,,,,,,,,,,,,,,,,,,,,,,,,,,,,,,,,,,,,,,,,,,,,CS1_USneg,None,1,,,,,,,,,,,,,,,,,,20,f ,38,n,2019_Oct_08_1506,ec_RRR,3.0.4,60.007
Kurdi and Ferguson,"For this task, the target creature is Shelmet:","So whenever Shelmet (his name or his picture) appears on the screen, hit the spacebar as quickly as possible. Hit the spacebar whenever you see an image of Shelmet or the word SHELMET. 

Press the spacebar to start the task",target2,stimuli/t2.jpg,38,61,stimuli/cs2_pos5.jpg,CSUS,FALSE,None,,,,,,,,,,,,,,0,0,0,0,,,,,0,0,0,1,0,60,60,60,,,,,,,,,,,,,,,,,,,,,,,,,,,,,,,,,,,,,,,,,,,,,,,,,,,,,CS1_USneg,None,1,,,,,,,,,,,,,,,,,,20,f ,38,n,2019_Oct_08_1506,ec_RRR,3.0.4,60.007
Kurdi and Ferguson,"For this task, the target creature is Shelmet:","So whenever Shelmet (his name or his picture) appears on the screen, hit the spacebar as quickly as possible. Hit the spacebar whenever you see an image of Shelmet or the word SHELMET. 

Press the spacebar to start the task",target2,stimuli/t2.jpg,38,62,stimuli/blank.jpg,blank,FALSE,None,,,,,,,,,,,,,,0,0,0,0,,,,,0,0,0,1,0,61,61,61,,,,,,,,,,,,,,,,,,,,,,,,,,,,,,,,,,,,,,,,,,,,,,,,,,,,,CS1_USneg,None,1,,,,,,,,,,,,,,,,,,20,f ,38,n,2019_Oct_08_1506,ec_RRR,3.0.4,60.007
Kurdi and Ferguson,"For this task, the target creature is Shelmet:","So whenever Shelmet (his name or his picture) appears on the screen, hit the spacebar as quickly as possible. Hit the spacebar whenever you see an image of Shelmet or the word SHELMET. 

Press the spacebar to start the task",target2,stimuli/t2.jpg,38,63,stimuli/filler44.jpg,filler,FALSE,None,,,,,,,,,,,,,,0,0,0,0,,,,,0,0,0,1,0,62,62,62,,,,,,,,,,,,,,,,,,,,,,,,,,,,,,,,,,,,,,,,,,,,,,,,,,,,,CS1_USneg,None,1,,,,,,,,,,,,,,,,,,20,f ,38,n,2019_Oct_08_1506,ec_RRR,3.0.4,60.007
Kurdi and Ferguson,"For this task, the target creature is Shelmet:","So whenever Shelmet (his name or his picture) appears on the screen, hit the spacebar as quickly as possible. Hit the spacebar whenever you see an image of Shelmet or the word SHELMET. 

Press the spacebar to start the task",target2,stimuli/t2.jpg,38,64,stimuli/filler46.jpg,filler,FALSE,None,,,,,,,,,,,,,,0,0,0,0,,,,,0,0,0,1,0,63,63,63,,,,,,,,,,,,,,,,,,,,,,,,,,,,,,,,,,,,,,,,,,,,,,,,,,,,,CS1_USneg,None,1,,,,,,,,,,,,,,,,,,20,f ,38,n,2019_Oct_08_1506,ec_RRR,3.0.4,60.007
Kurdi and Ferguson,"For this task, the target creature is Shelmet:","So whenever Shelmet (his name or his picture) appears on the screen, hit the spacebar as quickly as possible. Hit the spacebar whenever you see an image of Shelmet or the word SHELMET. 

Press the spacebar to start the task",target2,stimuli/t2.jpg,38,65,stimuli/filler22.jpg,filler,FALSE,None,,,,,,,,,,,,,,0,0,0,0,,,,,0,0,0,1,0,64,64,64,,,,,,,,,,,,,,,,,,,,,,,,,,,,,,,,,,,,,,,,,,,,,,,,,,,,,CS1_USneg,None,1,,,,,,,,,,,,,,,,,,20,f ,38,n,2019_Oct_08_1506,ec_RRR,3.0.4,60.007
Kurdi and Ferguson,"For this task, the target creature is Shelmet:","So whenever Shelmet (his name or his picture) appears on the screen, hit the spacebar as quickly as possible. Hit the spacebar whenever you see an image of Shelmet or the word SHELMET. 

Press the spacebar to start the task",target2,stimuli/t2.jpg,38,66,stimuli/target2_3.jpg,target,TRUE,space,,,,,,,,,,,,,,0,0,0,0,,,,,0,0,0,1,0,65,65,65,,,,,,,,,,,,,,,,,,,,,,,,,,,,,,,,,,,,,,,,,,,,,,,,,,,,,CS1_USneg,space,1,0.599340459,,,,,,,,,,,,,,,,,20,f ,38,n,2019_Oct_08_1506,ec_RRR,3.0.4,60.007
Kurdi and Ferguson,"For this task, the target creature is Shelmet:","So whenever Shelmet (his name or his picture) appears on the screen, hit the spacebar as quickly as possible. Hit the spacebar whenever you see an image of Shelmet or the word SHELMET. 

Press the spacebar to start the task",target2,stimuli/t2.jpg,38,67,stimuli/filler3.jpg,filler,FALSE,None,,,,,,,,,,,,,,0,0,0,0,,,,,0,0,0,1,0,66,66,66,,,,,,,,,,,,,,,,,,,,,,,,,,,,,,,,,,,,,,,,,,,,,,,,,,,,,CS1_USneg,None,1,,,,,,,,,,,,,,,,,,20,f ,38,n,2019_Oct_08_1506,ec_RRR,3.0.4,60.007
Kurdi and Ferguson,"For this task, the target creature is Shelmet:","So whenever Shelmet (his name or his picture) appears on the screen, hit the spacebar as quickly as possible. Hit the spacebar whenever you see an image of Shelmet or the word SHELMET. 

Press the spacebar to start the task",target2,stimuli/t2.jpg,38,68,stimuli/target2_6.jpg,target,TRUE,space,,,,,,,,,,,,,,0,0,0,0,,,,,0,0,0,1,0,67,67,67,,,,,,,,,,,,,,,,,,,,,,,,,,,,,,,,,,,,,,,,,,,,,,,,,,,,,CS1_USneg,space,1,0.800827973,,,,,,,,,,,,,,,,,20,f ,38,n,2019_Oct_08_1506,ec_RRR,3.0.4,60.007
Kurdi and Ferguson,"For this task, the target creature is Shelmet:","So whenever Shelmet (his name or his picture) appears on the screen, hit the spacebar as quickly as possible. Hit the spacebar whenever you see an image of Shelmet or the word SHELMET. 

Press the spacebar to start the task",target2,stimuli/t2.jpg,38,69,stimuli/target2_2.jpg,target,TRUE,space,,,,,,,,,,,,,,0,0,0,0,,,,,0,0,0,1,0,68,68,68,,,,,,,,,,,,,,,,,,,,,,,,,,,,,,,,,,,,,,,,,,,,,,,,,,,,,CS1_USneg,space,1,0.648696463,,,,,,,,,,,,,,,,,20,f ,38,n,2019_Oct_08_1506,ec_RRR,3.0.4,60.007
Kurdi and Ferguson,"For this task, the target creature is Shelmet:","So whenever Shelmet (his name or his picture) appears on the screen, hit the spacebar as quickly as possible. Hit the spacebar whenever you see an image of Shelmet or the word SHELMET. 

Press the spacebar to start the task",target2,stimuli/t2.jpg,38,70,stimuli/blank.jpg,blank,FALSE,None,,,,,,,,,,,,,,0,0,0,0,,,,,0,0,0,1,0,69,69,69,,,,,,,,,,,,,,,,,,,,,,,,,,,,,,,,,,,,,,,,,,,,,,,,,,,,,CS1_USneg,None,1,,,,,,,,,,,,,,,,,,20,f ,38,n,2019_Oct_08_1506,ec_RRR,3.0.4,60.007
Kurdi and Ferguson,"For this task, the target creature is Shelmet:","So whenever Shelmet (his name or his picture) appears on the screen, hit the spacebar as quickly as possible. Hit the spacebar whenever you see an image of Shelmet or the word SHELMET. 

Press the spacebar to start the task",target2,stimuli/t2.jpg,38,71,stimuli/cs1_neg11.jpg,CSUS,FALSE,None,,,,,,,,,,,,,,0,0,0,0,,,,,0,0,0,1,0,70,70,70,,,,,,,,,,,,,,,,,,,,,,,,,,,,,,,,,,,,,,,,,,,,,,,,,,,,,CS1_USneg,None,1,,,,,,,,,,,,,,,,,,20,f ,38,n,2019_Oct_08_1506,ec_RRR,3.0.4,60.007
Kurdi and Ferguson,"For this task, the target creature is Shelmet:","So whenever Shelmet (his name or his picture) appears on the screen, hit the spacebar as quickly as possible. Hit the spacebar whenever you see an image of Shelmet or the word SHELMET. 

Press the spacebar to start the task",target2,stimuli/t2.jpg,38,72,stimuli/blank.jpg,blank,FALSE,None,,,,,,,,,,,,,,0,0,0,0,,,,,0,0,0,1,0,71,71,71,,,,,,,,,,,,,,,,,,,,,,,,,,,,,,,,,,,,,,,,,,,,,,,,,,,,,CS1_USneg,None,1,,,,,,,,,,,,,,,,,,20,f ,38,n,2019_Oct_08_1506,ec_RRR,3.0.4,60.007
Kurdi and Ferguson,"For this task, the target creature is Shelmet:","So whenever Shelmet (his name or his picture) appears on the screen, hit the spacebar as quickly as possible. Hit the spacebar whenever you see an image of Shelmet or the word SHELMET. 

Press the spacebar to start the task",target2,stimuli/t2.jpg,38,73,stimuli/filler7.jpg,filler,FALSE,None,,,,,,,,,,,,,,0,0,0,0,,,,,0,0,0,1,0,72,72,72,,,,,,,,,,,,,,,,,,,,,,,,,,,,,,,,,,,,,,,,,,,,,,,,,,,,,CS1_USneg,None,1,,,,,,,,,,,,,,,,,,20,f ,38,n,2019_Oct_08_1506,ec_RRR,3.0.4,60.007
Kurdi and Ferguson,"For this task, the target creature is Shelmet:","So whenever Shelmet (his name or his picture) appears on the screen, hit the spacebar as quickly as possible. Hit the spacebar whenever you see an image of Shelmet or the word SHELMET. 

Press the spacebar to start the task",target2,stimuli/t2.jpg,38,74,stimuli/filler2.jpg,filler,FALSE,None,,,,,,,,,,,,,,0,0,0,0,,,,,0,0,0,1,0,73,73,73,,,,,,,,,,,,,,,,,,,,,,,,,,,,,,,,,,,,,,,,,,,,,,,,,,,,,CS1_USneg,None,1,,,,,,,,,,,,,,,,,,20,f ,38,n,2019_Oct_08_1506,ec_RRR,3.0.4,60.007
Kurdi and Ferguson,"For this task, the target creature is Shelmet:","So whenever Shelmet (his name or his picture) appears on the screen, hit the spacebar as quickly as possible. Hit the spacebar whenever you see an image of Shelmet or the word SHELMET. 

Press the spacebar to start the task",target2,stimuli/t2.jpg,38,75,stimuli/filler50.jpg,filler,FALSE,None,,,,,,,,,,,,,,0,0,0,0,,,,,0,0,0,1,0,74,74,74,,,,,,,,,,,,,,,,,,,,,,,,,,,,,,,,,,,,,,,,,,,,,,,,,,,,,CS1_USneg,None,1,,,,,,,,,,,,,,,,,,20,f ,38,n,2019_Oct_08_1506,ec_RRR,3.0.4,60.007
Kurdi and Ferguson,"For this task, the target creature is Shelmet:","So whenever Shelmet (his name or his picture) appears on the screen, hit the spacebar as quickly as possible. Hit the spacebar whenever you see an image of Shelmet or the word SHELMET. 

Press the spacebar to start the task",target2,stimuli/t2.jpg,38,76,stimuli/filler15.jpg,filler,FALSE,None,,,,,,,,,,,,,,0,0,0,0,,,,,0,0,0,1,0,75,75,75,,,,,,,,,,,,,,,,,,,,,,,,,,,,,,,,,,,,,,,,,,,,,,,,,,,,,CS1_USneg,None,1,,,,,,,,,,,,,,,,,,20,f ,38,n,2019_Oct_08_1506,ec_RRR,3.0.4,60.007
Kurdi and Ferguson,"For this task, the target creature is Shelmet:","So whenever Shelmet (his name or his picture) appears on the screen, hit the spacebar as quickly as possible. Hit the spacebar whenever you see an image of Shelmet or the word SHELMET. 

Press the spacebar to start the task",target2,stimuli/t2.jpg,38,77,stimuli/filler43.jpg,filler,FALSE,None,,,,,,,,,,,,,,0,0,0,0,,,,,0,0,0,1,0,76,76,76,,,,,,,,,,,,,,,,,,,,,,,,,,,,,,,,,,,,,,,,,,,,,,,,,,,,,CS1_USneg,None,1,,,,,,,,,,,,,,,,,,20,f ,38,n,2019_Oct_08_1506,ec_RRR,3.0.4,60.007
Kurdi and Ferguson,"For this task, the target creature is Shelmet:","So whenever Shelmet (his name or his picture) appears on the screen, hit the spacebar as quickly as possible. Hit the spacebar whenever you see an image of Shelmet or the word SHELMET. 

Press the spacebar to start the task",target2,stimuli/t2.jpg,38,78,stimuli/filler41.jpg,filler,FALSE,None,,,,,,,,,,,,,,0,0,0,0,,,,,0,0,0,1,0,77,77,77,,,,,,,,,,,,,,,,,,,,,,,,,,,,,,,,,,,,,,,,,,,,,,,,,,,,,CS1_USneg,None,1,,,,,,,,,,,,,,,,,,20,f ,38,n,2019_Oct_08_1506,ec_RRR,3.0.4,60.007
Kurdi and Ferguson,"For this task, the target creature is Shelmet:","So whenever Shelmet (his name or his picture) appears on the screen, hit the spacebar as quickly as possible. Hit the spacebar whenever you see an image of Shelmet or the word SHELMET. 

Press the spacebar to start the task",target2,stimuli/t2.jpg,38,79,stimuli/target2_5.jpg,target,TRUE,space,,,,,,,,,,,,,,0,0,0,0,,,,,0,0,0,1,0,78,78,78,,,,,,,,,,,,,,,,,,,,,,,,,,,,,,,,,,,,,,,,,,,,,,,,,,,,,CS1_USneg,space,1,0.567453991,,,,,,,,,,,,,,,,,20,f ,38,n,2019_Oct_08_1506,ec_RRR,3.0.4,60.007
Kurdi and Ferguson,"For this task, the target creature is Shelmet:","So whenever Shelmet (his name or his picture) appears on the screen, hit the spacebar as quickly as possible. Hit the spacebar whenever you see an image of Shelmet or the word SHELMET. 

Press the spacebar to start the task",target2,stimuli/t2.jpg,38,80,stimuli/blank.jpg,blank,FALSE,None,,,,,,,,,,,,,,0,0,0,0,,,,,0,0,0,1,0,79,79,79,,,,,,,,,,,,,,,,,,,,,,,,,,,,,,,,,,,,,,,,,,,,,,,,,,,,,CS1_USneg,None,1,,,,,,,,,,,,,,,,,,20,f ,38,n,2019_Oct_08_1506,ec_RRR,3.0.4,60.007
Kurdi and Ferguson,"For this task, the target creature is Shelmet:","So whenever Shelmet (his name or his picture) appears on the screen, hit the spacebar as quickly as possible. Hit the spacebar whenever you see an image of Shelmet or the word SHELMET. 

Press the spacebar to start the task",target2,stimuli/t2.jpg,38,81,stimuli/cs2_pos14.jpg,CSUS,FALSE,None,,,,,,,,,,,,,,0,0,0,0,,,,,0,0,0,1,0,80,80,80,,,,,,,,,,,,,,,,,,,,,,,,,,,,,,,,,,,,,,,,,,,,,,,,,,,,,CS1_USneg,None,1,,,,,,,,,,,,,,,,,,20,f ,38,n,2019_Oct_08_1506,ec_RRR,3.0.4,60.007
Kurdi and Ferguson,"For this task, the target creature is Shelmet:","So whenever Shelmet (his name or his picture) appears on the screen, hit the spacebar as quickly as possible. Hit the spacebar whenever you see an image of Shelmet or the word SHELMET. 

Press the spacebar to start the task",target2,stimuli/t2.jpg,38,82,stimuli/blank.jpg,blank,FALSE,None,,,,,,,,,,,,,,0,0,0,0,,,,,0,0,0,1,0,81,81,81,,,,,,,,,,,,,,,,,,,,,,,,,,,,,,,,,,,,,,,,,,,,,,,,,,,,,CS1_USneg,None,1,,,,,,,,,,,,,,,,,,20,f ,38,n,2019_Oct_08_1506,ec_RRR,3.0.4,60.007
Kurdi and Ferguson,"For this task, the target creature is Shelmet:","So whenever Shelmet (his name or his picture) appears on the screen, hit the spacebar as quickly as possible. Hit the spacebar whenever you see an image of Shelmet or the word SHELMET. 

Press the spacebar to start the task",target2,stimuli/t2.jpg,38,83,stimuli/filler17.jpg,filler,FALSE,None,,,,,,,,,,,,,,0,0,0,0,,,,,0,0,0,1,0,82,82,82,,,,,,,,,,,,,,,,,,,,,,,,,,,,,,,,,,,,,,,,,,,,,,,,,,,,,CS1_USneg,None,1,,,,,,,,,,,,,,,,,,20,f ,38,n,2019_Oct_08_1506,ec_RRR,3.0.4,60.007
Kurdi and Ferguson,"For this task, the target creature is Shelmet:","So whenever Shelmet (his name or his picture) appears on the screen, hit the spacebar as quickly as possible. Hit the spacebar whenever you see an image of Shelmet or the word SHELMET. 

Press the spacebar to start the task",target2,stimuli/t2.jpg,38,84,stimuli/filler10.jpg,filler,FALSE,None,,,,,,,,,,,,,,0,0,0,0,,,,,0,0,0,1,0,83,83,83,,,,,,,,,,,,,,,,,,,,,,,,,,,,,,,,,,,,,,,,,,,,,,,,,,,,,CS1_USneg,None,1,,,,,,,,,,,,,,,,,,20,f ,38,n,2019_Oct_08_1506,ec_RRR,3.0.4,60.007
Kurdi and Ferguson,"For this task, the target creature is Shelmet:","So whenever Shelmet (his name or his picture) appears on the screen, hit the spacebar as quickly as possible. Hit the spacebar whenever you see an image of Shelmet or the word SHELMET. 

Press the spacebar to start the task",target2,stimuli/t2.jpg,38,85,stimuli/filler9.jpg,filler,FALSE,None,,,,,,,,,,,,,,0,0,0,0,,,,,0,0,0,1,0,84,84,84,,,,,,,,,,,,,,,,,,,,,,,,,,,,,,,,,,,,,,,,,,,,,,,,,,,,,CS1_USneg,None,1,,,,,,,,,,,,,,,,,,20,f ,38,n,2019_Oct_08_1506,ec_RRR,3.0.4,60.007
Kurdi and Ferguson,"For this task, the target creature is Shelmet:","So whenever Shelmet (his name or his picture) appears on the screen, hit the spacebar as quickly as possible. Hit the spacebar whenever you see an image of Shelmet or the word SHELMET. 

Press the spacebar to start the task",target2,stimuli/t2.jpg,38,86,stimuli/filler1.jpg,filler,FALSE,None,,,,,,,,,,,,,,0,0,0,0,,,,,0,0,0,1,0,85,85,85,,,,,,,,,,,,,,,,,,,,,,,,,,,,,,,,,,,,,,,,,,,,,,,,,,,,,CS1_USneg,None,1,,,,,,,,,,,,,,,,,,20,f ,38,n,2019_Oct_08_1506,ec_RRR,3.0.4,60.007
Kurdi and Ferguson,"For this task, the target creature is Palpitoad:","So whenever Palpitoad (his name or his picture) appears on the screen, hit the spacebar as quickly as possible. Hit the spacebar whenever you see an image of Palpitoad or the word PALPITOAD. 

Press the spacebar to start the task",target4,stimuli/t4.jpg,38,1,stimuli/filler28.jpg,filler,FALSE,None,,,,,,,,,,,,,,0,0,0,0,,,,,0,1,1,3,0,0,0,0,,,,,,,,,,,,,,,,,,,,,,,,,,,,,,,,,,,,,,,,,,,,,,,,,,,,,CS1_USneg,None,1,,,,,,,,,,,,,,,,,,20,f ,38,n,2019_Oct_08_1506,ec_RRR,3.0.4,60.007
Kurdi and Ferguson,"For this task, the target creature is Palpitoad:","So whenever Palpitoad (his name or his picture) appears on the screen, hit the spacebar as quickly as possible. Hit the spacebar whenever you see an image of Palpitoad or the word PALPITOAD. 

Press the spacebar to start the task",target4,stimuli/t4.jpg,38,2,stimuli/filler51.jpg,filler,FALSE,None,,,,,,,,,,,,,,0,0,0,0,,,,,0,1,1,3,0,1,1,1,,,,,,,,,,,,,,,,,,,,,,,,,,,,,,,,,,,,,,,,,,,,,,,,,,,,,CS1_USneg,None,1,,,,,,,,,,,,,,,,,,20,f ,38,n,2019_Oct_08_1506,ec_RRR,3.0.4,60.007
Kurdi and Ferguson,"For this task, the target creature is Palpitoad:","So whenever Palpitoad (his name or his picture) appears on the screen, hit the spacebar as quickly as possible. Hit the spacebar whenever you see an image of Palpitoad or the word PALPITOAD. 

Press the spacebar to start the task",target4,stimuli/t4.jpg,38,3,stimuli/filler49.jpg,filler,FALSE,None,,,,,,,,,,,,,,0,0,0,0,,,,,0,1,1,3,0,2,2,2,,,,,,,,,,,,,,,,,,,,,,,,,,,,,,,,,,,,,,,,,,,,,,,,,,,,,CS1_USneg,None,1,,,,,,,,,,,,,,,,,,20,f ,38,n,2019_Oct_08_1506,ec_RRR,3.0.4,60.007
Kurdi and Ferguson,"For this task, the target creature is Palpitoad:","So whenever Palpitoad (his name or his picture) appears on the screen, hit the spacebar as quickly as possible. Hit the spacebar whenever you see an image of Palpitoad or the word PALPITOAD. 

Press the spacebar to start the task",target4,stimuli/t4.jpg,38,4,stimuli/filler37.jpg,filler,FALSE,None,,,,,,,,,,,,,,0,0,0,0,,,,,0,1,1,3,0,3,3,3,,,,,,,,,,,,,,,,,,,,,,,,,,,,,,,,,,,,,,,,,,,,,,,,,,,,,CS1_USneg,None,1,,,,,,,,,,,,,,,,,,20,f ,38,n,2019_Oct_08_1506,ec_RRR,3.0.4,60.007
Kurdi and Ferguson,"For this task, the target creature is Palpitoad:","So whenever Palpitoad (his name or his picture) appears on the screen, hit the spacebar as quickly as possible. Hit the spacebar whenever you see an image of Palpitoad or the word PALPITOAD. 

Press the spacebar to start the task",target4,stimuli/t4.jpg,38,5,stimuli/filler15.jpg,filler,FALSE,None,,,,,,,,,,,,,,0,0,0,0,,,,,0,1,1,3,0,4,4,4,,,,,,,,,,,,,,,,,,,,,,,,,,,,,,,,,,,,,,,,,,,,,,,,,,,,,CS1_USneg,None,1,,,,,,,,,,,,,,,,,,20,f ,38,n,2019_Oct_08_1506,ec_RRR,3.0.4,60.007
Kurdi and Ferguson,"For this task, the target creature is Palpitoad:","So whenever Palpitoad (his name or his picture) appears on the screen, hit the spacebar as quickly as possible. Hit the spacebar whenever you see an image of Palpitoad or the word PALPITOAD. 

Press the spacebar to start the task",target4,stimuli/t4.jpg,38,6,stimuli/filler25.jpg,filler,FALSE,None,,,,,,,,,,,,,,0,0,0,0,,,,,0,1,1,3,0,5,5,5,,,,,,,,,,,,,,,,,,,,,,,,,,,,,,,,,,,,,,,,,,,,,,,,,,,,,CS1_USneg,None,1,,,,,,,,,,,,,,,,,,20,f ,38,n,2019_Oct_08_1506,ec_RRR,3.0.4,60.007
Kurdi and Ferguson,"For this task, the target creature is Palpitoad:","So whenever Palpitoad (his name or his picture) appears on the screen, hit the spacebar as quickly as possible. Hit the spacebar whenever you see an image of Palpitoad or the word PALPITOAD. 

Press the spacebar to start the task",target4,stimuli/t4.jpg,38,7,stimuli/filler32.jpg,filler,FALSE,None,,,,,,,,,,,,,,0,0,0,0,,,,,0,1,1,3,0,6,6,6,,,,,,,,,,,,,,,,,,,,,,,,,,,,,,,,,,,,,,,,,,,,,,,,,,,,,CS1_USneg,None,1,,,,,,,,,,,,,,,,,,20,f ,38,n,2019_Oct_08_1506,ec_RRR,3.0.4,60.007
Kurdi and Ferguson,"For this task, the target creature is Palpitoad:","So whenever Palpitoad (his name or his picture) appears on the screen, hit the spacebar as quickly as possible. Hit the spacebar whenever you see an image of Palpitoad or the word PALPITOAD. 

Press the spacebar to start the task",target4,stimuli/t4.jpg,38,8,stimuli/filler42.jpg,filler,FALSE,None,,,,,,,,,,,,,,0,0,0,0,,,,,0,1,1,3,0,7,7,7,,,,,,,,,,,,,,,,,,,,,,,,,,,,,,,,,,,,,,,,,,,,,,,,,,,,,CS1_USneg,None,1,,,,,,,,,,,,,,,,,,20,f ,38,n,2019_Oct_08_1506,ec_RRR,3.0.4,60.007
Kurdi and Ferguson,"For this task, the target creature is Palpitoad:","So whenever Palpitoad (his name or his picture) appears on the screen, hit the spacebar as quickly as possible. Hit the spacebar whenever you see an image of Palpitoad or the word PALPITOAD. 

Press the spacebar to start the task",target4,stimuli/t4.jpg,38,9,stimuli/target4_7.jpg,target,TRUE,space,,,,,,,,,,,,,,0,0,0,0,,,,,0,1,1,3,0,8,8,8,,,,,,,,,,,,,,,,,,,,,,,,,,,,,,,,,,,,,,,,,,,,,,,,,,,,,CS1_USneg,space,1,0.768577172,,,,,,,,,,,,,,,,,20,f ,38,n,2019_Oct_08_1506,ec_RRR,3.0.4,60.007
Kurdi and Ferguson,"For this task, the target creature is Palpitoad:","So whenever Palpitoad (his name or his picture) appears on the screen, hit the spacebar as quickly as possible. Hit the spacebar whenever you see an image of Palpitoad or the word PALPITOAD. 

Press the spacebar to start the task",target4,stimuli/t4.jpg,38,10,stimuli/blank.jpg,blank,FALSE,None,,,,,,,,,,,,,,0,0,0,0,,,,,0,1,1,3,0,9,9,9,,,,,,,,,,,,,,,,,,,,,,,,,,,,,,,,,,,,,,,,,,,,,,,,,,,,,CS1_USneg,None,1,,,,,,,,,,,,,,,,,,20,f ,38,n,2019_Oct_08_1506,ec_RRR,3.0.4,60.007
Kurdi and Ferguson,"For this task, the target creature is Palpitoad:","So whenever Palpitoad (his name or his picture) appears on the screen, hit the spacebar as quickly as possible. Hit the spacebar whenever you see an image of Palpitoad or the word PALPITOAD. 

Press the spacebar to start the task",target4,stimuli/t4.jpg,38,11,stimuli/cs1_neg4.jpg,CSUS,FALSE,None,,,,,,,,,,,,,,0,0,0,0,,,,,0,1,1,3,0,10,10,10,,,,,,,,,,,,,,,,,,,,,,,,,,,,,,,,,,,,,,,,,,,,,,,,,,,,,CS1_USneg,None,1,,,,,,,,,,,,,,,,,,20,f ,38,n,2019_Oct_08_1506,ec_RRR,3.0.4,60.007
Kurdi and Ferguson,"For this task, the target creature is Palpitoad:","So whenever Palpitoad (his name or his picture) appears on the screen, hit the spacebar as quickly as possible. Hit the spacebar whenever you see an image of Palpitoad or the word PALPITOAD. 

Press the spacebar to start the task",target4,stimuli/t4.jpg,38,12,stimuli/blank.jpg,blank,FALSE,None,,,,,,,,,,,,,,0,0,0,0,,,,,0,1,1,3,0,11,11,11,,,,,,,,,,,,,,,,,,,,,,,,,,,,,,,,,,,,,,,,,,,,,,,,,,,,,CS1_USneg,None,1,,,,,,,,,,,,,,,,,,20,f ,38,n,2019_Oct_08_1506,ec_RRR,3.0.4,60.007
Kurdi and Ferguson,"For this task, the target creature is Palpitoad:","So whenever Palpitoad (his name or his picture) appears on the screen, hit the spacebar as quickly as possible. Hit the spacebar whenever you see an image of Palpitoad or the word PALPITOAD. 

Press the spacebar to start the task",target4,stimuli/t4.jpg,38,13,stimuli/filler41.jpg,filler,FALSE,None,,,,,,,,,,,,,,0,0,0,0,,,,,0,1,1,3,0,12,12,12,,,,,,,,,,,,,,,,,,,,,,,,,,,,,,,,,,,,,,,,,,,,,,,,,,,,,CS1_USneg,None,1,,,,,,,,,,,,,,,,,,20,f ,38,n,2019_Oct_08_1506,ec_RRR,3.0.4,60.007
Kurdi and Ferguson,"For this task, the target creature is Palpitoad:","So whenever Palpitoad (his name or his picture) appears on the screen, hit the spacebar as quickly as possible. Hit the spacebar whenever you see an image of Palpitoad or the word PALPITOAD. 

Press the spacebar to start the task",target4,stimuli/t4.jpg,38,14,stimuli/filler11.jpg,filler,FALSE,None,,,,,,,,,,,,,,0,0,0,0,,,,,0,1,1,3,0,13,13,13,,,,,,,,,,,,,,,,,,,,,,,,,,,,,,,,,,,,,,,,,,,,,,,,,,,,,CS1_USneg,None,1,,,,,,,,,,,,,,,,,,20,f ,38,n,2019_Oct_08_1506,ec_RRR,3.0.4,60.007
Kurdi and Ferguson,"For this task, the target creature is Palpitoad:","So whenever Palpitoad (his name or his picture) appears on the screen, hit the spacebar as quickly as possible. Hit the spacebar whenever you see an image of Palpitoad or the word PALPITOAD. 

Press the spacebar to start the task",target4,stimuli/t4.jpg,38,15,stimuli/filler26.jpg,filler,FALSE,None,,,,,,,,,,,,,,0,0,0,0,,,,,0,1,1,3,0,14,14,14,,,,,,,,,,,,,,,,,,,,,,,,,,,,,,,,,,,,,,,,,,,,,,,,,,,,,CS1_USneg,None,1,,,,,,,,,,,,,,,,,,20,f ,38,n,2019_Oct_08_1506,ec_RRR,3.0.4,60.007
Kurdi and Ferguson,"For this task, the target creature is Palpitoad:","So whenever Palpitoad (his name or his picture) appears on the screen, hit the spacebar as quickly as possible. Hit the spacebar whenever you see an image of Palpitoad or the word PALPITOAD. 

Press the spacebar to start the task",target4,stimuli/t4.jpg,38,16,stimuli/filler18.jpg,filler,FALSE,None,,,,,,,,,,,,,,0,0,0,0,,,,,0,1,1,3,0,15,15,15,,,,,,,,,,,,,,,,,,,,,,,,,,,,,,,,,,,,,,,,,,,,,,,,,,,,,CS1_USneg,None,1,,,,,,,,,,,,,,,,,,20,f ,38,n,2019_Oct_08_1506,ec_RRR,3.0.4,60.007
Kurdi and Ferguson,"For this task, the target creature is Palpitoad:","So whenever Palpitoad (his name or his picture) appears on the screen, hit the spacebar as quickly as possible. Hit the spacebar whenever you see an image of Palpitoad or the word PALPITOAD. 

Press the spacebar to start the task",target4,stimuli/t4.jpg,38,17,stimuli/filler24.jpg,filler,FALSE,None,,,,,,,,,,,,,,0,0,0,0,,,,,0,1,1,3,0,16,16,16,,,,,,,,,,,,,,,,,,,,,,,,,,,,,,,,,,,,,,,,,,,,,,,,,,,,,CS1_USneg,None,1,,,,,,,,,,,,,,,,,,20,f ,38,n,2019_Oct_08_1506,ec_RRR,3.0.4,60.007
Kurdi and Ferguson,"For this task, the target creature is Palpitoad:","So whenever Palpitoad (his name or his picture) appears on the screen, hit the spacebar as quickly as possible. Hit the spacebar whenever you see an image of Palpitoad or the word PALPITOAD. 

Press the spacebar to start the task",target4,stimuli/t4.jpg,38,18,stimuli/filler10.jpg,filler,FALSE,None,,,,,,,,,,,,,,0,0,0,0,,,,,0,1,1,3,0,17,17,17,,,,,,,,,,,,,,,,,,,,,,,,,,,,,,,,,,,,,,,,,,,,,,,,,,,,,CS1_USneg,None,1,,,,,,,,,,,,,,,,,,20,f ,38,n,2019_Oct_08_1506,ec_RRR,3.0.4,60.007
Kurdi and Ferguson,"For this task, the target creature is Palpitoad:","So whenever Palpitoad (his name or his picture) appears on the screen, hit the spacebar as quickly as possible. Hit the spacebar whenever you see an image of Palpitoad or the word PALPITOAD. 

Press the spacebar to start the task",target4,stimuli/t4.jpg,38,19,stimuli/filler7.jpg,filler,FALSE,None,,,,,,,,,,,,,,0,0,0,0,,,,,0,1,1,3,0,18,18,18,,,,,,,,,,,,,,,,,,,,,,,,,,,,,,,,,,,,,,,,,,,,,,,,,,,,,CS1_USneg,None,1,,,,,,,,,,,,,,,,,,20,f ,38,n,2019_Oct_08_1506,ec_RRR,3.0.4,60.007
Kurdi and Ferguson,"For this task, the target creature is Palpitoad:","So whenever Palpitoad (his name or his picture) appears on the screen, hit the spacebar as quickly as possible. Hit the spacebar whenever you see an image of Palpitoad or the word PALPITOAD. 

Press the spacebar to start the task",target4,stimuli/t4.jpg,38,20,stimuli/blank.jpg,blank,FALSE,None,,,,,,,,,,,,,,0,0,0,0,,,,,0,1,1,3,0,19,19,19,,,,,,,,,,,,,,,,,,,,,,,,,,,,,,,,,,,,,,,,,,,,,,,,,,,,,CS1_USneg,None,1,,,,,,,,,,,,,,,,,,20,f ,38,n,2019_Oct_08_1506,ec_RRR,3.0.4,60.007
Kurdi and Ferguson,"For this task, the target creature is Palpitoad:","So whenever Palpitoad (his name or his picture) appears on the screen, hit the spacebar as quickly as possible. Hit the spacebar whenever you see an image of Palpitoad or the word PALPITOAD. 

Press the spacebar to start the task",target4,stimuli/t4.jpg,38,21,stimuli/cs2_pos4.jpg,CSUS,FALSE,None,,,,,,,,,,,,,,0,0,0,0,,,,,0,1,1,3,0,20,20,20,,,,,,,,,,,,,,,,,,,,,,,,,,,,,,,,,,,,,,,,,,,,,,,,,,,,,CS1_USneg,None,1,,,,,,,,,,,,,,,,,,20,f ,38,n,2019_Oct_08_1506,ec_RRR,3.0.4,60.007
Kurdi and Ferguson,"For this task, the target creature is Palpitoad:","So whenever Palpitoad (his name or his picture) appears on the screen, hit the spacebar as quickly as possible. Hit the spacebar whenever you see an image of Palpitoad or the word PALPITOAD. 

Press the spacebar to start the task",target4,stimuli/t4.jpg,38,22,stimuli/blank.jpg,blank,FALSE,None,,,,,,,,,,,,,,0,0,0,0,,,,,0,1,1,3,0,21,21,21,,,,,,,,,,,,,,,,,,,,,,,,,,,,,,,,,,,,,,,,,,,,,,,,,,,,,CS1_USneg,None,1,,,,,,,,,,,,,,,,,,20,f ,38,n,2019_Oct_08_1506,ec_RRR,3.0.4,60.007
Kurdi and Ferguson,"For this task, the target creature is Palpitoad:","So whenever Palpitoad (his name or his picture) appears on the screen, hit the spacebar as quickly as possible. Hit the spacebar whenever you see an image of Palpitoad or the word PALPITOAD. 

Press the spacebar to start the task",target4,stimuli/t4.jpg,38,23,stimuli/filler12.jpg,filler,FALSE,None,,,,,,,,,,,,,,0,0,0,0,,,,,0,1,1,3,0,22,22,22,,,,,,,,,,,,,,,,,,,,,,,,,,,,,,,,,,,,,,,,,,,,,,,,,,,,,CS1_USneg,None,1,,,,,,,,,,,,,,,,,,20,f ,38,n,2019_Oct_08_1506,ec_RRR,3.0.4,60.007
Kurdi and Ferguson,"For this task, the target creature is Palpitoad:","So whenever Palpitoad (his name or his picture) appears on the screen, hit the spacebar as quickly as possible. Hit the spacebar whenever you see an image of Palpitoad or the word PALPITOAD. 

Press the spacebar to start the task",target4,stimuli/t4.jpg,38,24,stimuli/filler52.jpg,filler,FALSE,None,,,,,,,,,,,,,,0,0,0,0,,,,,0,1,1,3,0,23,23,23,,,,,,,,,,,,,,,,,,,,,,,,,,,,,,,,,,,,,,,,,,,,,,,,,,,,,CS1_USneg,None,1,,,,,,,,,,,,,,,,,,20,f ,38,n,2019_Oct_08_1506,ec_RRR,3.0.4,60.007
Kurdi and Ferguson,"For this task, the target creature is Palpitoad:","So whenever Palpitoad (his name or his picture) appears on the screen, hit the spacebar as quickly as possible. Hit the spacebar whenever you see an image of Palpitoad or the word PALPITOAD. 

Press the spacebar to start the task",target4,stimuli/t4.jpg,38,25,stimuli/filler27.jpg,filler,FALSE,None,,,,,,,,,,,,,,0,0,0,0,,,,,0,1,1,3,0,24,24,24,,,,,,,,,,,,,,,,,,,,,,,,,,,,,,,,,,,,,,,,,,,,,,,,,,,,,CS1_USneg,None,1,,,,,,,,,,,,,,,,,,20,f ,38,n,2019_Oct_08_1506,ec_RRR,3.0.4,60.007
Kurdi and Ferguson,"For this task, the target creature is Palpitoad:","So whenever Palpitoad (his name or his picture) appears on the screen, hit the spacebar as quickly as possible. Hit the spacebar whenever you see an image of Palpitoad or the word PALPITOAD. 

Press the spacebar to start the task",target4,stimuli/t4.jpg,38,26,stimuli/filler50.jpg,filler,FALSE,None,,,,,,,,,,,,,,0,0,0,0,,,,,0,1,1,3,0,25,25,25,,,,,,,,,,,,,,,,,,,,,,,,,,,,,,,,,,,,,,,,,,,,,,,,,,,,,CS1_USneg,None,1,,,,,,,,,,,,,,,,,,20,f ,38,n,2019_Oct_08_1506,ec_RRR,3.0.4,60.007
Kurdi and Ferguson,"For this task, the target creature is Palpitoad:","So whenever Palpitoad (his name or his picture) appears on the screen, hit the spacebar as quickly as possible. Hit the spacebar whenever you see an image of Palpitoad or the word PALPITOAD. 

Press the spacebar to start the task",target4,stimuli/t4.jpg,38,27,stimuli/filler46.jpg,filler,FALSE,None,,,,,,,,,,,,,,0,0,0,0,,,,,0,1,1,3,0,26,26,26,,,,,,,,,,,,,,,,,,,,,,,,,,,,,,,,,,,,,,,,,,,,,,,,,,,,,CS1_USneg,None,1,,,,,,,,,,,,,,,,,,20,f ,38,n,2019_Oct_08_1506,ec_RRR,3.0.4,60.007
Kurdi and Ferguson,"For this task, the target creature is Palpitoad:","So whenever Palpitoad (his name or his picture) appears on the screen, hit the spacebar as quickly as possible. Hit the spacebar whenever you see an image of Palpitoad or the word PALPITOAD. 

Press the spacebar to start the task",target4,stimuli/t4.jpg,38,28,stimuli/filler47.jpg,filler,FALSE,None,,,,,,,,,,,,,,0,0,0,0,,,,,0,1,1,3,0,27,27,27,,,,,,,,,,,,,,,,,,,,,,,,,,,,,,,,,,,,,,,,,,,,,,,,,,,,,CS1_USneg,None,1,,,,,,,,,,,,,,,,,,20,f ,38,n,2019_Oct_08_1506,ec_RRR,3.0.4,60.007
Kurdi and Ferguson,"For this task, the target creature is Palpitoad:","So whenever Palpitoad (his name or his picture) appears on the screen, hit the spacebar as quickly as possible. Hit the spacebar whenever you see an image of Palpitoad or the word PALPITOAD. 

Press the spacebar to start the task",target4,stimuli/t4.jpg,38,29,stimuli/filler20.jpg,filler,FALSE,None,,,,,,,,,,,,,,0,0,0,0,,,,,0,1,1,3,0,28,28,28,,,,,,,,,,,,,,,,,,,,,,,,,,,,,,,,,,,,,,,,,,,,,,,,,,,,,CS1_USneg,None,1,,,,,,,,,,,,,,,,,,20,f ,38,n,2019_Oct_08_1506,ec_RRR,3.0.4,60.007
Kurdi and Ferguson,"For this task, the target creature is Palpitoad:","So whenever Palpitoad (his name or his picture) appears on the screen, hit the spacebar as quickly as possible. Hit the spacebar whenever you see an image of Palpitoad or the word PALPITOAD. 

Press the spacebar to start the task",target4,stimuli/t4.jpg,38,30,stimuli/blank.jpg,blank,FALSE,None,,,,,,,,,,,,,,0,0,0,0,,,,,0,1,1,3,0,29,29,29,,,,,,,,,,,,,,,,,,,,,,,,,,,,,,,,,,,,,,,,,,,,,,,,,,,,,CS1_USneg,None,1,,,,,,,,,,,,,,,,,,20,f ,38,n,2019_Oct_08_1506,ec_RRR,3.0.4,60.007
Kurdi and Ferguson,"For this task, the target creature is Palpitoad:","So whenever Palpitoad (his name or his picture) appears on the screen, hit the spacebar as quickly as possible. Hit the spacebar whenever you see an image of Palpitoad or the word PALPITOAD. 

Press the spacebar to start the task",target4,stimuli/t4.jpg,38,31,stimuli/cs1_neg12.jpg,CSUS,FALSE,None,,,,,,,,,,,,,,0,0,0,0,,,,,0,1,1,3,0,30,30,30,,,,,,,,,,,,,,,,,,,,,,,,,,,,,,,,,,,,,,,,,,,,,,,,,,,,,CS1_USneg,None,1,,,,,,,,,,,,,,,,,,20,f ,38,n,2019_Oct_08_1506,ec_RRR,3.0.4,60.007
Kurdi and Ferguson,"For this task, the target creature is Palpitoad:","So whenever Palpitoad (his name or his picture) appears on the screen, hit the spacebar as quickly as possible. Hit the spacebar whenever you see an image of Palpitoad or the word PALPITOAD. 

Press the spacebar to start the task",target4,stimuli/t4.jpg,38,32,stimuli/blank.jpg,blank,FALSE,None,,,,,,,,,,,,,,0,0,0,0,,,,,0,1,1,3,0,31,31,31,,,,,,,,,,,,,,,,,,,,,,,,,,,,,,,,,,,,,,,,,,,,,,,,,,,,,CS1_USneg,None,1,,,,,,,,,,,,,,,,,,20,f ,38,n,2019_Oct_08_1506,ec_RRR,3.0.4,60.007
Kurdi and Ferguson,"For this task, the target creature is Palpitoad:","So whenever Palpitoad (his name or his picture) appears on the screen, hit the spacebar as quickly as possible. Hit the spacebar whenever you see an image of Palpitoad or the word PALPITOAD. 

Press the spacebar to start the task",target4,stimuli/t4.jpg,38,33,stimuli/target4_2.jpg,target,TRUE,space,,,,,,,,,,,,,,0,0,0,0,,,,,0,1,1,3,0,32,32,32,,,,,,,,,,,,,,,,,,,,,,,,,,,,,,,,,,,,,,,,,,,,,,,,,,,,,CS1_USneg,space,1,0.667301858,,,,,,,,,,,,,,,,,20,f ,38,n,2019_Oct_08_1506,ec_RRR,3.0.4,60.007
Kurdi and Ferguson,"For this task, the target creature is Palpitoad:","So whenever Palpitoad (his name or his picture) appears on the screen, hit the spacebar as quickly as possible. Hit the spacebar whenever you see an image of Palpitoad or the word PALPITOAD. 

Press the spacebar to start the task",target4,stimuli/t4.jpg,38,34,stimuli/filler13.jpg,filler,FALSE,None,,,,,,,,,,,,,,0,0,0,0,,,,,0,1,1,3,0,33,33,33,,,,,,,,,,,,,,,,,,,,,,,,,,,,,,,,,,,,,,,,,,,,,,,,,,,,,CS1_USneg,None,1,,,,,,,,,,,,,,,,,,20,f ,38,n,2019_Oct_08_1506,ec_RRR,3.0.4,60.007
Kurdi and Ferguson,"For this task, the target creature is Palpitoad:","So whenever Palpitoad (his name or his picture) appears on the screen, hit the spacebar as quickly as possible. Hit the spacebar whenever you see an image of Palpitoad or the word PALPITOAD. 

Press the spacebar to start the task",target4,stimuli/t4.jpg,38,35,stimuli/filler5.jpg,filler,FALSE,None,,,,,,,,,,,,,,0,0,0,0,,,,,0,1,1,3,0,34,34,34,,,,,,,,,,,,,,,,,,,,,,,,,,,,,,,,,,,,,,,,,,,,,,,,,,,,,CS1_USneg,None,1,,,,,,,,,,,,,,,,,,20,f ,38,n,2019_Oct_08_1506,ec_RRR,3.0.4,60.007
Kurdi and Ferguson,"For this task, the target creature is Palpitoad:","So whenever Palpitoad (his name or his picture) appears on the screen, hit the spacebar as quickly as possible. Hit the spacebar whenever you see an image of Palpitoad or the word PALPITOAD. 

Press the spacebar to start the task",target4,stimuli/t4.jpg,38,36,stimuli/filler23.jpg,filler,FALSE,None,,,,,,,,,,,,,,0,0,0,0,,,,,0,1,1,3,0,35,35,35,,,,,,,,,,,,,,,,,,,,,,,,,,,,,,,,,,,,,,,,,,,,,,,,,,,,,CS1_USneg,None,1,,,,,,,,,,,,,,,,,,20,f ,38,n,2019_Oct_08_1506,ec_RRR,3.0.4,60.007
Kurdi and Ferguson,"For this task, the target creature is Palpitoad:","So whenever Palpitoad (his name or his picture) appears on the screen, hit the spacebar as quickly as possible. Hit the spacebar whenever you see an image of Palpitoad or the word PALPITOAD. 

Press the spacebar to start the task",target4,stimuli/t4.jpg,38,37,stimuli/target4_1.jpg,target,TRUE,space,,,,,,,,,,,,,,0,0,0,0,,,,,0,1,1,3,0,36,36,36,,,,,,,,,,,,,,,,,,,,,,,,,,,,,,,,,,,,,,,,,,,,,,,,,,,,,CS1_USneg,space,1,0.750760811,,,,,,,,,,,,,,,,,20,f ,38,n,2019_Oct_08_1506,ec_RRR,3.0.4,60.007
Kurdi and Ferguson,"For this task, the target creature is Palpitoad:","So whenever Palpitoad (his name or his picture) appears on the screen, hit the spacebar as quickly as possible. Hit the spacebar whenever you see an image of Palpitoad or the word PALPITOAD. 

Press the spacebar to start the task",target4,stimuli/t4.jpg,38,38,stimuli/filler36.jpg,filler,FALSE,None,,,,,,,,,,,,,,0,0,0,0,,,,,0,1,1,3,0,37,37,37,,,,,,,,,,,,,,,,,,,,,,,,,,,,,,,,,,,,,,,,,,,,,,,,,,,,,CS1_USneg,None,1,,,,,,,,,,,,,,,,,,20,f ,38,n,2019_Oct_08_1506,ec_RRR,3.0.4,60.007
Kurdi and Ferguson,"For this task, the target creature is Palpitoad:","So whenever Palpitoad (his name or his picture) appears on the screen, hit the spacebar as quickly as possible. Hit the spacebar whenever you see an image of Palpitoad or the word PALPITOAD. 

Press the spacebar to start the task",target4,stimuli/t4.jpg,38,39,stimuli/target4_3.jpg,target,TRUE,space,,,,,,,,,,,,,,0,0,0,0,,,,,0,1,1,3,0,38,38,38,,,,,,,,,,,,,,,,,,,,,,,,,,,,,,,,,,,,,,,,,,,,,,,,,,,,,CS1_USneg,space,1,0.769026022,,,,,,,,,,,,,,,,,20,f ,38,n,2019_Oct_08_1506,ec_RRR,3.0.4,60.007
Kurdi and Ferguson,"For this task, the target creature is Palpitoad:","So whenever Palpitoad (his name or his picture) appears on the screen, hit the spacebar as quickly as possible. Hit the spacebar whenever you see an image of Palpitoad or the word PALPITOAD. 

Press the spacebar to start the task",target4,stimuli/t4.jpg,38,40,stimuli/blank.jpg,blank,FALSE,None,,,,,,,,,,,,,,0,0,0,0,,,,,0,1,1,3,0,39,39,39,,,,,,,,,,,,,,,,,,,,,,,,,,,,,,,,,,,,,,,,,,,,,,,,,,,,,CS1_USneg,None,1,,,,,,,,,,,,,,,,,,20,f ,38,n,2019_Oct_08_1506,ec_RRR,3.0.4,60.007
Kurdi and Ferguson,"For this task, the target creature is Palpitoad:","So whenever Palpitoad (his name or his picture) appears on the screen, hit the spacebar as quickly as possible. Hit the spacebar whenever you see an image of Palpitoad or the word PALPITOAD. 

Press the spacebar to start the task",target4,stimuli/t4.jpg,38,41,stimuli/cs2_pos15.jpg,CSUS,FALSE,None,,,,,,,,,,,,,,0,0,0,0,,,,,0,1,1,3,0,40,40,40,,,,,,,,,,,,,,,,,,,,,,,,,,,,,,,,,,,,,,,,,,,,,,,,,,,,,CS1_USneg,None,1,,,,,,,,,,,,,,,,,,20,f ,38,n,2019_Oct_08_1506,ec_RRR,3.0.4,60.007
Kurdi and Ferguson,"For this task, the target creature is Palpitoad:","So whenever Palpitoad (his name or his picture) appears on the screen, hit the spacebar as quickly as possible. Hit the spacebar whenever you see an image of Palpitoad or the word PALPITOAD. 

Press the spacebar to start the task",target4,stimuli/t4.jpg,38,42,stimuli/blank.jpg,blank,FALSE,None,,,,,,,,,,,,,,0,0,0,0,,,,,0,1,1,3,0,41,41,41,,,,,,,,,,,,,,,,,,,,,,,,,,,,,,,,,,,,,,,,,,,,,,,,,,,,,CS1_USneg,None,1,,,,,,,,,,,,,,,,,,20,f ,38,n,2019_Oct_08_1506,ec_RRR,3.0.4,60.007
Kurdi and Ferguson,"For this task, the target creature is Palpitoad:","So whenever Palpitoad (his name or his picture) appears on the screen, hit the spacebar as quickly as possible. Hit the spacebar whenever you see an image of Palpitoad or the word PALPITOAD. 

Press the spacebar to start the task",target4,stimuli/t4.jpg,38,43,stimuli/filler1.jpg,filler,FALSE,None,,,,,,,,,,,,,,0,0,0,0,,,,,0,1,1,3,0,42,42,42,,,,,,,,,,,,,,,,,,,,,,,,,,,,,,,,,,,,,,,,,,,,,,,,,,,,,CS1_USneg,None,1,,,,,,,,,,,,,,,,,,20,f ,38,n,2019_Oct_08_1506,ec_RRR,3.0.4,60.007
Kurdi and Ferguson,"For this task, the target creature is Palpitoad:","So whenever Palpitoad (his name or his picture) appears on the screen, hit the spacebar as quickly as possible. Hit the spacebar whenever you see an image of Palpitoad or the word PALPITOAD. 

Press the spacebar to start the task",target4,stimuli/t4.jpg,38,44,stimuli/filler38.jpg,filler,FALSE,None,,,,,,,,,,,,,,0,0,0,0,,,,,0,1,1,3,0,43,43,43,,,,,,,,,,,,,,,,,,,,,,,,,,,,,,,,,,,,,,,,,,,,,,,,,,,,,CS1_USneg,None,1,,,,,,,,,,,,,,,,,,20,f ,38,n,2019_Oct_08_1506,ec_RRR,3.0.4,60.007
Kurdi and Ferguson,"For this task, the target creature is Palpitoad:","So whenever Palpitoad (his name or his picture) appears on the screen, hit the spacebar as quickly as possible. Hit the spacebar whenever you see an image of Palpitoad or the word PALPITOAD. 

Press the spacebar to start the task",target4,stimuli/t4.jpg,38,45,stimuli/filler8.jpg,filler,FALSE,None,,,,,,,,,,,,,,0,0,0,0,,,,,0,1,1,3,0,44,44,44,,,,,,,,,,,,,,,,,,,,,,,,,,,,,,,,,,,,,,,,,,,,,,,,,,,,,CS1_USneg,None,1,,,,,,,,,,,,,,,,,,20,f ,38,n,2019_Oct_08_1506,ec_RRR,3.0.4,60.007
Kurdi and Ferguson,"For this task, the target creature is Palpitoad:","So whenever Palpitoad (his name or his picture) appears on the screen, hit the spacebar as quickly as possible. Hit the spacebar whenever you see an image of Palpitoad or the word PALPITOAD. 

Press the spacebar to start the task",target4,stimuli/t4.jpg,38,46,stimuli/filler29.jpg,filler,FALSE,None,,,,,,,,,,,,,,0,0,0,0,,,,,0,1,1,3,0,45,45,45,,,,,,,,,,,,,,,,,,,,,,,,,,,,,,,,,,,,,,,,,,,,,,,,,,,,,CS1_USneg,None,1,,,,,,,,,,,,,,,,,,20,f ,38,n,2019_Oct_08_1506,ec_RRR,3.0.4,60.007
Kurdi and Ferguson,"For this task, the target creature is Palpitoad:","So whenever Palpitoad (his name or his picture) appears on the screen, hit the spacebar as quickly as possible. Hit the spacebar whenever you see an image of Palpitoad or the word PALPITOAD. 

Press the spacebar to start the task",target4,stimuli/t4.jpg,38,47,stimuli/target4_4.jpg,target,TRUE,space,,,,,,,,,,,,,,0,0,0,0,,,,,0,1,1,3,0,46,46,46,,,,,,,,,,,,,,,,,,,,,,,,,,,,,,,,,,,,,,,,,,,,,,,,,,,,,CS1_USneg,space,1,0.600241178,,,,,,,,,,,,,,,,,20,f ,38,n,2019_Oct_08_1506,ec_RRR,3.0.4,60.007
Kurdi and Ferguson,"For this task, the target creature is Palpitoad:","So whenever Palpitoad (his name or his picture) appears on the screen, hit the spacebar as quickly as possible. Hit the spacebar whenever you see an image of Palpitoad or the word PALPITOAD. 

Press the spacebar to start the task",target4,stimuli/t4.jpg,38,48,stimuli/filler30.jpg,filler,FALSE,None,,,,,,,,,,,,,,0,0,0,0,,,,,0,1,1,3,0,47,47,47,,,,,,,,,,,,,,,,,,,,,,,,,,,,,,,,,,,,,,,,,,,,,,,,,,,,,CS1_USneg,None,1,,,,,,,,,,,,,,,,,,20,f ,38,n,2019_Oct_08_1506,ec_RRR,3.0.4,60.007
Kurdi and Ferguson,"For this task, the target creature is Palpitoad:","So whenever Palpitoad (his name or his picture) appears on the screen, hit the spacebar as quickly as possible. Hit the spacebar whenever you see an image of Palpitoad or the word PALPITOAD. 

Press the spacebar to start the task",target4,stimuli/t4.jpg,38,49,stimuli/filler17.jpg,filler,FALSE,None,,,,,,,,,,,,,,0,0,0,0,,,,,0,1,1,3,0,48,48,48,,,,,,,,,,,,,,,,,,,,,,,,,,,,,,,,,,,,,,,,,,,,,,,,,,,,,CS1_USneg,None,1,,,,,,,,,,,,,,,,,,20,f ,38,n,2019_Oct_08_1506,ec_RRR,3.0.4,60.007
Kurdi and Ferguson,"For this task, the target creature is Palpitoad:","So whenever Palpitoad (his name or his picture) appears on the screen, hit the spacebar as quickly as possible. Hit the spacebar whenever you see an image of Palpitoad or the word PALPITOAD. 

Press the spacebar to start the task",target4,stimuli/t4.jpg,38,50,stimuli/blank.jpg,blank,FALSE,None,,,,,,,,,,,,,,0,0,0,0,,,,,0,1,1,3,0,49,49,49,,,,,,,,,,,,,,,,,,,,,,,,,,,,,,,,,,,,,,,,,,,,,,,,,,,,,CS1_USneg,None,1,,,,,,,,,,,,,,,,,,20,f ,38,n,2019_Oct_08_1506,ec_RRR,3.0.4,60.007
Kurdi and Ferguson,"For this task, the target creature is Palpitoad:","So whenever Palpitoad (his name or his picture) appears on the screen, hit the spacebar as quickly as possible. Hit the spacebar whenever you see an image of Palpitoad or the word PALPITOAD. 

Press the spacebar to start the task",target4,stimuli/t4.jpg,38,51,stimuli/cs1_neg3.jpg,CSUS,FALSE,None,,,,,,,,,,,,,,0,0,0,0,,,,,0,1,1,3,0,50,50,50,,,,,,,,,,,,,,,,,,,,,,,,,,,,,,,,,,,,,,,,,,,,,,,,,,,,,CS1_USneg,None,1,,,,,,,,,,,,,,,,,,20,f ,38,n,2019_Oct_08_1506,ec_RRR,3.0.4,60.007
Kurdi and Ferguson,"For this task, the target creature is Palpitoad:","So whenever Palpitoad (his name or his picture) appears on the screen, hit the spacebar as quickly as possible. Hit the spacebar whenever you see an image of Palpitoad or the word PALPITOAD. 

Press the spacebar to start the task",target4,stimuli/t4.jpg,38,52,stimuli/blank.jpg,blank,FALSE,None,,,,,,,,,,,,,,0,0,0,0,,,,,0,1,1,3,0,51,51,51,,,,,,,,,,,,,,,,,,,,,,,,,,,,,,,,,,,,,,,,,,,,,,,,,,,,,CS1_USneg,None,1,,,,,,,,,,,,,,,,,,20,f ,38,n,2019_Oct_08_1506,ec_RRR,3.0.4,60.007
Kurdi and Ferguson,"For this task, the target creature is Palpitoad:","So whenever Palpitoad (his name or his picture) appears on the screen, hit the spacebar as quickly as possible. Hit the spacebar whenever you see an image of Palpitoad or the word PALPITOAD. 

Press the spacebar to start the task",target4,stimuli/t4.jpg,38,53,stimuli/filler19.jpg,filler,FALSE,None,,,,,,,,,,,,,,0,0,0,0,,,,,0,1,1,3,0,52,52,52,,,,,,,,,,,,,,,,,,,,,,,,,,,,,,,,,,,,,,,,,,,,,,,,,,,,,CS1_USneg,None,1,,,,,,,,,,,,,,,,,,20,f ,38,n,2019_Oct_08_1506,ec_RRR,3.0.4,60.007
Kurdi and Ferguson,"For this task, the target creature is Palpitoad:","So whenever Palpitoad (his name or his picture) appears on the screen, hit the spacebar as quickly as possible. Hit the spacebar whenever you see an image of Palpitoad or the word PALPITOAD. 

Press the spacebar to start the task",target4,stimuli/t4.jpg,38,54,stimuli/filler40.jpg,filler,FALSE,None,,,,,,,,,,,,,,0,0,0,0,,,,,0,1,1,3,0,53,53,53,,,,,,,,,,,,,,,,,,,,,,,,,,,,,,,,,,,,,,,,,,,,,,,,,,,,,CS1_USneg,None,1,,,,,,,,,,,,,,,,,,20,f ,38,n,2019_Oct_08_1506,ec_RRR,3.0.4,60.007
Kurdi and Ferguson,"For this task, the target creature is Palpitoad:","So whenever Palpitoad (his name or his picture) appears on the screen, hit the spacebar as quickly as possible. Hit the spacebar whenever you see an image of Palpitoad or the word PALPITOAD. 

Press the spacebar to start the task",target4,stimuli/t4.jpg,38,55,stimuli/filler35.jpg,filler,FALSE,None,,,,,,,,,,,,,,0,0,0,0,,,,,0,1,1,3,0,54,54,54,,,,,,,,,,,,,,,,,,,,,,,,,,,,,,,,,,,,,,,,,,,,,,,,,,,,,CS1_USneg,None,1,,,,,,,,,,,,,,,,,,20,f ,38,n,2019_Oct_08_1506,ec_RRR,3.0.4,60.007
Kurdi and Ferguson,"For this task, the target creature is Palpitoad:","So whenever Palpitoad (his name or his picture) appears on the screen, hit the spacebar as quickly as possible. Hit the spacebar whenever you see an image of Palpitoad or the word PALPITOAD. 

Press the spacebar to start the task",target4,stimuli/t4.jpg,38,56,stimuli/filler16.jpg,filler,FALSE,None,,,,,,,,,,,,,,0,0,0,0,,,,,0,1,1,3,0,55,55,55,,,,,,,,,,,,,,,,,,,,,,,,,,,,,,,,,,,,,,,,,,,,,,,,,,,,,CS1_USneg,None,1,,,,,,,,,,,,,,,,,,20,f ,38,n,2019_Oct_08_1506,ec_RRR,3.0.4,60.007
Kurdi and Ferguson,"For this task, the target creature is Palpitoad:","So whenever Palpitoad (his name or his picture) appears on the screen, hit the spacebar as quickly as possible. Hit the spacebar whenever you see an image of Palpitoad or the word PALPITOAD. 

Press the spacebar to start the task",target4,stimuli/t4.jpg,38,57,stimuli/target4_10.jpg,target,TRUE,space,,,,,,,,,,,,,,0,0,0,0,,,,,0,1,1,3,0,56,56,56,,,,,,,,,,,,,,,,,,,,,,,,,,,,,,,,,,,,,,,,,,,,,,,,,,,,,CS1_USneg,space,1,0.600548159,,,,,,,,,,,,,,,,,20,f ,38,n,2019_Oct_08_1506,ec_RRR,3.0.4,60.007
Kurdi and Ferguson,"For this task, the target creature is Palpitoad:","So whenever Palpitoad (his name or his picture) appears on the screen, hit the spacebar as quickly as possible. Hit the spacebar whenever you see an image of Palpitoad or the word PALPITOAD. 

Press the spacebar to start the task",target4,stimuli/t4.jpg,38,58,stimuli/filler48.jpg,filler,FALSE,None,,,,,,,,,,,,,,0,0,0,0,,,,,0,1,1,3,0,57,57,57,,,,,,,,,,,,,,,,,,,,,,,,,,,,,,,,,,,,,,,,,,,,,,,,,,,,,CS1_USneg,None,1,,,,,,,,,,,,,,,,,,20,f ,38,n,2019_Oct_08_1506,ec_RRR,3.0.4,60.007
Kurdi and Ferguson,"For this task, the target creature is Palpitoad:","So whenever Palpitoad (his name or his picture) appears on the screen, hit the spacebar as quickly as possible. Hit the spacebar whenever you see an image of Palpitoad or the word PALPITOAD. 

Press the spacebar to start the task",target4,stimuli/t4.jpg,38,59,stimuli/filler14.jpg,filler,FALSE,None,,,,,,,,,,,,,,0,0,0,0,,,,,0,1,1,3,0,58,58,58,,,,,,,,,,,,,,,,,,,,,,,,,,,,,,,,,,,,,,,,,,,,,,,,,,,,,CS1_USneg,None,1,,,,,,,,,,,,,,,,,,20,f ,38,n,2019_Oct_08_1506,ec_RRR,3.0.4,60.007
Kurdi and Ferguson,"For this task, the target creature is Palpitoad:","So whenever Palpitoad (his name or his picture) appears on the screen, hit the spacebar as quickly as possible. Hit the spacebar whenever you see an image of Palpitoad or the word PALPITOAD. 

Press the spacebar to start the task",target4,stimuli/t4.jpg,38,60,stimuli/blank.jpg,blank,FALSE,None,,,,,,,,,,,,,,0,0,0,0,,,,,0,1,1,3,0,59,59,59,,,,,,,,,,,,,,,,,,,,,,,,,,,,,,,,,,,,,,,,,,,,,,,,,,,,,CS1_USneg,None,1,,,,,,,,,,,,,,,,,,20,f ,38,n,2019_Oct_08_1506,ec_RRR,3.0.4,60.007
Kurdi and Ferguson,"For this task, the target creature is Palpitoad:","So whenever Palpitoad (his name or his picture) appears on the screen, hit the spacebar as quickly as possible. Hit the spacebar whenever you see an image of Palpitoad or the word PALPITOAD. 

Press the spacebar to start the task",target4,stimuli/t4.jpg,38,61,stimuli/cs2_pos18.jpg,CSUS,FALSE,None,,,,,,,,,,,,,,0,0,0,0,,,,,0,1,1,3,0,60,60,60,,,,,,,,,,,,,,,,,,,,,,,,,,,,,,,,,,,,,,,,,,,,,,,,,,,,,CS1_USneg,None,1,,,,,,,,,,,,,,,,,,20,f ,38,n,2019_Oct_08_1506,ec_RRR,3.0.4,60.007
Kurdi and Ferguson,"For this task, the target creature is Palpitoad:","So whenever Palpitoad (his name or his picture) appears on the screen, hit the spacebar as quickly as possible. Hit the spacebar whenever you see an image of Palpitoad or the word PALPITOAD. 

Press the spacebar to start the task",target4,stimuli/t4.jpg,38,62,stimuli/blank.jpg,blank,FALSE,None,,,,,,,,,,,,,,0,0,0,0,,,,,0,1,1,3,0,61,61,61,,,,,,,,,,,,,,,,,,,,,,,,,,,,,,,,,,,,,,,,,,,,,,,,,,,,,CS1_USneg,None,1,,,,,,,,,,,,,,,,,,20,f ,38,n,2019_Oct_08_1506,ec_RRR,3.0.4,60.007
Kurdi and Ferguson,"For this task, the target creature is Palpitoad:","So whenever Palpitoad (his name or his picture) appears on the screen, hit the spacebar as quickly as possible. Hit the spacebar whenever you see an image of Palpitoad or the word PALPITOAD. 

Press the spacebar to start the task",target4,stimuli/t4.jpg,38,63,stimuli/filler9.jpg,filler,FALSE,None,,,,,,,,,,,,,,0,0,0,0,,,,,0,1,1,3,0,62,62,62,,,,,,,,,,,,,,,,,,,,,,,,,,,,,,,,,,,,,,,,,,,,,,,,,,,,,CS1_USneg,None,1,,,,,,,,,,,,,,,,,,20,f ,38,n,2019_Oct_08_1506,ec_RRR,3.0.4,60.007
Kurdi and Ferguson,"For this task, the target creature is Palpitoad:","So whenever Palpitoad (his name or his picture) appears on the screen, hit the spacebar as quickly as possible. Hit the spacebar whenever you see an image of Palpitoad or the word PALPITOAD. 

Press the spacebar to start the task",target4,stimuli/t4.jpg,38,64,stimuli/filler2.jpg,filler,FALSE,None,,,,,,,,,,,,,,0,0,0,0,,,,,0,1,1,3,0,63,63,63,,,,,,,,,,,,,,,,,,,,,,,,,,,,,,,,,,,,,,,,,,,,,,,,,,,,,CS1_USneg,None,1,,,,,,,,,,,,,,,,,,20,f ,38,n,2019_Oct_08_1506,ec_RRR,3.0.4,60.007
Kurdi and Ferguson,"For this task, the target creature is Palpitoad:","So whenever Palpitoad (his name or his picture) appears on the screen, hit the spacebar as quickly as possible. Hit the spacebar whenever you see an image of Palpitoad or the word PALPITOAD. 

Press the spacebar to start the task",target4,stimuli/t4.jpg,38,65,stimuli/filler6.jpg,filler,FALSE,None,,,,,,,,,,,,,,0,0,0,0,,,,,0,1,1,3,0,64,64,64,,,,,,,,,,,,,,,,,,,,,,,,,,,,,,,,,,,,,,,,,,,,,,,,,,,,,CS1_USneg,None,1,,,,,,,,,,,,,,,,,,20,f ,38,n,2019_Oct_08_1506,ec_RRR,3.0.4,60.007
Kurdi and Ferguson,"For this task, the target creature is Palpitoad:","So whenever Palpitoad (his name or his picture) appears on the screen, hit the spacebar as quickly as possible. Hit the spacebar whenever you see an image of Palpitoad or the word PALPITOAD. 

Press the spacebar to start the task",target4,stimuli/t4.jpg,38,66,stimuli/filler33.jpg,filler,FALSE,None,,,,,,,,,,,,,,0,0,0,0,,,,,0,1,1,3,0,65,65,65,,,,,,,,,,,,,,,,,,,,,,,,,,,,,,,,,,,,,,,,,,,,,,,,,,,,,CS1_USneg,None,1,,,,,,,,,,,,,,,,,,20,f ,38,n,2019_Oct_08_1506,ec_RRR,3.0.4,60.007
Kurdi and Ferguson,"For this task, the target creature is Palpitoad:","So whenever Palpitoad (his name or his picture) appears on the screen, hit the spacebar as quickly as possible. Hit the spacebar whenever you see an image of Palpitoad or the word PALPITOAD. 

Press the spacebar to start the task",target4,stimuli/t4.jpg,38,67,stimuli/filler39.jpg,filler,FALSE,None,,,,,,,,,,,,,,0,0,0,0,,,,,0,1,1,3,0,66,66,66,,,,,,,,,,,,,,,,,,,,,,,,,,,,,,,,,,,,,,,,,,,,,,,,,,,,,CS1_USneg,None,1,,,,,,,,,,,,,,,,,,20,f ,38,n,2019_Oct_08_1506,ec_RRR,3.0.4,60.007
Kurdi and Ferguson,"For this task, the target creature is Palpitoad:","So whenever Palpitoad (his name or his picture) appears on the screen, hit the spacebar as quickly as possible. Hit the spacebar whenever you see an image of Palpitoad or the word PALPITOAD. 

Press the spacebar to start the task",target4,stimuli/t4.jpg,38,68,stimuli/filler22.jpg,filler,FALSE,None,,,,,,,,,,,,,,0,0,0,0,,,,,0,1,1,3,0,67,67,67,,,,,,,,,,,,,,,,,,,,,,,,,,,,,,,,,,,,,,,,,,,,,,,,,,,,,CS1_USneg,None,1,,,,,,,,,,,,,,,,,,20,f ,38,n,2019_Oct_08_1506,ec_RRR,3.0.4,60.007
Kurdi and Ferguson,"For this task, the target creature is Palpitoad:","So whenever Palpitoad (his name or his picture) appears on the screen, hit the spacebar as quickly as possible. Hit the spacebar whenever you see an image of Palpitoad or the word PALPITOAD. 

Press the spacebar to start the task",target4,stimuli/t4.jpg,38,69,stimuli/target4_5.jpg,target,TRUE,space,,,,,,,,,,,,,,0,0,0,0,,,,,0,1,1,3,0,68,68,68,,,,,,,,,,,,,,,,,,,,,,,,,,,,,,,,,,,,,,,,,,,,,,,,,,,,,CS1_USneg,space,1,0.682617095,,,,,,,,,,,,,,,,,20,f ,38,n,2019_Oct_08_1506,ec_RRR,3.0.4,60.007
Kurdi and Ferguson,"For this task, the target creature is Palpitoad:","So whenever Palpitoad (his name or his picture) appears on the screen, hit the spacebar as quickly as possible. Hit the spacebar whenever you see an image of Palpitoad or the word PALPITOAD. 

Press the spacebar to start the task",target4,stimuli/t4.jpg,38,70,stimuli/blank.jpg,blank,FALSE,None,,,,,,,,,,,,,,0,0,0,0,,,,,0,1,1,3,0,69,69,69,,,,,,,,,,,,,,,,,,,,,,,,,,,,,,,,,,,,,,,,,,,,,,,,,,,,,CS1_USneg,None,1,,,,,,,,,,,,,,,,,,20,f ,38,n,2019_Oct_08_1506,ec_RRR,3.0.4,60.007
Kurdi and Ferguson,"For this task, the target creature is Palpitoad:","So whenever Palpitoad (his name or his picture) appears on the screen, hit the spacebar as quickly as possible. Hit the spacebar whenever you see an image of Palpitoad or the word PALPITOAD. 

Press the spacebar to start the task",target4,stimuli/t4.jpg,38,71,stimuli/cs1_neg2.jpg,CSUS,FALSE,None,,,,,,,,,,,,,,0,0,0,0,,,,,0,1,1,3,0,70,70,70,,,,,,,,,,,,,,,,,,,,,,,,,,,,,,,,,,,,,,,,,,,,,,,,,,,,,CS1_USneg,None,1,,,,,,,,,,,,,,,,,,20,f ,38,n,2019_Oct_08_1506,ec_RRR,3.0.4,60.007
Kurdi and Ferguson,"For this task, the target creature is Palpitoad:","So whenever Palpitoad (his name or his picture) appears on the screen, hit the spacebar as quickly as possible. Hit the spacebar whenever you see an image of Palpitoad or the word PALPITOAD. 

Press the spacebar to start the task",target4,stimuli/t4.jpg,38,72,stimuli/blank.jpg,blank,FALSE,None,,,,,,,,,,,,,,0,0,0,0,,,,,0,1,1,3,0,71,71,71,,,,,,,,,,,,,,,,,,,,,,,,,,,,,,,,,,,,,,,,,,,,,,,,,,,,,CS1_USneg,None,1,,,,,,,,,,,,,,,,,,20,f ,38,n,2019_Oct_08_1506,ec_RRR,3.0.4,60.007
Kurdi and Ferguson,"For this task, the target creature is Palpitoad:","So whenever Palpitoad (his name or his picture) appears on the screen, hit the spacebar as quickly as possible. Hit the spacebar whenever you see an image of Palpitoad or the word PALPITOAD. 

Press the spacebar to start the task",target4,stimuli/t4.jpg,38,73,stimuli/target4_6.jpg,target,TRUE,space,,,,,,,,,,,,,,0,0,0,0,,,,,0,1,1,3,0,72,72,72,,,,,,,,,,,,,,,,,,,,,,,,,,,,,,,,,,,,,,,,,,,,,,,,,,,,,CS1_USneg,space,1,0.71699201,,,,,,,,,,,,,,,,,20,f ,38,n,2019_Oct_08_1506,ec_RRR,3.0.4,60.007
Kurdi and Ferguson,"For this task, the target creature is Palpitoad:","So whenever Palpitoad (his name or his picture) appears on the screen, hit the spacebar as quickly as possible. Hit the spacebar whenever you see an image of Palpitoad or the word PALPITOAD. 

Press the spacebar to start the task",target4,stimuli/t4.jpg,38,74,stimuli/filler31.jpg,filler,FALSE,None,,,,,,,,,,,,,,0,0,0,0,,,,,0,1,1,3,0,73,73,73,,,,,,,,,,,,,,,,,,,,,,,,,,,,,,,,,,,,,,,,,,,,,,,,,,,,,CS1_USneg,None,1,,,,,,,,,,,,,,,,,,20,f ,38,n,2019_Oct_08_1506,ec_RRR,3.0.4,60.007
Kurdi and Ferguson,"For this task, the target creature is Palpitoad:","So whenever Palpitoad (his name or his picture) appears on the screen, hit the spacebar as quickly as possible. Hit the spacebar whenever you see an image of Palpitoad or the word PALPITOAD. 

Press the spacebar to start the task",target4,stimuli/t4.jpg,38,75,stimuli/filler34.jpg,filler,FALSE,None,,,,,,,,,,,,,,0,0,0,0,,,,,0,1,1,3,0,74,74,74,,,,,,,,,,,,,,,,,,,,,,,,,,,,,,,,,,,,,,,,,,,,,,,,,,,,,CS1_USneg,None,1,,,,,,,,,,,,,,,,,,20,f ,38,n,2019_Oct_08_1506,ec_RRR,3.0.4,60.007
Kurdi and Ferguson,"For this task, the target creature is Palpitoad:","So whenever Palpitoad (his name or his picture) appears on the screen, hit the spacebar as quickly as possible. Hit the spacebar whenever you see an image of Palpitoad or the word PALPITOAD. 

Press the spacebar to start the task",target4,stimuli/t4.jpg,38,76,stimuli/filler3.jpg,filler,FALSE,None,,,,,,,,,,,,,,0,0,0,0,,,,,0,1,1,3,0,75,75,75,,,,,,,,,,,,,,,,,,,,,,,,,,,,,,,,,,,,,,,,,,,,,,,,,,,,,CS1_USneg,None,1,,,,,,,,,,,,,,,,,,20,f ,38,n,2019_Oct_08_1506,ec_RRR,3.0.4,60.007
Kurdi and Ferguson,"For this task, the target creature is Palpitoad:","So whenever Palpitoad (his name or his picture) appears on the screen, hit the spacebar as quickly as possible. Hit the spacebar whenever you see an image of Palpitoad or the word PALPITOAD. 

Press the spacebar to start the task",target4,stimuli/t4.jpg,38,77,stimuli/target4_8.jpg,target,TRUE,space,,,,,,,,,,,,,,0,0,0,0,,,,,0,1,1,3,0,76,76,76,,,,,,,,,,,,,,,,,,,,,,,,,,,,,,,,,,,,,,,,,,,,,,,,,,,,,CS1_USneg,space,1,0.616183959,,,,,,,,,,,,,,,,,20,f ,38,n,2019_Oct_08_1506,ec_RRR,3.0.4,60.007
Kurdi and Ferguson,"For this task, the target creature is Palpitoad:","So whenever Palpitoad (his name or his picture) appears on the screen, hit the spacebar as quickly as possible. Hit the spacebar whenever you see an image of Palpitoad or the word PALPITOAD. 

Press the spacebar to start the task",target4,stimuli/t4.jpg,38,78,stimuli/target4_9.jpg,target,TRUE,space,,,,,,,,,,,,,,0,0,0,0,,,,,0,1,1,3,0,77,77,77,,,,,,,,,,,,,,,,,,,,,,,,,,,,,,,,,,,,,,,,,,,,,,,,,,,,,CS1_USneg,space,1,0.633980398,,,,,,,,,,,,,,,,,20,f ,38,n,2019_Oct_08_1506,ec_RRR,3.0.4,60.007
Kurdi and Ferguson,"For this task, the target creature is Palpitoad:","So whenever Palpitoad (his name or his picture) appears on the screen, hit the spacebar as quickly as possible. Hit the spacebar whenever you see an image of Palpitoad or the word PALPITOAD. 

Press the spacebar to start the task",target4,stimuli/t4.jpg,38,79,stimuli/filler43.jpg,filler,FALSE,None,,,,,,,,,,,,,,0,0,0,0,,,,,0,1,1,3,0,78,78,78,,,,,,,,,,,,,,,,,,,,,,,,,,,,,,,,,,,,,,,,,,,,,,,,,,,,,CS1_USneg,None,1,,,,,,,,,,,,,,,,,,20,f ,38,n,2019_Oct_08_1506,ec_RRR,3.0.4,60.007
Kurdi and Ferguson,"For this task, the target creature is Palpitoad:","So whenever Palpitoad (his name or his picture) appears on the screen, hit the spacebar as quickly as possible. Hit the spacebar whenever you see an image of Palpitoad or the word PALPITOAD. 

Press the spacebar to start the task",target4,stimuli/t4.jpg,38,80,stimuli/blank.jpg,blank,FALSE,None,,,,,,,,,,,,,,0,0,0,0,,,,,0,1,1,3,0,79,79,79,,,,,,,,,,,,,,,,,,,,,,,,,,,,,,,,,,,,,,,,,,,,,,,,,,,,,CS1_USneg,None,1,,,,,,,,,,,,,,,,,,20,f ,38,n,2019_Oct_08_1506,ec_RRR,3.0.4,60.007
Kurdi and Ferguson,"For this task, the target creature is Palpitoad:","So whenever Palpitoad (his name or his picture) appears on the screen, hit the spacebar as quickly as possible. Hit the spacebar whenever you see an image of Palpitoad or the word PALPITOAD. 

Press the spacebar to start the task",target4,stimuli/t4.jpg,38,81,stimuli/cs2_pos2.jpg,CSUS,FALSE,None,,,,,,,,,,,,,,0,0,0,0,,,,,0,1,1,3,0,80,80,80,,,,,,,,,,,,,,,,,,,,,,,,,,,,,,,,,,,,,,,,,,,,,,,,,,,,,CS1_USneg,None,1,,,,,,,,,,,,,,,,,,20,f ,38,n,2019_Oct_08_1506,ec_RRR,3.0.4,60.007
Kurdi and Ferguson,"For this task, the target creature is Palpitoad:","So whenever Palpitoad (his name or his picture) appears on the screen, hit the spacebar as quickly as possible. Hit the spacebar whenever you see an image of Palpitoad or the word PALPITOAD. 

Press the spacebar to start the task",target4,stimuli/t4.jpg,38,82,stimuli/blank.jpg,blank,FALSE,None,,,,,,,,,,,,,,0,0,0,0,,,,,0,1,1,3,0,81,81,81,,,,,,,,,,,,,,,,,,,,,,,,,,,,,,,,,,,,,,,,,,,,,,,,,,,,,CS1_USneg,None,1,,,,,,,,,,,,,,,,,,20,f ,38,n,2019_Oct_08_1506,ec_RRR,3.0.4,60.007
Kurdi and Ferguson,"For this task, the target creature is Palpitoad:","So whenever Palpitoad (his name or his picture) appears on the screen, hit the spacebar as quickly as possible. Hit the spacebar whenever you see an image of Palpitoad or the word PALPITOAD. 

Press the spacebar to start the task",target4,stimuli/t4.jpg,38,83,stimuli/filler45.jpg,filler,FALSE,None,,,,,,,,,,,,,,0,0,0,0,,,,,0,1,1,3,0,82,82,82,,,,,,,,,,,,,,,,,,,,,,,,,,,,,,,,,,,,,,,,,,,,,,,,,,,,,CS1_USneg,None,1,,,,,,,,,,,,,,,,,,20,f ,38,n,2019_Oct_08_1506,ec_RRR,3.0.4,60.007
Kurdi and Ferguson,"For this task, the target creature is Palpitoad:","So whenever Palpitoad (his name or his picture) appears on the screen, hit the spacebar as quickly as possible. Hit the spacebar whenever you see an image of Palpitoad or the word PALPITOAD. 

Press the spacebar to start the task",target4,stimuli/t4.jpg,38,84,stimuli/filler44.jpg,filler,FALSE,None,,,,,,,,,,,,,,0,0,0,0,,,,,0,1,1,3,0,83,83,83,,,,,,,,,,,,,,,,,,,,,,,,,,,,,,,,,,,,,,,,,,,,,,,,,,,,,CS1_USneg,None,1,,,,,,,,,,,,,,,,,,20,f ,38,n,2019_Oct_08_1506,ec_RRR,3.0.4,60.007
Kurdi and Ferguson,"For this task, the target creature is Palpitoad:","So whenever Palpitoad (his name or his picture) appears on the screen, hit the spacebar as quickly as possible. Hit the spacebar whenever you see an image of Palpitoad or the word PALPITOAD. 

Press the spacebar to start the task",target4,stimuli/t4.jpg,38,85,stimuli/filler4.jpg,filler,FALSE,None,,,,,,,,,,,,,,0,0,0,0,,,,,0,1,1,3,0,84,84,84,,,,,,,,,,,,,,,,,,,,,,,,,,,,,,,,,,,,,,,,,,,,,,,,,,,,,CS1_USneg,None,1,,,,,,,,,,,,,,,,,,20,f ,38,n,2019_Oct_08_1506,ec_RRR,3.0.4,60.007
Kurdi and Ferguson,"For this task, the target creature is Palpitoad:","So whenever Palpitoad (his name or his picture) appears on the screen, hit the spacebar as quickly as possible. Hit the spacebar whenever you see an image of Palpitoad or the word PALPITOAD. 

Press the spacebar to start the task",target4,stimuli/t4.jpg,38,86,stimuli/filler21.jpg,filler,FALSE,None,,,,,,,,,,,,,,0,0,0,0,,,,,0,1,1,3,0,85,85,85,,,,,,,,,,,,,,,,,,,,,,,,,,,,,,,,,,,,,,,,,,,,,,,,,,,,,CS1_USneg,None,1,,,,,,,,,,,,,,,,,,20,f ,38,n,2019_Oct_08_1506,ec_RRR,3.0.4,60.007
Kurdi and Ferguson,"For this task, the target creature is Cranidos:","So whenever Cranidos (his name or his picture) appears on the screen, hit the spacebar as quickly as possible. Hit the spacebar whenever you see an image of Cranidos or the word CRANIDOS. 

Press the spacebar to start the task",target1,stimuli/t1.jpg,38,1,stimuli/filler41.jpg,filler,FALSE,None,,,,,,,,,,,,,,0,0,0,0,,,,,0,2,2,0,0,0,0,0,,,,,,,,,,,,,,,,,,,,,,,,,,,,,,,,,,,,,,,,,,,,,,,,,,,,,CS1_USneg,None,1,,,,,,,,,,,,,,,,,,20,f ,38,n,2019_Oct_08_1506,ec_RRR,3.0.4,60.007
Kurdi and Ferguson,"For this task, the target creature is Cranidos:","So whenever Cranidos (his name or his picture) appears on the screen, hit the spacebar as quickly as possible. Hit the spacebar whenever you see an image of Cranidos or the word CRANIDOS. 

Press the spacebar to start the task",target1,stimuli/t1.jpg,38,2,stimuli/target1_6.jpg,target,TRUE,space,,,,,,,,,,,,,,0,0,0,0,,,,,0,2,2,0,0,1,1,1,,,,,,,,,,,,,,,,,,,,,,,,,,,,,,,,,,,,,,,,,,,,,,,,,,,,,CS1_USneg,space,1,0.782878798,,,,,,,,,,,,,,,,,20,f ,38,n,2019_Oct_08_1506,ec_RRR,3.0.4,60.007
Kurdi and Ferguson,"For this task, the target creature is Cranidos:","So whenever Cranidos (his name or his picture) appears on the screen, hit the spacebar as quickly as possible. Hit the spacebar whenever you see an image of Cranidos or the word CRANIDOS. 

Press the spacebar to start the task",target1,stimuli/t1.jpg,38,3,stimuli/filler49.jpg,filler,FALSE,None,,,,,,,,,,,,,,0,0,0,0,,,,,0,2,2,0,0,2,2,2,,,,,,,,,,,,,,,,,,,,,,,,,,,,,,,,,,,,,,,,,,,,,,,,,,,,,CS1_USneg,None,1,,,,,,,,,,,,,,,,,,20,f ,38,n,2019_Oct_08_1506,ec_RRR,3.0.4,60.007
Kurdi and Ferguson,"For this task, the target creature is Cranidos:","So whenever Cranidos (his name or his picture) appears on the screen, hit the spacebar as quickly as possible. Hit the spacebar whenever you see an image of Cranidos or the word CRANIDOS. 

Press the spacebar to start the task",target1,stimuli/t1.jpg,38,4,stimuli/filler6.jpg,filler,FALSE,None,,,,,,,,,,,,,,0,0,0,0,,,,,0,2,2,0,0,3,3,3,,,,,,,,,,,,,,,,,,,,,,,,,,,,,,,,,,,,,,,,,,,,,,,,,,,,,CS1_USneg,None,1,,,,,,,,,,,,,,,,,,20,f ,38,n,2019_Oct_08_1506,ec_RRR,3.0.4,60.007
Kurdi and Ferguson,"For this task, the target creature is Cranidos:","So whenever Cranidos (his name or his picture) appears on the screen, hit the spacebar as quickly as possible. Hit the spacebar whenever you see an image of Cranidos or the word CRANIDOS. 

Press the spacebar to start the task",target1,stimuli/t1.jpg,38,5,stimuli/filler7.jpg,filler,FALSE,None,,,,,,,,,,,,,,0,0,0,0,,,,,0,2,2,0,0,4,4,4,,,,,,,,,,,,,,,,,,,,,,,,,,,,,,,,,,,,,,,,,,,,,,,,,,,,,CS1_USneg,None,1,,,,,,,,,,,,,,,,,,20,f ,38,n,2019_Oct_08_1506,ec_RRR,3.0.4,60.007
Kurdi and Ferguson,"For this task, the target creature is Cranidos:","So whenever Cranidos (his name or his picture) appears on the screen, hit the spacebar as quickly as possible. Hit the spacebar whenever you see an image of Cranidos or the word CRANIDOS. 

