data_collection_site,instructions_text_top,instructions_text_bottom,block_id,example_image,participant,trial_number,stimulus,trial_type,target_trial,surveillance_correct_response,filler_1_items,filler_2_items,middle_text,left_text,right_text,evaluation_stimulus,left_stimulus,right_stimulus,evaluation_response_indicating_CS1_preferred,awareness_1_question_text,awareness_2a_question_text,awareness_2b_question_text,awareness_2_question_text,record_data_collection_site_variable.thisRepN,record_data_collection_site_variable.thisTrialN,record_data_collection_site_variable.thisN,record_data_collection_site_variable.thisIndex,surveillance_instructions_loop.thisRepN,surveillance_instructions_loop.thisTrialN,surveillance_instructions_loop.thisN,surveillance_instructions_loop.thisIndex,surveillance_blocks_loop.thisRepN,surveillance_blocks_loop.thisTrialN,surveillance_blocks_loop.thisN,surveillance_blocks_loop.thisIndex,surveillance_trials_loop.thisRepN,surveillance_trials_loop.thisTrialN,surveillance_trials_loop.thisN,surveillance_trials_loop.thisIndex,filler_1_instructions_loop.thisRepN,filler_1_instructions_loop.thisTrialN,filler_1_instructions_loop.thisN,filler_1_instructions_loop.thisIndex,filler_1_loop.thisRepN,filler_1_loop.thisTrialN,filler_1_loop.thisN,filler_1_loop.thisIndex,filler_2_instructions_loop.thisRepN,filler_2_instructions_loop.thisTrialN,filler_2_instructions_loop.thisN,filler_2_instructions_loop.thisIndex,filler_2_loop.thisRepN,filler_2_loop.thisTrialN,filler_2_loop.thisN,filler_2_loop.thisIndex,evaluation_instructions_loop.thisRepN,evaluation_instructions_loop.thisTrialN,evaluation_instructions_loop.thisN,evaluation_instructions_loop.thisIndex,evaluation_loop.thisRepN,evaluation_loop.thisTrialN,evaluation_loop.thisN,evaluation_loop.thisIndex,evaluation_trials.thisRepN,evaluation_trials.thisTrialN,evaluation_trials.thisN,evaluation_trials.thisIndex,awareness_instructions_loop.thisRepN,awareness_instructions_loop.thisTrialN,awareness_instructions_loop.thisN,awareness_instructions_loop.thisIndex,awareness_1_trials_loop.thisRepN,awareness_1_trials_loop.thisTrialN,awareness_1_trials_loop.thisN,awareness_1_trials_loop.thisIndex,awareness_2a_trials_loop.thisRepN,awareness_2a_trials_loop.thisTrialN,awareness_2a_trials_loop.thisN,awareness_2a_trials_loop.thisIndex,awareness_2b_trials_loop.thisRepN,awareness_2b_trials_loop.thisTrialN,awareness_2b_trials_loop.thisN,awareness_2b_trials_loop.thisIndex,awareness_2c_trials_loop.thisRepN,awareness_2c_trials_loop.thisTrialN,awareness_2c_trials_loop.thisN,awareness_2c_trials_loop.thisIndex,end_message_loop.thisRepN,end_message_loop.thisTrialN,end_message_loop.thisN,end_message_loop.thisIndex,condition,surveillance_response.keys,surveillance_response.corr,surveillance_response.rt,filler_1_rating.response,filler_1_rating.rt,filler_2_rating.response,filler_2_rating.rt,evaluation_response.keys,evaluation_response.corr,evaluation_response.rt,inputText,awareness_1_response.keys,awareness_1_response.rt,awareness_type_2a_rating.response,awareness_type_2a_rating.rt,awareness_type_2b_rating.response,awareness_type_2b_rating.rt,awareness_type_2c_rating.response,awareness_type_2c_rating.rt,age,gender,participant,UseMonkey,date,expName,psychopyVersion,frameRate
Kurdi and Ferguson,"For this task, the target creature is Bergmite:","So whenever Bergmite (his name or his picture) appears on the screen, hit the spacebar as quickly as possible. Hit the spacebar whenever you see an image of Bergmite or the word BERGMITE. 

Press the spacebar to start the task",target3,stimuli/t3.jpg,42,1,stimuli/filler39.jpg,filler,FALSE,None,,,,,,,,,,,,,,0,0,0,0,,,,,0,0,0,2,0,0,0,0,,,,,,,,,,,,,,,,,,,,,,,,,,,,,,,,,,,,,,,,,,,,,,,,,,,,,CS1_USpos,None,1,,,,,,,,,,,,,,,,,,19,f,42,n,2019_Oct_10_1315,ec_RRR,3.0.4,60.007
Kurdi and Ferguson,"For this task, the target creature is Bergmite:","So whenever Bergmite (his name or his picture) appears on the screen, hit the spacebar as quickly as possible. Hit the spacebar whenever you see an image of Bergmite or the word BERGMITE. 

Press the spacebar to start the task",target3,stimuli/t3.jpg,42,2,stimuli/filler3.jpg,filler,FALSE,None,,,,,,,,,,,,,,0,0,0,0,,,,,0,0,0,2,0,1,1,1,,,,,,,,,,,,,,,,,,,,,,,,,,,,,,,,,,,,,,,,,,,,,,,,,,,,,CS1_USpos,None,1,,,,,,,,,,,,,,,,,,19,f,42,n,2019_Oct_10_1315,ec_RRR,3.0.4,60.007
Kurdi and Ferguson,"For this task, the target creature is Bergmite:","So whenever Bergmite (his name or his picture) appears on the screen, hit the spacebar as quickly as possible. Hit the spacebar whenever you see an image of Bergmite or the word BERGMITE. 

Press the spacebar to start the task",target3,stimuli/t3.jpg,42,3,stimuli/filler14.jpg,filler,FALSE,None,,,,,,,,,,,,,,0,0,0,0,,,,,0,0,0,2,0,2,2,2,,,,,,,,,,,,,,,,,,,,,,,,,,,,,,,,,,,,,,,,,,,,,,,,,,,,,CS1_USpos,None,1,,,,,,,,,,,,,,,,,,19,f,42,n,2019_Oct_10_1315,ec_RRR,3.0.4,60.007
Kurdi and Ferguson,"For this task, the target creature is Bergmite:","So whenever Bergmite (his name or his picture) appears on the screen, hit the spacebar as quickly as possible. Hit the spacebar whenever you see an image of Bergmite or the word BERGMITE. 

Press the spacebar to start the task",target3,stimuli/t3.jpg,42,4,stimuli/filler21.jpg,filler,FALSE,None,,,,,,,,,,,,,,0,0,0,0,,,,,0,0,0,2,0,3,3,3,,,,,,,,,,,,,,,,,,,,,,,,,,,,,,,,,,,,,,,,,,,,,,,,,,,,,CS1_USpos,None,1,,,,,,,,,,,,,,,,,,19,f,42,n,2019_Oct_10_1315,ec_RRR,3.0.4,60.007
Kurdi and Ferguson,"For this task, the target creature is Bergmite:","So whenever Bergmite (his name or his picture) appears on the screen, hit the spacebar as quickly as possible. Hit the spacebar whenever you see an image of Bergmite or the word BERGMITE. 

Press the spacebar to start the task",target3,stimuli/t3.jpg,42,5,stimuli/filler49.jpg,filler,FALSE,None,,,,,,,,,,,,,,0,0,0,0,,,,,0,0,0,2,0,4,4,4,,,,,,,,,,,,,,,,,,,,,,,,,,,,,,,,,,,,,,,,,,,,,,,,,,,,,CS1_USpos,None,1,,,,,,,,,,,,,,,,,,19,f,42,n,2019_Oct_10_1315,ec_RRR,3.0.4,60.007
Kurdi and Ferguson,"For this task, the target creature is Bergmite:","So whenever Bergmite (his name or his picture) appears on the screen, hit the spacebar as quickly as possible. Hit the spacebar whenever you see an image of Bergmite or the word BERGMITE. 

Press the spacebar to start the task",target3,stimuli/t3.jpg,42,6,stimuli/filler10.jpg,filler,FALSE,None,,,,,,,,,,,,,,0,0,0,0,,,,,0,0,0,2,0,5,5,5,,,,,,,,,,,,,,,,,,,,,,,,,,,,,,,,,,,,,,,,,,,,,,,,,,,,,CS1_USpos,None,1,,,,,,,,,,,,,,,,,,19,f,42,n,2019_Oct_10_1315,ec_RRR,3.0.4,60.007
Kurdi and Ferguson,"For this task, the target creature is Bergmite:","So whenever Bergmite (his name or his picture) appears on the screen, hit the spacebar as quickly as possible. Hit the spacebar whenever you see an image of Bergmite or the word BERGMITE. 

Press the spacebar to start the task",target3,stimuli/t3.jpg,42,7,stimuli/filler9.jpg,filler,FALSE,None,,,,,,,,,,,,,,0,0,0,0,,,,,0,0,0,2,0,6,6,6,,,,,,,,,,,,,,,,,,,,,,,,,,,,,,,,,,,,,,,,,,,,,,,,,,,,,CS1_USpos,None,1,,,,,,,,,,,,,,,,,,19,f,42,n,2019_Oct_10_1315,ec_RRR,3.0.4,60.007
Kurdi and Ferguson,"For this task, the target creature is Bergmite:","So whenever Bergmite (his name or his picture) appears on the screen, hit the spacebar as quickly as possible. Hit the spacebar whenever you see an image of Bergmite or the word BERGMITE. 

Press the spacebar to start the task",target3,stimuli/t3.jpg,42,8,stimuli/filler51.jpg,filler,FALSE,None,,,,,,,,,,,,,,0,0,0,0,,,,,0,0,0,2,0,7,7,7,,,,,,,,,,,,,,,,,,,,,,,,,,,,,,,,,,,,,,,,,,,,,,,,,,,,,CS1_USpos,None,1,,,,,,,,,,,,,,,,,,19,f,42,n,2019_Oct_10_1315,ec_RRR,3.0.4,60.007
Kurdi and Ferguson,"For this task, the target creature is Bergmite:","So whenever Bergmite (his name or his picture) appears on the screen, hit the spacebar as quickly as possible. Hit the spacebar whenever you see an image of Bergmite or the word BERGMITE. 

Press the spacebar to start the task",target3,stimuli/t3.jpg,42,9,stimuli/filler38.jpg,filler,FALSE,None,,,,,,,,,,,,,,0,0,0,0,,,,,0,0,0,2,0,8,8,8,,,,,,,,,,,,,,,,,,,,,,,,,,,,,,,,,,,,,,,,,,,,,,,,,,,,,CS1_USpos,None,1,,,,,,,,,,,,,,,,,,19,f,42,n,2019_Oct_10_1315,ec_RRR,3.0.4,60.007
Kurdi and Ferguson,"For this task, the target creature is Bergmite:","So whenever Bergmite (his name or his picture) appears on the screen, hit the spacebar as quickly as possible. Hit the spacebar whenever you see an image of Bergmite or the word BERGMITE. 

Press the spacebar to start the task",target3,stimuli/t3.jpg,42,10,stimuli/blank.jpg,blank,FALSE,None,,,,,,,,,,,,,,0,0,0,0,,,,,0,0,0,2,0,9,9,9,,,,,,,,,,,,,,,,,,,,,,,,,,,,,,,,,,,,,,,,,,,,,,,,,,,,,CS1_USpos,None,1,,,,,,,,,,,,,,,,,,19,f,42,n,2019_Oct_10_1315,ec_RRR,3.0.4,60.007
Kurdi and Ferguson,"For this task, the target creature is Bergmite:","So whenever Bergmite (his name or his picture) appears on the screen, hit the spacebar as quickly as possible. Hit the spacebar whenever you see an image of Bergmite or the word BERGMITE. 

Press the spacebar to start the task",target3,stimuli/t3.jpg,42,11,stimuli/cs1_pos2.jpg,CSUS,FALSE,None,,,,,,,,,,,,,,0,0,0,0,,,,,0,0,0,2,0,10,10,10,,,,,,,,,,,,,,,,,,,,,,,,,,,,,,,,,,,,,,,,,,,,,,,,,,,,,CS1_USpos,space,0,0.538737289,,,,,,,,,,,,,,,,,19,f,42,n,2019_Oct_10_1315,ec_RRR,3.0.4,60.007
Kurdi and Ferguson,"For this task, the target creature is Bergmite:","So whenever Bergmite (his name or his picture) appears on the screen, hit the spacebar as quickly as possible. Hit the spacebar whenever you see an image of Bergmite or the word BERGMITE. 

Press the spacebar to start the task",target3,stimuli/t3.jpg,42,12,stimuli/blank.jpg,blank,FALSE,None,,,,,,,,,,,,,,0,0,0,0,,,,,0,0,0,2,0,11,11,11,,,,,,,,,,,,,,,,,,,,,,,,,,,,,,,,,,,,,,,,,,,,,,,,,,,,,CS1_USpos,None,1,,,,,,,,,,,,,,,,,,19,f,42,n,2019_Oct_10_1315,ec_RRR,3.0.4,60.007
Kurdi and Ferguson,"For this task, the target creature is Bergmite:","So whenever Bergmite (his name or his picture) appears on the screen, hit the spacebar as quickly as possible. Hit the spacebar whenever you see an image of Bergmite or the word BERGMITE. 

Press the spacebar to start the task",target3,stimuli/t3.jpg,42,13,stimuli/target3_9.jpg,target,TRUE,space,,,,,,,,,,,,,,0,0,0,0,,,,,0,0,0,2,0,12,12,12,,,,,,,,,,,,,,,,,,,,,,,,,,,,,,,,,,,,,,,,,,,,,,,,,,,,,CS1_USpos,space,1,0.538257048,,,,,,,,,,,,,,,,,19,f,42,n,2019_Oct_10_1315,ec_RRR,3.0.4,60.007
Kurdi and Ferguson,"For this task, the target creature is Bergmite:","So whenever Bergmite (his name or his picture) appears on the screen, hit the spacebar as quickly as possible. Hit the spacebar whenever you see an image of Bergmite or the word BERGMITE. 

Press the spacebar to start the task",target3,stimuli/t3.jpg,42,14,stimuli/target3_7.jpg,target,TRUE,space,,,,,,,,,,,,,,0,0,0,0,,,,,0,0,0,2,0,13,13,13,,,,,,,,,,,,,,,,,,,,,,,,,,,,,,,,,,,,,,,,,,,,,,,,,,,,,CS1_USpos,space,1,0.768090919,,,,,,,,,,,,,,,,,19,f,42,n,2019_Oct_10_1315,ec_RRR,3.0.4,60.007
Kurdi and Ferguson,"For this task, the target creature is Bergmite:","So whenever Bergmite (his name or his picture) appears on the screen, hit the spacebar as quickly as possible. Hit the spacebar whenever you see an image of Bergmite or the word BERGMITE. 

Press the spacebar to start the task",target3,stimuli/t3.jpg,42,15,stimuli/filler29.jpg,filler,FALSE,None,,,,,,,,,,,,,,0,0,0,0,,,,,0,0,0,2,0,14,14,14,,,,,,,,,,,,,,,,,,,,,,,,,,,,,,,,,,,,,,,,,,,,,,,,,,,,,CS1_USpos,None,1,,,,,,,,,,,,,,,,,,19,f,42,n,2019_Oct_10_1315,ec_RRR,3.0.4,60.007
Kurdi and Ferguson,"For this task, the target creature is Bergmite:","So whenever Bergmite (his name or his picture) appears on the screen, hit the spacebar as quickly as possible. Hit the spacebar whenever you see an image of Bergmite or the word BERGMITE. 

Press the spacebar to start the task",target3,stimuli/t3.jpg,42,16,stimuli/filler40.jpg,filler,FALSE,None,,,,,,,,,,,,,,0,0,0,0,,,,,0,0,0,2,0,15,15,15,,,,,,,,,,,,,,,,,,,,,,,,,,,,,,,,,,,,,,,,,,,,,,,,,,,,,CS1_USpos,None,1,,,,,,,,,,,,,,,,,,19,f,42,n,2019_Oct_10_1315,ec_RRR,3.0.4,60.007
Kurdi and Ferguson,"For this task, the target creature is Bergmite:","So whenever Bergmite (his name or his picture) appears on the screen, hit the spacebar as quickly as possible. Hit the spacebar whenever you see an image of Bergmite or the word BERGMITE. 

Press the spacebar to start the task",target3,stimuli/t3.jpg,42,17,stimuli/filler44.jpg,filler,FALSE,None,,,,,,,,,,,,,,0,0,0,0,,,,,0,0,0,2,0,16,16,16,,,,,,,,,,,,,,,,,,,,,,,,,,,,,,,,,,,,,,,,,,,,,,,,,,,,,CS1_USpos,None,1,,,,,,,,,,,,,,,,,,19,f,42,n,2019_Oct_10_1315,ec_RRR,3.0.4,60.007
Kurdi and Ferguson,"For this task, the target creature is Bergmite:","So whenever Bergmite (his name or his picture) appears on the screen, hit the spacebar as quickly as possible. Hit the spacebar whenever you see an image of Bergmite or the word BERGMITE. 

Press the spacebar to start the task",target3,stimuli/t3.jpg,42,18,stimuli/filler15.jpg,filler,FALSE,None,,,,,,,,,,,,,,0,0,0,0,,,,,0,0,0,2,0,17,17,17,,,,,,,,,,,,,,,,,,,,,,,,,,,,,,,,,,,,,,,,,,,,,,,,,,,,,CS1_USpos,None,1,,,,,,,,,,,,,,,,,,19,f,42,n,2019_Oct_10_1315,ec_RRR,3.0.4,60.007
Kurdi and Ferguson,"For this task, the target creature is Bergmite:","So whenever Bergmite (his name or his picture) appears on the screen, hit the spacebar as quickly as possible. Hit the spacebar whenever you see an image of Bergmite or the word BERGMITE. 

Press the spacebar to start the task",target3,stimuli/t3.jpg,42,19,stimuli/filler35.jpg,filler,FALSE,None,,,,,,,,,,,,,,0,0,0,0,,,,,0,0,0,2,0,18,18,18,,,,,,,,,,,,,,,,,,,,,,,,,,,,,,,,,,,,,,,,,,,,,,,,,,,,,CS1_USpos,None,1,,,,,,,,,,,,,,,,,,19,f,42,n,2019_Oct_10_1315,ec_RRR,3.0.4,60.007
Kurdi and Ferguson,"For this task, the target creature is Bergmite:","So whenever Bergmite (his name or his picture) appears on the screen, hit the spacebar as quickly as possible. Hit the spacebar whenever you see an image of Bergmite or the word BERGMITE. 

Press the spacebar to start the task",target3,stimuli/t3.jpg,42,20,stimuli/blank.jpg,blank,FALSE,None,,,,,,,,,,,,,,0,0,0,0,,,,,0,0,0,2,0,19,19,19,,,,,,,,,,,,,,,,,,,,,,,,,,,,,,,,,,,,,,,,,,,,,,,,,,,,,CS1_USpos,None,1,,,,,,,,,,,,,,,,,,19,f,42,n,2019_Oct_10_1315,ec_RRR,3.0.4,60.007
Kurdi and Ferguson,"For this task, the target creature is Bergmite:","So whenever Bergmite (his name or his picture) appears on the screen, hit the spacebar as quickly as possible. Hit the spacebar whenever you see an image of Bergmite or the word BERGMITE. 

Press the spacebar to start the task",target3,stimuli/t3.jpg,42,21,stimuli/cs2_neg1.jpg,CSUS,FALSE,None,,,,,,,,,,,,,,0,0,0,0,,,,,0,0,0,2,0,20,20,20,,,,,,,,,,,,,,,,,,,,,,,,,,,,,,,,,,,,,,,,,,,,,,,,,,,,,CS1_USpos,None,1,,,,,,,,,,,,,,,,,,19,f,42,n,2019_Oct_10_1315,ec_RRR,3.0.4,60.007
Kurdi and Ferguson,"For this task, the target creature is Bergmite:","So whenever Bergmite (his name or his picture) appears on the screen, hit the spacebar as quickly as possible. Hit the spacebar whenever you see an image of Bergmite or the word BERGMITE. 

Press the spacebar to start the task",target3,stimuli/t3.jpg,42,22,stimuli/blank.jpg,blank,FALSE,None,,,,,,,,,,,,,,0,0,0,0,,,,,0,0,0,2,0,21,21,21,,,,,,,,,,,,,,,,,,,,,,,,,,,,,,,,,,,,,,,,,,,,,,,,,,,,,CS1_USpos,None,1,,,,,,,,,,,,,,,,,,19,f,42,n,2019_Oct_10_1315,ec_RRR,3.0.4,60.007
Kurdi and Ferguson,"For this task, the target creature is Bergmite:","So whenever Bergmite (his name or his picture) appears on the screen, hit the spacebar as quickly as possible. Hit the spacebar whenever you see an image of Bergmite or the word BERGMITE. 

Press the spacebar to start the task",target3,stimuli/t3.jpg,42,23,stimuli/filler22.jpg,filler,FALSE,None,,,,,,,,,,,,,,0,0,0,0,,,,,0,0,0,2,0,22,22,22,,,,,,,,,,,,,,,,,,,,,,,,,,,,,,,,,,,,,,,,,,,,,,,,,,,,,CS1_USpos,None,1,,,,,,,,,,,,,,,,,,19,f,42,n,2019_Oct_10_1315,ec_RRR,3.0.4,60.007
Kurdi and Ferguson,"For this task, the target creature is Bergmite:","So whenever Bergmite (his name or his picture) appears on the screen, hit the spacebar as quickly as possible. Hit the spacebar whenever you see an image of Bergmite or the word BERGMITE. 

Press the spacebar to start the task",target3,stimuli/t3.jpg,42,24,stimuli/filler18.jpg,filler,FALSE,None,,,,,,,,,,,,,,0,0,0,0,,,,,0,0,0,2,0,23,23,23,,,,,,,,,,,,,,,,,,,,,,,,,,,,,,,,,,,,,,,,,,,,,,,,,,,,,CS1_USpos,None,1,,,,,,,,,,,,,,,,,,19,f,42,n,2019_Oct_10_1315,ec_RRR,3.0.4,60.007
Kurdi and Ferguson,"For this task, the target creature is Bergmite:","So whenever Bergmite (his name or his picture) appears on the screen, hit the spacebar as quickly as possible. Hit the spacebar whenever you see an image of Bergmite or the word BERGMITE. 

Press the spacebar to start the task",target3,stimuli/t3.jpg,42,25,stimuli/target3_6.jpg,target,TRUE,space,,,,,,,,,,,,,,0,0,0,0,,,,,0,0,0,2,0,24,24,24,,,,,,,,,,,,,,,,,,,,,,,,,,,,,,,,,,,,,,,,,,,,,,,,,,,,,CS1_USpos,space,1,0.735176139,,,,,,,,,,,,,,,,,19,f,42,n,2019_Oct_10_1315,ec_RRR,3.0.4,60.007
Kurdi and Ferguson,"For this task, the target creature is Bergmite:","So whenever Bergmite (his name or his picture) appears on the screen, hit the spacebar as quickly as possible. Hit the spacebar whenever you see an image of Bergmite or the word BERGMITE. 

Press the spacebar to start the task",target3,stimuli/t3.jpg,42,26,stimuli/filler11.jpg,filler,FALSE,None,,,,,,,,,,,,,,0,0,0,0,,,,,0,0,0,2,0,25,25,25,,,,,,,,,,,,,,,,,,,,,,,,,,,,,,,,,,,,,,,,,,,,,,,,,,,,,CS1_USpos,None,1,,,,,,,,,,,,,,,,,,19,f,42,n,2019_Oct_10_1315,ec_RRR,3.0.4,60.007
Kurdi and Ferguson,"For this task, the target creature is Bergmite:","So whenever Bergmite (his name or his picture) appears on the screen, hit the spacebar as quickly as possible. Hit the spacebar whenever you see an image of Bergmite or the word BERGMITE. 

Press the spacebar to start the task",target3,stimuli/t3.jpg,42,27,stimuli/filler27.jpg,filler,FALSE,None,,,,,,,,,,,,,,0,0,0,0,,,,,0,0,0,2,0,26,26,26,,,,,,,,,,,,,,,,,,,,,,,,,,,,,,,,,,,,,,,,,,,,,,,,,,,,,CS1_USpos,None,1,,,,,,,,,,,,,,,,,,19,f,42,n,2019_Oct_10_1315,ec_RRR,3.0.4,60.007
Kurdi and Ferguson,"For this task, the target creature is Bergmite:","So whenever Bergmite (his name or his picture) appears on the screen, hit the spacebar as quickly as possible. Hit the spacebar whenever you see an image of Bergmite or the word BERGMITE. 

Press the spacebar to start the task",target3,stimuli/t3.jpg,42,28,stimuli/filler6.jpg,filler,FALSE,None,,,,,,,,,,,,,,0,0,0,0,,,,,0,0,0,2,0,27,27,27,,,,,,,,,,,,,,,,,,,,,,,,,,,,,,,,,,,,,,,,,,,,,,,,,,,,,CS1_USpos,None,1,,,,,,,,,,,,,,,,,,19,f,42,n,2019_Oct_10_1315,ec_RRR,3.0.4,60.007
Kurdi and Ferguson,"For this task, the target creature is Bergmite:","So whenever Bergmite (his name or his picture) appears on the screen, hit the spacebar as quickly as possible. Hit the spacebar whenever you see an image of Bergmite or the word BERGMITE. 

Press the spacebar to start the task",target3,stimuli/t3.jpg,42,29,stimuli/filler1.jpg,filler,FALSE,None,,,,,,,,,,,,,,0,0,0,0,,,,,0,0,0,2,0,28,28,28,,,,,,,,,,,,,,,,,,,,,,,,,,,,,,,,,,,,,,,,,,,,,,,,,,,,,CS1_USpos,None,1,,,,,,,,,,,,,,,,,,19,f,42,n,2019_Oct_10_1315,ec_RRR,3.0.4,60.007
Kurdi and Ferguson,"For this task, the target creature is Bergmite:","So whenever Bergmite (his name or his picture) appears on the screen, hit the spacebar as quickly as possible. Hit the spacebar whenever you see an image of Bergmite or the word BERGMITE. 

Press the spacebar to start the task",target3,stimuli/t3.jpg,42,30,stimuli/blank.jpg,blank,FALSE,None,,,,,,,,,,,,,,0,0,0,0,,,,,0,0,0,2,0,29,29,29,,,,,,,,,,,,,,,,,,,,,,,,,,,,,,,,,,,,,,,,,,,,,,,,,,,,,CS1_USpos,None,1,,,,,,,,,,,,,,,,,,19,f,42,n,2019_Oct_10_1315,ec_RRR,3.0.4,60.007
Kurdi and Ferguson,"For this task, the target creature is Bergmite:","So whenever Bergmite (his name or his picture) appears on the screen, hit the spacebar as quickly as possible. Hit the spacebar whenever you see an image of Bergmite or the word BERGMITE. 

Press the spacebar to start the task",target3,stimuli/t3.jpg,42,31,stimuli/cs1_pos14.jpg,CSUS,FALSE,None,,,,,,,,,,,,,,0,0,0,0,,,,,0,0,0,2,0,30,30,30,,,,,,,,,,,,,,,,,,,,,,,,,,,,,,,,,,,,,,,,,,,,,,,,,,,,,CS1_USpos,None,1,,,,,,,,,,,,,,,,,,19,f,42,n,2019_Oct_10_1315,ec_RRR,3.0.4,60.007
Kurdi and Ferguson,"For this task, the target creature is Bergmite:","So whenever Bergmite (his name or his picture) appears on the screen, hit the spacebar as quickly as possible. Hit the spacebar whenever you see an image of Bergmite or the word BERGMITE. 

Press the spacebar to start the task",target3,stimuli/t3.jpg,42,32,stimuli/blank.jpg,blank,FALSE,None,,,,,,,,,,,,,,0,0,0,0,,,,,0,0,0,2,0,31,31,31,,,,,,,,,,,,,,,,,,,,,,,,,,,,,,,,,,,,,,,,,,,,,,,,,,,,,CS1_USpos,None,1,,,,,,,,,,,,,,,,,,19,f,42,n,2019_Oct_10_1315,ec_RRR,3.0.4,60.007
Kurdi and Ferguson,"For this task, the target creature is Bergmite:","So whenever Bergmite (his name or his picture) appears on the screen, hit the spacebar as quickly as possible. Hit the spacebar whenever you see an image of Bergmite or the word BERGMITE. 

Press the spacebar to start the task",target3,stimuli/t3.jpg,42,33,stimuli/filler23.jpg,filler,FALSE,None,,,,,,,,,,,,,,0,0,0,0,,,,,0,0,0,2,0,32,32,32,,,,,,,,,,,,,,,,,,,,,,,,,,,,,,,,,,,,,,,,,,,,,,,,,,,,,CS1_USpos,None,1,,,,,,,,,,,,,,,,,,19,f,42,n,2019_Oct_10_1315,ec_RRR,3.0.4,60.007
Kurdi and Ferguson,"For this task, the target creature is Bergmite:","So whenever Bergmite (his name or his picture) appears on the screen, hit the spacebar as quickly as possible. Hit the spacebar whenever you see an image of Bergmite or the word BERGMITE. 

Press the spacebar to start the task",target3,stimuli/t3.jpg,42,34,stimuli/filler4.jpg,filler,FALSE,None,,,,,,,,,,,,,,0,0,0,0,,,,,0,0,0,2,0,33,33,33,,,,,,,,,,,,,,,,,,,,,,,,,,,,,,,,,,,,,,,,,,,,,,,,,,,,,CS1_USpos,None,1,,,,,,,,,,,,,,,,,,19,f,42,n,2019_Oct_10_1315,ec_RRR,3.0.4,60.007
Kurdi and Ferguson,"For this task, the target creature is Bergmite:","So whenever Bergmite (his name or his picture) appears on the screen, hit the spacebar as quickly as possible. Hit the spacebar whenever you see an image of Bergmite or the word BERGMITE. 

Press the spacebar to start the task",target3,stimuli/t3.jpg,42,35,stimuli/filler28.jpg,filler,FALSE,None,,,,,,,,,,,,,,0,0,0,0,,,,,0,0,0,2,0,34,34,34,,,,,,,,,,,,,,,,,,,,,,,,,,,,,,,,,,,,,,,,,,,,,,,,,,,,,CS1_USpos,None,1,,,,,,,,,,,,,,,,,,19,f,42,n,2019_Oct_10_1315,ec_RRR,3.0.4,60.007
Kurdi and Ferguson,"For this task, the target creature is Bergmite:","So whenever Bergmite (his name or his picture) appears on the screen, hit the spacebar as quickly as possible. Hit the spacebar whenever you see an image of Bergmite or the word BERGMITE. 

Press the spacebar to start the task",target3,stimuli/t3.jpg,42,36,stimuli/filler47.jpg,filler,FALSE,None,,,,,,,,,,,,,,0,0,0,0,,,,,0,0,0,2,0,35,35,35,,,,,,,,,,,,,,,,,,,,,,,,,,,,,,,,,,,,,,,,,,,,,,,,,,,,,CS1_USpos,None,1,,,,,,,,,,,,,,,,,,19,f,42,n,2019_Oct_10_1315,ec_RRR,3.0.4,60.007
Kurdi and Ferguson,"For this task, the target creature is Bergmite:","So whenever Bergmite (his name or his picture) appears on the screen, hit the spacebar as quickly as possible. Hit the spacebar whenever you see an image of Bergmite or the word BERGMITE. 

Press the spacebar to start the task",target3,stimuli/t3.jpg,42,37,stimuli/filler33.jpg,filler,FALSE,None,,,,,,,,,,,,,,0,0,0,0,,,,,0,0,0,2,0,36,36,36,,,,,,,,,,,,,,,,,,,,,,,,,,,,,,,,,,,,,,,,,,,,,,,,,,,,,CS1_USpos,None,1,,,,,,,,,,,,,,,,,,19,f,42,n,2019_Oct_10_1315,ec_RRR,3.0.4,60.007
Kurdi and Ferguson,"For this task, the target creature is Bergmite:","So whenever Bergmite (his name or his picture) appears on the screen, hit the spacebar as quickly as possible. Hit the spacebar whenever you see an image of Bergmite or the word BERGMITE. 

Press the spacebar to start the task",target3,stimuli/t3.jpg,42,38,stimuli/filler42.jpg,filler,FALSE,None,,,,,,,,,,,,,,0,0,0,0,,,,,0,0,0,2,0,37,37,37,,,,,,,,,,,,,,,,,,,,,,,,,,,,,,,,,,,,,,,,,,,,,,,,,,,,,CS1_USpos,None,1,,,,,,,,,,,,,,,,,,19,f,42,n,2019_Oct_10_1315,ec_RRR,3.0.4,60.007
Kurdi and Ferguson,"For this task, the target creature is Bergmite:","So whenever Bergmite (his name or his picture) appears on the screen, hit the spacebar as quickly as possible. Hit the spacebar whenever you see an image of Bergmite or the word BERGMITE. 

Press the spacebar to start the task",target3,stimuli/t3.jpg,42,39,stimuli/filler7.jpg,filler,FALSE,None,,,,,,,,,,,,,,0,0,0,0,,,,,0,0,0,2,0,38,38,38,,,,,,,,,,,,,,,,,,,,,,,,,,,,,,,,,,,,,,,,,,,,,,,,,,,,,CS1_USpos,None,1,,,,,,,,,,,,,,,,,,19,f,42,n,2019_Oct_10_1315,ec_RRR,3.0.4,60.007
Kurdi and Ferguson,"For this task, the target creature is Bergmite:","So whenever Bergmite (his name or his picture) appears on the screen, hit the spacebar as quickly as possible. Hit the spacebar whenever you see an image of Bergmite or the word BERGMITE. 

Press the spacebar to start the task",target3,stimuli/t3.jpg,42,40,stimuli/blank.jpg,blank,FALSE,None,,,,,,,,,,,,,,0,0,0,0,,,,,0,0,0,2,0,39,39,39,,,,,,,,,,,,,,,,,,,,,,,,,,,,,,,,,,,,,,,,,,,,,,,,,,,,,CS1_USpos,None,1,,,,,,,,,,,,,,,,,,19,f,42,n,2019_Oct_10_1315,ec_RRR,3.0.4,60.007
Kurdi and Ferguson,"For this task, the target creature is Bergmite:","So whenever Bergmite (his name or his picture) appears on the screen, hit the spacebar as quickly as possible. Hit the spacebar whenever you see an image of Bergmite or the word BERGMITE. 

Press the spacebar to start the task",target3,stimuli/t3.jpg,42,41,stimuli/cs2_neg3.jpg,CSUS,FALSE,None,,,,,,,,,,,,,,0,0,0,0,,,,,0,0,0,2,0,40,40,40,,,,,,,,,,,,,,,,,,,,,,,,,,,,,,,,,,,,,,,,,,,,,,,,,,,,,CS1_USpos,None,1,,,,,,,,,,,,,,,,,,19,f,42,n,2019_Oct_10_1315,ec_RRR,3.0.4,60.007
Kurdi and Ferguson,"For this task, the target creature is Bergmite:","So whenever Bergmite (his name or his picture) appears on the screen, hit the spacebar as quickly as possible. Hit the spacebar whenever you see an image of Bergmite or the word BERGMITE. 

Press the spacebar to start the task",target3,stimuli/t3.jpg,42,42,stimuli/blank.jpg,blank,FALSE,None,,,,,,,,,,,,,,0,0,0,0,,,,,0,0,0,2,0,41,41,41,,,,,,,,,,,,,,,,,,,,,,,,,,,,,,,,,,,,,,,,,,,,,,,,,,,,,CS1_USpos,None,1,,,,,,,,,,,,,,,,,,19,f,42,n,2019_Oct_10_1315,ec_RRR,3.0.4,60.007
Kurdi and Ferguson,"For this task, the target creature is Bergmite:","So whenever Bergmite (his name or his picture) appears on the screen, hit the spacebar as quickly as possible. Hit the spacebar whenever you see an image of Bergmite or the word BERGMITE. 

Press the spacebar to start the task",target3,stimuli/t3.jpg,42,43,stimuli/filler12.jpg,filler,FALSE,None,,,,,,,,,,,,,,0,0,0,0,,,,,0,0,0,2,0,42,42,42,,,,,,,,,,,,,,,,,,,,,,,,,,,,,,,,,,,,,,,,,,,,,,,,,,,,,CS1_USpos,None,1,,,,,,,,,,,,,,,,,,19,f,42,n,2019_Oct_10_1315,ec_RRR,3.0.4,60.007
Kurdi and Ferguson,"For this task, the target creature is Bergmite:","So whenever Bergmite (his name or his picture) appears on the screen, hit the spacebar as quickly as possible. Hit the spacebar whenever you see an image of Bergmite or the word BERGMITE. 

Press the spacebar to start the task",target3,stimuli/t3.jpg,42,44,stimuli/filler32.jpg,filler,FALSE,None,,,,,,,,,,,,,,0,0,0,0,,,,,0,0,0,2,0,43,43,43,,,,,,,,,,,,,,,,,,,,,,,,,,,,,,,,,,,,,,,,,,,,,,,,,,,,,CS1_USpos,None,1,,,,,,,,,,,,,,,,,,19,f,42,n,2019_Oct_10_1315,ec_RRR,3.0.4,60.007
Kurdi and Ferguson,"For this task, the target creature is Bergmite:","So whenever Bergmite (his name or his picture) appears on the screen, hit the spacebar as quickly as possible. Hit the spacebar whenever you see an image of Bergmite or the word BERGMITE. 

Press the spacebar to start the task",target3,stimuli/t3.jpg,42,45,stimuli/filler50.jpg,filler,FALSE,None,,,,,,,,,,,,,,0,0,0,0,,,,,0,0,0,2,0,44,44,44,,,,,,,,,,,,,,,,,,,,,,,,,,,,,,,,,,,,,,,,,,,,,,,,,,,,,CS1_USpos,None,1,,,,,,,,,,,,,,,,,,19,f,42,n,2019_Oct_10_1315,ec_RRR,3.0.4,60.007
Kurdi and Ferguson,"For this task, the target creature is Bergmite:","So whenever Bergmite (his name or his picture) appears on the screen, hit the spacebar as quickly as possible. Hit the spacebar whenever you see an image of Bergmite or the word BERGMITE. 

Press the spacebar to start the task",target3,stimuli/t3.jpg,42,46,stimuli/target3_1.jpg,target,TRUE,space,,,,,,,,,,,,,,0,0,0,0,,,,,0,0,0,2,0,45,45,45,,,,,,,,,,,,,,,,,,,,,,,,,,,,,,,,,,,,,,,,,,,,,,,,,,,,,CS1_USpos,space,1,0.637936515,,,,,,,,,,,,,,,,,19,f,42,n,2019_Oct_10_1315,ec_RRR,3.0.4,60.007
Kurdi and Ferguson,"For this task, the target creature is Bergmite:","So whenever Bergmite (his name or his picture) appears on the screen, hit the spacebar as quickly as possible. Hit the spacebar whenever you see an image of Bergmite or the word BERGMITE. 

Press the spacebar to start the task",target3,stimuli/t3.jpg,42,47,stimuli/filler48.jpg,filler,FALSE,None,,,,,,,,,,,,,,0,0,0,0,,,,,0,0,0,2,0,46,46,46,,,,,,,,,,,,,,,,,,,,,,,,,,,,,,,,,,,,,,,,,,,,,,,,,,,,,CS1_USpos,None,1,,,,,,,,,,,,,,,,,,19,f,42,n,2019_Oct_10_1315,ec_RRR,3.0.4,60.007
Kurdi and Ferguson,"For this task, the target creature is Bergmite:","So whenever Bergmite (his name or his picture) appears on the screen, hit the spacebar as quickly as possible. Hit the spacebar whenever you see an image of Bergmite or the word BERGMITE. 

Press the spacebar to start the task",target3,stimuli/t3.jpg,42,48,stimuli/filler24.jpg,filler,FALSE,None,,,,,,,,,,,,,,0,0,0,0,,,,,0,0,0,2,0,47,47,47,,,,,,,,,,,,,,,,,,,,,,,,,,,,,,,,,,,,,,,,,,,,,,,,,,,,,CS1_USpos,None,1,,,,,,,,,,,,,,,,,,19,f,42,n,2019_Oct_10_1315,ec_RRR,3.0.4,60.007
Kurdi and Ferguson,"For this task, the target creature is Bergmite:","So whenever Bergmite (his name or his picture) appears on the screen, hit the spacebar as quickly as possible. Hit the spacebar whenever you see an image of Bergmite or the word BERGMITE. 

Press the spacebar to start the task",target3,stimuli/t3.jpg,42,49,stimuli/filler2.jpg,filler,FALSE,None,,,,,,,,,,,,,,0,0,0,0,,,,,0,0,0,2,0,48,48,48,,,,,,,,,,,,,,,,,,,,,,,,,,,,,,,,,,,,,,,,,,,,,,,,,,,,,CS1_USpos,None,1,,,,,,,,,,,,,,,,,,19,f,42,n,2019_Oct_10_1315,ec_RRR,3.0.4,60.007
Kurdi and Ferguson,"For this task, the target creature is Bergmite:","So whenever Bergmite (his name or his picture) appears on the screen, hit the spacebar as quickly as possible. Hit the spacebar whenever you see an image of Bergmite or the word BERGMITE. 

Press the spacebar to start the task",target3,stimuli/t3.jpg,42,50,stimuli/blank.jpg,blank,FALSE,None,,,,,,,,,,,,,,0,0,0,0,,,,,0,0,0,2,0,49,49,49,,,,,,,,,,,,,,,,,,,,,,,,,,,,,,,,,,,,,,,,,,,,,,,,,,,,,CS1_USpos,None,1,,,,,,,,,,,,,,,,,,19,f,42,n,2019_Oct_10_1315,ec_RRR,3.0.4,60.007
Kurdi and Ferguson,"For this task, the target creature is Bergmite:","So whenever Bergmite (his name or his picture) appears on the screen, hit the spacebar as quickly as possible. Hit the spacebar whenever you see an image of Bergmite or the word BERGMITE. 

Press the spacebar to start the task",target3,stimuli/t3.jpg,42,51,stimuli/cs1_pos5.jpg,CSUS,FALSE,None,,,,,,,,,,,,,,0,0,0,0,,,,,0,0,0,2,0,50,50,50,,,,,,,,,,,,,,,,,,,,,,,,,,,,,,,,,,,,,,,,,,,,,,,,,,,,,CS1_USpos,None,1,,,,,,,,,,,,,,,,,,19,f,42,n,2019_Oct_10_1315,ec_RRR,3.0.4,60.007
Kurdi and Ferguson,"For this task, the target creature is Bergmite:","So whenever Bergmite (his name or his picture) appears on the screen, hit the spacebar as quickly as possible. Hit the spacebar whenever you see an image of Bergmite or the word BERGMITE. 

Press the spacebar to start the task",target3,stimuli/t3.jpg,42,52,stimuli/blank.jpg,blank,FALSE,None,,,,,,,,,,,,,,0,0,0,0,,,,,0,0,0,2,0,51,51,51,,,,,,,,,,,,,,,,,,,,,,,,,,,,,,,,,,,,,,,,,,,,,,,,,,,,,CS1_USpos,None,1,,,,,,,,,,,,,,,,,,19,f,42,n,2019_Oct_10_1315,ec_RRR,3.0.4,60.007
Kurdi and Ferguson,"For this task, the target creature is Bergmite:","So whenever Bergmite (his name or his picture) appears on the screen, hit the spacebar as quickly as possible. Hit the spacebar whenever you see an image of Bergmite or the word BERGMITE. 

Press the spacebar to start the task",target3,stimuli/t3.jpg,42,53,stimuli/filler31.jpg,filler,FALSE,None,,,,,,,,,,,,,,0,0,0,0,,,,,0,0,0,2,0,52,52,52,,,,,,,,,,,,,,,,,,,,,,,,,,,,,,,,,,,,,,,,,,,,,,,,,,,,,CS1_USpos,None,1,,,,,,,,,,,,,,,,,,19,f,42,n,2019_Oct_10_1315,ec_RRR,3.0.4,60.007
Kurdi and Ferguson,"For this task, the target creature is Bergmite:","So whenever Bergmite (his name or his picture) appears on the screen, hit the spacebar as quickly as possible. Hit the spacebar whenever you see an image of Bergmite or the word BERGMITE. 

Press the spacebar to start the task",target3,stimuli/t3.jpg,42,54,stimuli/target3_5.jpg,target,TRUE,space,,,,,,,,,,,,,,0,0,0,0,,,,,0,0,0,2,0,53,53,53,,,,,,,,,,,,,,,,,,,,,,,,,,,,,,,,,,,,,,,,,,,,,,,,,,,,,CS1_USpos,space,1,0.642289775,,,,,,,,,,,,,,,,,19,f,42,n,2019_Oct_10_1315,ec_RRR,3.0.4,60.007
Kurdi and Ferguson,"For this task, the target creature is Bergmite:","So whenever Bergmite (his name or his picture) appears on the screen, hit the spacebar as quickly as possible. Hit the spacebar whenever you see an image of Bergmite or the word BERGMITE. 

Press the spacebar to start the task",target3,stimuli/t3.jpg,42,55,stimuli/filler8.jpg,filler,FALSE,None,,,,,,,,,,,,,,0,0,0,0,,,,,0,0,0,2,0,54,54,54,,,,,,,,,,,,,,,,,,,,,,,,,,,,,,,,,,,,,,,,,,,,,,,,,,,,,CS1_USpos,None,1,,,,,,,,,,,,,,,,,,19,f,42,n,2019_Oct_10_1315,ec_RRR,3.0.4,60.007
Kurdi and Ferguson,"For this task, the target creature is Bergmite:","So whenever Bergmite (his name or his picture) appears on the screen, hit the spacebar as quickly as possible. Hit the spacebar whenever you see an image of Bergmite or the word BERGMITE. 

Press the spacebar to start the task",target3,stimuli/t3.jpg,42,56,stimuli/filler19.jpg,filler,FALSE,None,,,,,,,,,,,,,,0,0,0,0,,,,,0,0,0,2,0,55,55,55,,,,,,,,,,,,,,,,,,,,,,,,,,,,,,,,,,,,,,,,,,,,,,,,,,,,,CS1_USpos,None,1,,,,,,,,,,,,,,,,,,19,f,42,n,2019_Oct_10_1315,ec_RRR,3.0.4,60.007
Kurdi and Ferguson,"For this task, the target creature is Bergmite:","So whenever Bergmite (his name or his picture) appears on the screen, hit the spacebar as quickly as possible. Hit the spacebar whenever you see an image of Bergmite or the word BERGMITE. 

Press the spacebar to start the task",target3,stimuli/t3.jpg,42,57,stimuli/filler45.jpg,filler,FALSE,None,,,,,,,,,,,,,,0,0,0,0,,,,,0,0,0,2,0,56,56,56,,,,,,,,,,,,,,,,,,,,,,,,,,,,,,,,,,,,,,,,,,,,,,,,,,,,,CS1_USpos,None,1,,,,,,,,,,,,,,,,,,19,f,42,n,2019_Oct_10_1315,ec_RRR,3.0.4,60.007
Kurdi and Ferguson,"For this task, the target creature is Bergmite:","So whenever Bergmite (his name or his picture) appears on the screen, hit the spacebar as quickly as possible. Hit the spacebar whenever you see an image of Bergmite or the word BERGMITE. 

Press the spacebar to start the task",target3,stimuli/t3.jpg,42,58,stimuli/filler26.jpg,filler,FALSE,None,,,,,,,,,,,,,,0,0,0,0,,,,,0,0,0,2,0,57,57,57,,,,,,,,,,,,,,,,,,,,,,,,,,,,,,,,,,,,,,,,,,,,,,,,,,,,,CS1_USpos,None,1,,,,,,,,,,,,,,,,,,19,f,42,n,2019_Oct_10_1315,ec_RRR,3.0.4,60.007
Kurdi and Ferguson,"For this task, the target creature is Bergmite:","So whenever Bergmite (his name or his picture) appears on the screen, hit the spacebar as quickly as possible. Hit the spacebar whenever you see an image of Bergmite or the word BERGMITE. 

Press the spacebar to start the task",target3,stimuli/t3.jpg,42,59,stimuli/filler41.jpg,filler,FALSE,None,,,,,,,,,,,,,,0,0,0,0,,,,,0,0,0,2,0,58,58,58,,,,,,,,,,,,,,,,,,,,,,,,,,,,,,,,,,,,,,,,,,,,,,,,,,,,,CS1_USpos,None,1,,,,,,,,,,,,,,,,,,19,f,42,n,2019_Oct_10_1315,ec_RRR,3.0.4,60.007
Kurdi and Ferguson,"For this task, the target creature is Bergmite:","So whenever Bergmite (his name or his picture) appears on the screen, hit the spacebar as quickly as possible. Hit the spacebar whenever you see an image of Bergmite or the word BERGMITE. 

Press the spacebar to start the task",target3,stimuli/t3.jpg,42,60,stimuli/blank.jpg,blank,FALSE,None,,,,,,,,,,,,,,0,0,0,0,,,,,0,0,0,2,0,59,59,59,,,,,,,,,,,,,,,,,,,,,,,,,,,,,,,,,,,,,,,,,,,,,,,,,,,,,CS1_USpos,None,1,,,,,,,,,,,,,,,,,,19,f,42,n,2019_Oct_10_1315,ec_RRR,3.0.4,60.007
Kurdi and Ferguson,"For this task, the target creature is Bergmite:","So whenever Bergmite (his name or his picture) appears on the screen, hit the spacebar as quickly as possible. Hit the spacebar whenever you see an image of Bergmite or the word BERGMITE. 

Press the spacebar to start the task",target3,stimuli/t3.jpg,42,61,stimuli/cs2_neg7.jpg,CSUS,FALSE,None,,,,,,,,,,,,,,0,0,0,0,,,,,0,0,0,2,0,60,60,60,,,,,,,,,,,,,,,,,,,,,,,,,,,,,,,,,,,,,,,,,,,,,,,,,,,,,CS1_USpos,None,1,,,,,,,,,,,,,,,,,,19,f,42,n,2019_Oct_10_1315,ec_RRR,3.0.4,60.007
Kurdi and Ferguson,"For this task, the target creature is Bergmite:","So whenever Bergmite (his name or his picture) appears on the screen, hit the spacebar as quickly as possible. Hit the spacebar whenever you see an image of Bergmite or the word BERGMITE. 

Press the spacebar to start the task",target3,stimuli/t3.jpg,42,62,stimuli/blank.jpg,blank,FALSE,None,,,,,,,,,,,,,,0,0,0,0,,,,,0,0,0,2,0,61,61,61,,,,,,,,,,,,,,,,,,,,,,,,,,,,,,,,,,,,,,,,,,,,,,,,,,,,,CS1_USpos,None,1,,,,,,,,,,,,,,,,,,19,f,42,n,2019_Oct_10_1315,ec_RRR,3.0.4,60.007
Kurdi and Ferguson,"For this task, the target creature is Bergmite:","So whenever Bergmite (his name or his picture) appears on the screen, hit the spacebar as quickly as possible. Hit the spacebar whenever you see an image of Bergmite or the word BERGMITE. 

Press the spacebar to start the task",target3,stimuli/t3.jpg,42,63,stimuli/filler20.jpg,filler,FALSE,None,,,,,,,,,,,,,,0,0,0,0,,,,,0,0,0,2,0,62,62,62,,,,,,,,,,,,,,,,,,,,,,,,,,,,,,,,,,,,,,,,,,,,,,,,,,,,,CS1_USpos,None,1,,,,,,,,,,,,,,,,,,19,f,42,n,2019_Oct_10_1315,ec_RRR,3.0.4,60.007
Kurdi and Ferguson,"For this task, the target creature is Bergmite:","So whenever Bergmite (his name or his picture) appears on the screen, hit the spacebar as quickly as possible. Hit the spacebar whenever you see an image of Bergmite or the word BERGMITE. 

Press the spacebar to start the task",target3,stimuli/t3.jpg,42,64,stimuli/filler46.jpg,filler,FALSE,None,,,,,,,,,,,,,,0,0,0,0,,,,,0,0,0,2,0,63,63,63,,,,,,,,,,,,,,,,,,,,,,,,,,,,,,,,,,,,,,,,,,,,,,,,,,,,,CS1_USpos,None,1,,,,,,,,,,,,,,,,,,19,f,42,n,2019_Oct_10_1315,ec_RRR,3.0.4,60.007
Kurdi and Ferguson,"For this task, the target creature is Bergmite:","So whenever Bergmite (his name or his picture) appears on the screen, hit the spacebar as quickly as possible. Hit the spacebar whenever you see an image of Bergmite or the word BERGMITE. 

Press the spacebar to start the task",target3,stimuli/t3.jpg,42,65,stimuli/filler17.jpg,filler,FALSE,None,,,,,,,,,,,,,,0,0,0,0,,,,,0,0,0,2,0,64,64,64,,,,,,,,,,,,,,,,,,,,,,,,,,,,,,,,,,,,,,,,,,,,,,,,,,,,,CS1_USpos,None,1,,,,,,,,,,,,,,,,,,19,f,42,n,2019_Oct_10_1315,ec_RRR,3.0.4,60.007
Kurdi and Ferguson,"For this task, the target creature is Bergmite:","So whenever Bergmite (his name or his picture) appears on the screen, hit the spacebar as quickly as possible. Hit the spacebar whenever you see an image of Bergmite or the word BERGMITE. 

Press the spacebar to start the task",target3,stimuli/t3.jpg,42,66,stimuli/filler52.jpg,filler,FALSE,None,,,,,,,,,,,,,,0,0,0,0,,,,,0,0,0,2,0,65,65,65,,,,,,,,,,,,,,,,,,,,,,,,,,,,,,,,,,,,,,,,,,,,,,,,,,,,,CS1_USpos,None,1,,,,,,,,,,,,,,,,,,19,f,42,n,2019_Oct_10_1315,ec_RRR,3.0.4,60.007
Kurdi and Ferguson,"For this task, the target creature is Bergmite:","So whenever Bergmite (his name or his picture) appears on the screen, hit the spacebar as quickly as possible. Hit the spacebar whenever you see an image of Bergmite or the word BERGMITE. 

Press the spacebar to start the task",target3,stimuli/t3.jpg,42,67,stimuli/filler43.jpg,filler,FALSE,None,,,,,,,,,,,,,,0,0,0,0,,,,,0,0,0,2,0,66,66,66,,,,,,,,,,,,,,,,,,,,,,,,,,,,,,,,,,,,,,,,,,,,,,,,,,,,,CS1_USpos,None,1,,,,,,,,,,,,,,,,,,19,f,42,n,2019_Oct_10_1315,ec_RRR,3.0.4,60.007
Kurdi and Ferguson,"For this task, the target creature is Bergmite:","So whenever Bergmite (his name or his picture) appears on the screen, hit the spacebar as quickly as possible. Hit the spacebar whenever you see an image of Bergmite or the word BERGMITE. 

Press the spacebar to start the task",target3,stimuli/t3.jpg,42,68,stimuli/filler5.jpg,filler,FALSE,None,,,,,,,,,,,,,,0,0,0,0,,,,,0,0,0,2,0,67,67,67,,,,,,,,,,,,,,,,,,,,,,,,,,,,,,,,,,,,,,,,,,,,,,,,,,,,,CS1_USpos,None,1,,,,,,,,,,,,,,,,,,19,f,42,n,2019_Oct_10_1315,ec_RRR,3.0.4,60.007
Kurdi and Ferguson,"For this task, the target creature is Bergmite:","So whenever Bergmite (his name or his picture) appears on the screen, hit the spacebar as quickly as possible. Hit the spacebar whenever you see an image of Bergmite or the word BERGMITE. 

Press the spacebar to start the task",target3,stimuli/t3.jpg,42,69,stimuli/target3_4.jpg,target,TRUE,space,,,,,,,,,,,,,,0,0,0,0,,,,,0,0,0,2,0,68,68,68,,,,,,,,,,,,,,,,,,,,,,,,,,,,,,,,,,,,,,,,,,,,,,,,,,,,,CS1_USpos,space,1,0.675315636,,,,,,,,,,,,,,,,,19,f,42,n,2019_Oct_10_1315,ec_RRR,3.0.4,60.007
Kurdi and Ferguson,"For this task, the target creature is Bergmite:","So whenever Bergmite (his name or his picture) appears on the screen, hit the spacebar as quickly as possible. Hit the spacebar whenever you see an image of Bergmite or the word BERGMITE. 

Press the spacebar to start the task",target3,stimuli/t3.jpg,42,70,stimuli/blank.jpg,blank,FALSE,None,,,,,,,,,,,,,,0,0,0,0,,,,,0,0,0,2,0,69,69,69,,,,,,,,,,,,,,,,,,,,,,,,,,,,,,,,,,,,,,,,,,,,,,,,,,,,,CS1_USpos,None,1,,,,,,,,,,,,,,,,,,19,f,42,n,2019_Oct_10_1315,ec_RRR,3.0.4,60.007
Kurdi and Ferguson,"For this task, the target creature is Bergmite:","So whenever Bergmite (his name or his picture) appears on the screen, hit the spacebar as quickly as possible. Hit the spacebar whenever you see an image of Bergmite or the word BERGMITE. 

Press the spacebar to start the task",target3,stimuli/t3.jpg,42,71,stimuli/cs1_pos1.jpg,CSUS,FALSE,None,,,,,,,,,,,,,,0,0,0,0,,,,,0,0,0,2,0,70,70,70,,,,,,,,,,,,,,,,,,,,,,,,,,,,,,,,,,,,,,,,,,,,,,,,,,,,,CS1_USpos,None,1,,,,,,,,,,,,,,,,,,19,f,42,n,2019_Oct_10_1315,ec_RRR,3.0.4,60.007
Kurdi and Ferguson,"For this task, the target creature is Bergmite:","So whenever Bergmite (his name or his picture) appears on the screen, hit the spacebar as quickly as possible. Hit the spacebar whenever you see an image of Bergmite or the word BERGMITE. 

Press the spacebar to start the task",target3,stimuli/t3.jpg,42,72,stimuli/blank.jpg,blank,FALSE,None,,,,,,,,,,,,,,0,0,0,0,,,,,0,0,0,2,0,71,71,71,,,,,,,,,,,,,,,,,,,,,,,,,,,,,,,,,,,,,,,,,,,,,,,,,,,,,CS1_USpos,None,1,,,,,,,,,,,,,,,,,,19,f,42,n,2019_Oct_10_1315,ec_RRR,3.0.4,60.007
Kurdi and Ferguson,"For this task, the target creature is Bergmite:","So whenever Bergmite (his name or his picture) appears on the screen, hit the spacebar as quickly as possible. Hit the spacebar whenever you see an image of Bergmite or the word BERGMITE. 

Press the spacebar to start the task",target3,stimuli/t3.jpg,42,73,stimuli/filler30.jpg,filler,FALSE,None,,,,,,,,,,,,,,0,0,0,0,,,,,0,0,0,2,0,72,72,72,,,,,,,,,,,,,,,,,,,,,,,,,,,,,,,,,,,,,,,,,,,,,,,,,,,,,CS1_USpos,None,1,,,,,,,,,,,,,,,,,,19,f,42,n,2019_Oct_10_1315,ec_RRR,3.0.4,60.007
Kurdi and Ferguson,"For this task, the target creature is Bergmite:","So whenever Bergmite (his name or his picture) appears on the screen, hit the spacebar as quickly as possible. Hit the spacebar whenever you see an image of Bergmite or the word BERGMITE. 

Press the spacebar to start the task",target3,stimuli/t3.jpg,42,74,stimuli/target3_3.jpg,target,TRUE,space,,,,,,,,,,,,,,0,0,0,0,,,,,0,0,0,2,0,73,73,73,,,,,,,,,,,,,,,,,,,,,,,,,,,,,,,,,,,,,,,,,,,,,,,,,,,,,CS1_USpos,space,1,0.867509589,,,,,,,,,,,,,,,,,19,f,42,n,2019_Oct_10_1315,ec_RRR,3.0.4,60.007
Kurdi and Ferguson,"For this task, the target creature is Bergmite:","So whenever Bergmite (his name or his picture) appears on the screen, hit the spacebar as quickly as possible. Hit the spacebar whenever you see an image of Bergmite or the word BERGMITE. 

Press the spacebar to start the task",target3,stimuli/t3.jpg,42,75,stimuli/filler34.jpg,filler,FALSE,None,,,,,,,,,,,,,,0,0,0,0,,,,,0,0,0,2,0,74,74,74,,,,,,,,,,,,,,,,,,,,,,,,,,,,,,,,,,,,,,,,,,,,,,,,,,,,,CS1_USpos,None,1,,,,,,,,,,,,,,,,,,19,f,42,n,2019_Oct_10_1315,ec_RRR,3.0.4,60.007
Kurdi and Ferguson,"For this task, the target creature is Bergmite:","So whenever Bergmite (his name or his picture) appears on the screen, hit the spacebar as quickly as possible. Hit the spacebar whenever you see an image of Bergmite or the word BERGMITE. 

Press the spacebar to start the task",target3,stimuli/t3.jpg,42,76,stimuli/filler37.jpg,filler,FALSE,None,,,,,,,,,,,,,,0,0,0,0,,,,,0,0,0,2,0,75,75,75,,,,,,,,,,,,,,,,,,,,,,,,,,,,,,,,,,,,,,,,,,,,,,,,,,,,,CS1_USpos,None,1,,,,,,,,,,,,,,,,,,19,f,42,n,2019_Oct_10_1315,ec_RRR,3.0.4,60.007
Kurdi and Ferguson,"For this task, the target creature is Bergmite:","So whenever Bergmite (his name or his picture) appears on the screen, hit the spacebar as quickly as possible. Hit the spacebar whenever you see an image of Bergmite or the word BERGMITE. 

Press the spacebar to start the task",target3,stimuli/t3.jpg,42,77,stimuli/target3_10.jpg,target,TRUE,space,,,,,,,,,,,,,,0,0,0,0,,,,,0,0,0,2,0,76,76,76,,,,,,,,,,,,,,,,,,,,,,,,,,,,,,,,,,,,,,,,,,,,,,,,,,,,,CS1_USpos,space,1,0.599354829,,,,,,,,,,,,,,,,,19,f,42,n,2019_Oct_10_1315,ec_RRR,3.0.4,60.007
Kurdi and Ferguson,"For this task, the target creature is Bergmite:","So whenever Bergmite (his name or his picture) appears on the screen, hit the spacebar as quickly as possible. Hit the spacebar whenever you see an image of Bergmite or the word BERGMITE. 

Press the spacebar to start the task",target3,stimuli/t3.jpg,42,78,stimuli/filler13.jpg,filler,FALSE,None,,,,,,,,,,,,,,0,0,0,0,,,,,0,0,0,2,0,77,77,77,,,,,,,,,,,,,,,,,,,,,,,,,,,,,,,,,,,,,,,,,,,,,,,,,,,,,CS1_USpos,None,1,,,,,,,,,,,,,,,,,,19,f,42,n,2019_Oct_10_1315,ec_RRR,3.0.4,60.007
Kurdi and Ferguson,"For this task, the target creature is Bergmite:","So whenever Bergmite (his name or his picture) appears on the screen, hit the spacebar as quickly as possible. Hit the spacebar whenever you see an image of Bergmite or the word BERGMITE. 

Press the spacebar to start the task",target3,stimuli/t3.jpg,42,79,stimuli/filler16.jpg,filler,FALSE,None,,,,,,,,,,,,,,0,0,0,0,,,,,0,0,0,2,0,78,78,78,,,,,,,,,,,,,,,,,,,,,,,,,,,,,,,,,,,,,,,,,,,,,,,,,,,,,CS1_USpos,None,1,,,,,,,,,,,,,,,,,,19,f,42,n,2019_Oct_10_1315,ec_RRR,3.0.4,60.007
Kurdi and Ferguson,"For this task, the target creature is Bergmite:","So whenever Bergmite (his name or his picture) appears on the screen, hit the spacebar as quickly as possible. Hit the spacebar whenever you see an image of Bergmite or the word BERGMITE. 

Press the spacebar to start the task",target3,stimuli/t3.jpg,42,80,stimuli/blank.jpg,blank,FALSE,None,,,,,,,,,,,,,,0,0,0,0,,,,,0,0,0,2,0,79,79,79,,,,,,,,,,,,,,,,,,,,,,,,,,,,,,,,,,,,,,,,,,,,,,,,,,,,,CS1_USpos,None,1,,,,,,,,,,,,,,,,,,19,f,42,n,2019_Oct_10_1315,ec_RRR,3.0.4,60.007
Kurdi and Ferguson,"For this task, the target creature is Bergmite:","So whenever Bergmite (his name or his picture) appears on the screen, hit the spacebar as quickly as possible. Hit the spacebar whenever you see an image of Bergmite or the word BERGMITE. 

Press the spacebar to start the task",target3,stimuli/t3.jpg,42,81,stimuli/cs2_neg15.jpg,CSUS,FALSE,None,,,,,,,,,,,,,,0,0,0,0,,,,,0,0,0,2,0,80,80,80,,,,,,,,,,,,,,,,,,,,,,,,,,,,,,,,,,,,,,,,,,,,,,,,,,,,,CS1_USpos,None,1,,,,,,,,,,,,,,,,,,19,f,42,n,2019_Oct_10_1315,ec_RRR,3.0.4,60.007
Kurdi and Ferguson,"For this task, the target creature is Bergmite:","So whenever Bergmite (his name or his picture) appears on the screen, hit the spacebar as quickly as possible. Hit the spacebar whenever you see an image of Bergmite or the word BERGMITE. 

Press the spacebar to start the task",target3,stimuli/t3.jpg,42,82,stimuli/blank.jpg,blank,FALSE,None,,,,,,,,,,,,,,0,0,0,0,,,,,0,0,0,2,0,81,81,81,,,,,,,,,,,,,,,,,,,,,,,,,,,,,,,,,,,,,,,,,,,,,,,,,,,,,CS1_USpos,None,1,,,,,,,,,,,,,,,,,,19,f,42,n,2019_Oct_10_1315,ec_RRR,3.0.4,60.007
Kurdi and Ferguson,"For this task, the target creature is Bergmite:","So whenever Bergmite (his name or his picture) appears on the screen, hit the spacebar as quickly as possible. Hit the spacebar whenever you see an image of Bergmite or the word BERGMITE. 

Press the spacebar to start the task",target3,stimuli/t3.jpg,42,83,stimuli/target3_2.jpg,target,TRUE,space,,,,,,,,,,,,,,0,0,0,0,,,,,0,0,0,2,0,82,82,82,,,,,,,,,,,,,,,,,,,,,,,,,,,,,,,,,,,,,,,,,,,,,,,,,,,,,CS1_USpos,space,1,0.483917355,,,,,,,,,,,,,,,,,19,f,42,n,2019_Oct_10_1315,ec_RRR,3.0.4,60.007
Kurdi and Ferguson,"For this task, the target creature is Bergmite:","So whenever Bergmite (his name or his picture) appears on the screen, hit the spacebar as quickly as possible. Hit the spacebar whenever you see an image of Bergmite or the word BERGMITE. 

Press the spacebar to start the task",target3,stimuli/t3.jpg,42,84,stimuli/filler36.jpg,filler,FALSE,None,,,,,,,,,,,,,,0,0,0,0,,,,,0,0,0,2,0,83,83,83,,,,,,,,,,,,,,,,,,,,,,,,,,,,,,,,,,,,,,,,,,,,,,,,,,,,,CS1_USpos,None,1,,,,,,,,,,,,,,,,,,19,f,42,n,2019_Oct_10_1315,ec_RRR,3.0.4,60.007
Kurdi and Ferguson,"For this task, the target creature is Bergmite:","So whenever Bergmite (his name or his picture) appears on the screen, hit the spacebar as quickly as possible. Hit the spacebar whenever you see an image of Bergmite or the word BERGMITE. 

Press the spacebar to start the task",target3,stimuli/t3.jpg,42,85,stimuli/target3_8.jpg,target,TRUE,space,,,,,,,,,,,,,,0,0,0,0,,,,,0,0,0,2,0,84,84,84,,,,,,,,,,,,,,,,,,,,,,,,,,,,,,,,,,,,,,,,,,,,,,,,,,,,,CS1_USpos,space,1,0.582988899,,,,,,,,,,,,,,,,,19,f,42,n,2019_Oct_10_1315,ec_RRR,3.0.4,60.007
Kurdi and Ferguson,"For this task, the target creature is Bergmite:","So whenever Bergmite (his name or his picture) appears on the screen, hit the spacebar as quickly as possible. Hit the spacebar whenever you see an image of Bergmite or the word BERGMITE. 

Press the spacebar to start the task",target3,stimuli/t3.jpg,42,86,stimuli/filler25.jpg,filler,FALSE,None,,,,,,,,,,,,,,0,0,0,0,,,,,0,0,0,2,0,85,85,85,,,,,,,,,,,,,,,,,,,,,,,,,,,,,,,,,,,,,,,,,,,,,,,,,,,,,CS1_USpos,None,1,,,,,,,,,,,,,,,,,,19,f,42,n,2019_Oct_10_1315,ec_RRR,3.0.4,60.007
Kurdi and Ferguson,"For this task, the target creature is Golett:","So whenever Golett (his name or his picture) appears on the screen, hit the spacebar as quickly as possible. Hit the spacebar whenever you see an image of Golett or the word GOLETT. 

Press the spacebar to start the task",target5,stimuli/t5.jpg,42,1,stimuli/filler14.jpg,filler,FALSE,None,,,,,,,,,,,,,,0,0,0,0,,,,,0,1,1,4,0,0,0,0,,,,,,,,,,,,,,,,,,,,,,,,,,,,,,,,,,,,,,,,,,,,,,,,,,,,,CS1_USpos,None,1,,,,,,,,,,,,,,,,,,19,f,42,n,2019_Oct_10_1315,ec_RRR,3.0.4,60.007
Kurdi and Ferguson,"For this task, the target creature is Golett:","So whenever Golett (his name or his picture) appears on the screen, hit the spacebar as quickly as possible. Hit the spacebar whenever you see an image of Golett or the word GOLETT. 

Press the spacebar to start the task",target5,stimuli/t5.jpg,42,2,stimuli/filler2.jpg,filler,FALSE,None,,,,,,,,,,,,,,0,0,0,0,,,,,0,1,1,4,0,1,1,1,,,,,,,,,,,,,,,,,,,,,,,,,,,,,,,,,,,,,,,,,,,,,,,,,,,,,CS1_USpos,None,1,,,,,,,,,,,,,,,,,,19,f,42,n,2019_Oct_10_1315,ec_RRR,3.0.4,60.007
Kurdi and Ferguson,"For this task, the target creature is Golett:","So whenever Golett (his name or his picture) appears on the screen, hit the spacebar as quickly as possible. Hit the spacebar whenever you see an image of Golett or the word GOLETT. 

Press the spacebar to start the task",target5,stimuli/t5.jpg,42,3,stimuli/filler21.jpg,filler,FALSE,None,,,,,,,,,,,,,,0,0,0,0,,,,,0,1,1,4,0,2,2,2,,,,,,,,,,,,,,,,,,,,,,,,,,,,,,,,,,,,,,,,,,,,,,,,,,,,,CS1_USpos,None,1,,,,,,,,,,,,,,,,,,19,f,42,n,2019_Oct_10_1315,ec_RRR,3.0.4,60.007
Kurdi and Ferguson,"For this task, the target creature is Golett:","So whenever Golett (his name or his picture) appears on the screen, hit the spacebar as quickly as possible. Hit the spacebar whenever you see an image of Golett or the word GOLETT. 

Press the spacebar to start the task",target5,stimuli/t5.jpg,42,4,stimuli/target5_7.jpg,target,TRUE,space,,,,,,,,,,,,,,0,0,0,0,,,,,0,1,1,4,0,3,3,3,,,,,,,,,,,,,,,,,,,,,,,,,,,,,,,,,,,,,,,,,,,,,,,,,,,,,CS1_USpos,space,1,0.509333008,,,,,,,,,,,,,,,,,19,f,42,n,2019_Oct_10_1315,ec_RRR,3.0.4,60.007
Kurdi and Ferguson,"For this task, the target creature is Golett:","So whenever Golett (his name or his picture) appears on the screen, hit the spacebar as quickly as possible. Hit the spacebar whenever you see an image of Golett or the word GOLETT. 

Press the spacebar to start the task",target5,stimuli/t5.jpg,42,5,stimuli/filler7.jpg,filler,FALSE,None,,,,,,,,,,,,,,0,0,0,0,,,,,0,1,1,4,0,4,4,4,,,,,,,,,,,,,,,,,,,,,,,,,,,,,,,,,,,,,,,,,,,,,,,,,,,,,CS1_USpos,None,1,,,,,,,,,,,,,,,,,,19,f,42,n,2019_Oct_10_1315,ec_RRR,3.0.4,60.007
Kurdi and Ferguson,"For this task, the target creature is Golett:","So whenever Golett (his name or his picture) appears on the screen, hit the spacebar as quickly as possible. Hit the spacebar whenever you see an image of Golett or the word GOLETT. 

Press the spacebar to start the task",target5,stimuli/t5.jpg,42,6,stimuli/filler12.jpg,filler,FALSE,None,,,,,,,,,,,,,,0,0,0,0,,,,,0,1,1,4,0,5,5,5,,,,,,,,,,,,,,,,,,,,,,,,,,,,,,,,,,,,,,,,,,,,,,,,,,,,,CS1_USpos,None,1,,,,,,,,,,,,,,,,,,19,f,42,n,2019_Oct_10_1315,ec_RRR,3.0.4,60.007
Kurdi and Ferguson,"For this task, the target creature is Golett:","So whenever Golett (his name or his picture) appears on the screen, hit the spacebar as quickly as possible. Hit the spacebar whenever you see an image of Golett or the word GOLETT. 

Press the spacebar to start the task",target5,stimuli/t5.jpg,42,7,stimuli/filler22.jpg,filler,FALSE,None,,,,,,,,,,,,,,0,0,0,0,,,,,0,1,1,4,0,6,6,6,,,,,,,,,,,,,,,,,,,,,,,,,,,,,,,,,,,,,,,,,,,,,,,,,,,,,CS1_USpos,None,1,,,,,,,,,,,,,,,,,,19,f,42,n,2019_Oct_10_1315,ec_RRR,3.0.4,60.007
Kurdi and Ferguson,"For this task, the target creature is Golett:","So whenever Golett (his name or his picture) appears on the screen, hit the spacebar as quickly as possible. Hit the spacebar whenever you see an image of Golett or the word GOLETT. 

Press the spacebar to start the task",target5,stimuli/t5.jpg,42,8,stimuli/filler8.jpg,filler,FALSE,None,,,,,,,,,,,,,,0,0,0,0,,,,,0,1,1,4,0,7,7,7,,,,,,,,,,,,,,,,,,,,,,,,,,,,,,,,,,,,,,,,,,,,,,,,,,,,,CS1_USpos,None,1,,,,,,,,,,,,,,,,,,19,f,42,n,2019_Oct_10_1315,ec_RRR,3.0.4,60.007
Kurdi and Ferguson,"For this task, the target creature is Golett:","So whenever Golett (his name or his picture) appears on the screen, hit the spacebar as quickly as possible. Hit the spacebar whenever you see an image of Golett or the word GOLETT. 

Press the spacebar to start the task",target5,stimuli/t5.jpg,42,9,stimuli/filler39.jpg,filler,FALSE,None,,,,,,,,,,,,,,0,0,0,0,,,,,0,1,1,4,0,8,8,8,,,,,,,,,,,,,,,,,,,,,,,,,,,,,,,,,,,,,,,,,,,,,,,,,,,,,CS1_USpos,None,1,,,,,,,,,,,,,,,,,,19,f,42,n,2019_Oct_10_1315,ec_RRR,3.0.4,60.007
Kurdi and Ferguson,"For this task, the target creature is Golett:","So whenever Golett (his name or his picture) appears on the screen, hit the spacebar as quickly as possible. Hit the spacebar whenever you see an image of Golett or the word GOLETT. 

Press the spacebar to start the task",target5,stimuli/t5.jpg,42,10,stimuli/blank.jpg,blank,FALSE,None,,,,,,,,,,,,,,0,0,0,0,,,,,0,1,1,4,0,9,9,9,,,,,,,,,,,,,,,,,,,,,,,,,,,,,,,,,,,,,,,,,,,,,,,,,,,,,CS1_USpos,None,1,,,,,,,,,,,,,,,,,,19,f,42,n,2019_Oct_10_1315,ec_RRR,3.0.4,60.007
Kurdi and Ferguson,"For this task, the target creature is Golett:","So whenever Golett (his name or his picture) appears on the screen, hit the spacebar as quickly as possible. Hit the spacebar whenever you see an image of Golett or the word GOLETT. 

Press the spacebar to start the task",target5,stimuli/t5.jpg,42,11,stimuli/cs1_pos19.jpg,CSUS,FALSE,None,,,,,,,,,,,,,,0,0,0,0,,,,,0,1,1,4,0,10,10,10,,,,,,,,,,,,,,,,,,,,,,,,,,,,,,,,,,,,,,,,,,,,,,,,,,,,,CS1_USpos,None,1,,,,,,,,,,,,,,,,,,19,f,42,n,2019_Oct_10_1315,ec_RRR,3.0.4,60.007
Kurdi and Ferguson,"For this task, the target creature is Golett:","So whenever Golett (his name or his picture) appears on the screen, hit the spacebar as quickly as possible. Hit the spacebar whenever you see an image of Golett or the word GOLETT. 

Press the spacebar to start the task",target5,stimuli/t5.jpg,42,12,stimuli/blank.jpg,blank,FALSE,None,,,,,,,,,,,,,,0,0,0,0,,,,,0,1,1,4,0,11,11,11,,,,,,,,,,,,,,,,,,,,,,,,,,,,,,,,,,,,,,,,,,,,,,,,,,,,,CS1_USpos,None,1,,,,,,,,,,,,,,,,,,19,f,42,n,2019_Oct_10_1315,ec_RRR,3.0.4,60.007
Kurdi and Ferguson,"For this task, the target creature is Golett:","So whenever Golett (his name or his picture) appears on the screen, hit the spacebar as quickly as possible. Hit the spacebar whenever you see an image of Golett or the word GOLETT. 

Press the spacebar to start the task",target5,stimuli/t5.jpg,42,13,stimuli/filler40.jpg,filler,FALSE,None,,,,,,,,,,,,,,0,0,0,0,,,,,0,1,1,4,0,12,12,12,,,,,,,,,,,,,,,,,,,,,,,,,,,,,,,,,,,,,,,,,,,,,,,,,,,,,CS1_USpos,None,1,,,,,,,,,,,,,,,,,,19,f,42,n,2019_Oct_10_1315,ec_RRR,3.0.4,60.007
Kurdi and Ferguson,"For this task, the target creature is Golett:","So whenever Golett (his name or his picture) appears on the screen, hit the spacebar as quickly as possible. Hit the spacebar whenever you see an image of Golett or the word GOLETT. 

Press the spacebar to start the task",target5,stimuli/t5.jpg,42,14,stimuli/filler16.jpg,filler,FALSE,None,,,,,,,,,,,,,,0,0,0,0,,,,,0,1,1,4,0,13,13,13,,,,,,,,,,,,,,,,,,,,,,,,,,,,,,,,,,,,,,,,,,,,,,,,,,,,,CS1_USpos,None,1,,,,,,,,,,,,,,,,,,19,f,42,n,2019_Oct_10_1315,ec_RRR,3.0.4,60.007
Kurdi and Ferguson,"For this task, the target creature is Golett:","So whenever Golett (his name or his picture) appears on the screen, hit the spacebar as quickly as possible. Hit the spacebar whenever you see an image of Golett or the word GOLETT. 

Press the spacebar to start the task",target5,stimuli/t5.jpg,42,15,stimuli/target5_1.jpg,target,TRUE,space,,,,,,,,,,,,,,0,0,0,0,,,,,0,1,1,4,0,14,14,14,,,,,,,,,,,,,,,,,,,,,,,,,,,,,,,,,,,,,,,,,,,,,,,,,,,,,CS1_USpos,space,1,0.857033329,,,,,,,,,,,,,,,,,19,f,42,n,2019_Oct_10_1315,ec_RRR,3.0.4,60.007
Kurdi and Ferguson,"For this task, the target creature is Golett:","So whenever Golett (his name or his picture) appears on the screen, hit the spacebar as quickly as possible. Hit the spacebar whenever you see an image of Golett or the word GOLETT. 

Press the spacebar to start the task",target5,stimuli/t5.jpg,42,16,stimuli/filler25.jpg,filler,FALSE,None,,,,,,,,,,,,,,0,0,0,0,,,,,0,1,1,4,0,15,15,15,,,,,,,,,,,,,,,,,,,,,,,,,,,,,,,,,,,,,,,,,,,,,,,,,,,,,CS1_USpos,None,1,,,,,,,,,,,,,,,,,,19,f,42,n,2019_Oct_10_1315,ec_RRR,3.0.4,60.007
Kurdi and Ferguson,"For this task, the target creature is Golett:","So whenever Golett (his name or his picture) appears on the screen, hit the spacebar as quickly as possible. Hit the spacebar whenever you see an image of Golett or the word GOLETT. 

Press the spacebar to start the task",target5,stimuli/t5.jpg,42,17,stimuli/filler19.jpg,filler,FALSE,None,,,,,,,,,,,,,,0,0,0,0,,,,,0,1,1,4,0,16,16,16,,,,,,,,,,,,,,,,,,,,,,,,,,,,,,,,,,,,,,,,,,,,,,,,,,,,,CS1_USpos,None,1,,,,,,,,,,,,,,,,,,19,f,42,n,2019_Oct_10_1315,ec_RRR,3.0.4,60.007
Kurdi and Ferguson,"For this task, the target creature is Golett:","So whenever Golett (his name or his picture) appears on the screen, hit the spacebar as quickly as possible. Hit the spacebar whenever you see an image of Golett or the word GOLETT. 

Press the spacebar to start the task",target5,stimuli/t5.jpg,42,18,stimuli/filler23.jpg,filler,FALSE,None,,,,,,,,,,,,,,0,0,0,0,,,,,0,1,1,4,0,17,17,17,,,,,,,,,,,,,,,,,,,,,,,,,,,,,,,,,,,,,,,,,,,,,,,,,,,,,CS1_USpos,None,1,,,,,,,,,,,,,,,,,,19,f,42,n,2019_Oct_10_1315,ec_RRR,3.0.4,60.007
Kurdi and Ferguson,"For this task, the target creature is Golett:","So whenever Golett (his name or his picture) appears on the screen, hit the spacebar as quickly as possible. Hit the spacebar whenever you see an image of Golett or the word GOLETT. 

Press the spacebar to start the task",target5,stimuli/t5.jpg,42,19,stimuli/filler32.jpg,filler,FALSE,None,,,,,,,,,,,,,,0,0,0,0,,,,,0,1,1,4,0,18,18,18,,,,,,,,,,,,,,,,,,,,,,,,,,,,,,,,,,,,,,,,,,,,,,,,,,,,,CS1_USpos,None,1,,,,,,,,,,,,,,,,,,19,f,42,n,2019_Oct_10_1315,ec_RRR,3.0.4,60.007
Kurdi and Ferguson,"For this task, the target creature is Golett:","So whenever Golett (his name or his picture) appears on the screen, hit the spacebar as quickly as possible. Hit the spacebar whenever you see an image of Golett or the word GOLETT. 

Press the spacebar to start the task",target5,stimuli/t5.jpg,42,20,stimuli/blank.jpg,blank,FALSE,None,,,,,,,,,,,,,,0,0,0,0,,,,,0,1,1,4,0,19,19,19,,,,,,,,,,,,,,,,,,,,,,,,,,,,,,,,,,,,,,,,,,,,,,,,,,,,,CS1_USpos,None,1,,,,,,,,,,,,,,,,,,19,f,42,n,2019_Oct_10_1315,ec_RRR,3.0.4,60.007
Kurdi and Ferguson,"For this task, the target creature is Golett:","So whenever Golett (his name or his picture) appears on the screen, hit the spacebar as quickly as possible. Hit the spacebar whenever you see an image of Golett or the word GOLETT. 

Press the spacebar to start the task",target5,stimuli/t5.jpg,42,21,stimuli/cs2_neg16.jpg,CSUS,FALSE,None,,,,,,,,,,,,,,0,0,0,0,,,,,0,1,1,4,0,20,20,20,,,,,,,,,,,,,,,,,,,,,,,,,,,,,,,,,,,,,,,,,,,,,,,,,,,,,CS1_USpos,None,1,,,,,,,,,,,,,,,,,,19,f,42,n,2019_Oct_10_1315,ec_RRR,3.0.4,60.007
Kurdi and Ferguson,"For this task, the target creature is Golett:","So whenever Golett (his name or his picture) appears on the screen, hit the spacebar as quickly as possible. Hit the spacebar whenever you see an image of Golett or the word GOLETT. 

Press the spacebar to start the task",target5,stimuli/t5.jpg,42,22,stimuli/blank.jpg,blank,FALSE,None,,,,,,,,,,,,,,0,0,0,0,,,,,0,1,1,4,0,21,21,21,,,,,,,,,,,,,,,,,,,,,,,,,,,,,,,,,,,,,,,,,,,,,,,,,,,,,CS1_USpos,None,1,,,,,,,,,,,,,,,,,,19,f,42,n,2019_Oct_10_1315,ec_RRR,3.0.4,60.007
Kurdi and Ferguson,"For this task, the target creature is Golett:","So whenever Golett (his name or his picture) appears on the screen, hit the spacebar as quickly as possible. Hit the spacebar whenever you see an image of Golett or the word GOLETT. 

Press the spacebar to start the task",target5,stimuli/t5.jpg,42,23,stimuli/filler27.jpg,filler,FALSE,None,,,,,,,,,,,,,,0,0,0,0,,,,,0,1,1,4,0,22,22,22,,,,,,,,,,,,,,,,,,,,,,,,,,,,,,,,,,,,,,,,,,,,,,,,,,,,,CS1_USpos,None,1,,,,,,,,,,,,,,,,,,19,f,42,n,2019_Oct_10_1315,ec_RRR,3.0.4,60.007
Kurdi and Ferguson,"For this task, the target creature is Golett:","So whenever Golett (his name or his picture) appears on the screen, hit the spacebar as quickly as possible. Hit the spacebar whenever you see an image of Golett or the word GOLETT. 

Press the spacebar to start the task",target5,stimuli/t5.jpg,42,24,stimuli/target5_6.jpg,target,TRUE,space,,,,,,,,,,,,,,0,0,0,0,,,,,0,1,1,4,0,23,23,23,,,,,,,,,,,,,,,,,,,,,,,,,,,,,,,,,,,,,,,,,,,,,,,,,,,,,CS1_USpos,space,1,0.675158674,,,,,,,,,,,,,,,,,19,f,42,n,2019_Oct_10_1315,ec_RRR,3.0.4,60.007
Kurdi and Ferguson,"For this task, the target creature is Golett:","So whenever Golett (his name or his picture) appears on the screen, hit the spacebar as quickly as possible. Hit the spacebar whenever you see an image of Golett or the word GOLETT. 

Press the spacebar to start the task",target5,stimuli/t5.jpg,42,25,stimuli/filler6.jpg,filler,FALSE,None,,,,,,,,,,,,,,0,0,0,0,,,,,0,1,1,4,0,24,24,24,,,,,,,,,,,,,,,,,,,,,,,,,,,,,,,,,,,,,,,,,,,,,,,,,,,,,CS1_USpos,None,1,,,,,,,,,,,,,,,,,,19,f,42,n,2019_Oct_10_1315,ec_RRR,3.0.4,60.007
Kurdi and Ferguson,"For this task, the target creature is Golett:","So whenever Golett (his name or his picture) appears on the screen, hit the spacebar as quickly as possible. Hit the spacebar whenever you see an image of Golett or the word GOLETT. 

Press the spacebar to start the task",target5,stimuli/t5.jpg,42,26,stimuli/filler38.jpg,filler,FALSE,None,,,,,,,,,,,,,,0,0,0,0,,,,,0,1,1,4,0,25,25,25,,,,,,,,,,,,,,,,,,,,,,,,,,,,,,,,,,,,,,,,,,,,,,,,,,,,,CS1_USpos,None,1,,,,,,,,,,,,,,,,,,19,f,42,n,2019_Oct_10_1315,ec_RRR,3.0.4,60.007
Kurdi and Ferguson,"For this task, the target creature is Golett:","So whenever Golett (his name or his picture) appears on the screen, hit the spacebar as quickly as possible. Hit the spacebar whenever you see an image of Golett or the word GOLETT. 

Press the spacebar to start the task",target5,stimuli/t5.jpg,42,27,stimuli/target5_3.jpg,target,TRUE,space,,,,,,,,,,,,,,0,0,0,0,,,,,0,1,1,4,0,26,26,26,,,,,,,,,,,,,,,,,,,,,,,,,,,,,,,,,,,,,,,,,,,,,,,,,,,,,CS1_USpos,space,1,0.617036517,,,,,,,,,,,,,,,,,19,f,42,n,2019_Oct_10_1315,ec_RRR,3.0.4,60.007
Kurdi and Ferguson,"For this task, the target creature is Golett:","So whenever Golett (his name or his picture) appears on the screen, hit the spacebar as quickly as possible. Hit the spacebar whenever you see an image of Golett or the word GOLETT. 

Press the spacebar to start the task",target5,stimuli/t5.jpg,42,28,stimuli/filler48.jpg,filler,FALSE,None,,,,,,,,,,,,,,0,0,0,0,,,,,0,1,1,4,0,27,27,27,,,,,,,,,,,,,,,,,,,,,,,,,,,,,,,,,,,,,,,,,,,,,,,,,,,,,CS1_USpos,None,1,,,,,,,,,,,,,,,,,,19,f,42,n,2019_Oct_10_1315,ec_RRR,3.0.4,60.007
Kurdi and Ferguson,"For this task, the target creature is Golett:","So whenever Golett (his name or his picture) appears on the screen, hit the spacebar as quickly as possible. Hit the spacebar whenever you see an image of Golett or the word GOLETT. 

Press the spacebar to start the task",target5,stimuli/t5.jpg,42,29,stimuli/target5_10.jpg,target,TRUE,space,,,,,,,,,,,,,,0,0,0,0,,,,,0,1,1,4,0,28,28,28,,,,,,,,,,,,,,,,,,,,,,,,,,,,,,,,,,,,,,,,,,,,,,,,,,,,,CS1_USpos,space,1,0.538963072,,,,,,,,,,,,,,,,,19,f,42,n,2019_Oct_10_1315,ec_RRR,3.0.4,60.007
Kurdi and Ferguson,"For this task, the target creature is Golett:","So whenever Golett (his name or his picture) appears on the screen, hit the spacebar as quickly as possible. Hit the spacebar whenever you see an image of Golett or the word GOLETT. 

Press the spacebar to start the task",target5,stimuli/t5.jpg,42,30,stimuli/blank.jpg,blank,FALSE,None,,,,,,,,,,,,,,0,0,0,0,,,,,0,1,1,4,0,29,29,29,,,,,,,,,,,,,,,,,,,,,,,,,,,,,,,,,,,,,,,,,,,,,,,,,,,,,CS1_USpos,None,1,,,,,,,,,,,,,,,,,,19,f,42,n,2019_Oct_10_1315,ec_RRR,3.0.4,60.007
Kurdi and Ferguson,"For this task, the target creature is Golett:","So whenever Golett (his name or his picture) appears on the screen, hit the spacebar as quickly as possible. Hit the spacebar whenever you see an image of Golett or the word GOLETT. 

Press the spacebar to start the task",target5,stimuli/t5.jpg,42,31,stimuli/cs1_pos8.jpg,CSUS,FALSE,None,,,,,,,,,,,,,,0,0,0,0,,,,,0,1,1,4,0,30,30,30,,,,,,,,,,,,,,,,,,,,,,,,,,,,,,,,,,,,,,,,,,,,,,,,,,,,,CS1_USpos,None,1,,,,,,,,,,,,,,,,,,19,f,42,n,2019_Oct_10_1315,ec_RRR,3.0.4,60.007
Kurdi and Ferguson,"For this task, the target creature is Golett:","So whenever Golett (his name or his picture) appears on the screen, hit the spacebar as quickly as possible. Hit the spacebar whenever you see an image of Golett or the word GOLETT. 

Press the spacebar to start the task",target5,stimuli/t5.jpg,42,32,stimuli/blank.jpg,blank,FALSE,None,,,,,,,,,,,,,,0,0,0,0,,,,,0,1,1,4,0,31,31,31,,,,,,,,,,,,,,,,,,,,,,,,,,,,,,,,,,,,,,,,,,,,,,,,,,,,,CS1_USpos,None,1,,,,,,,,,,,,,,,,,,19,f,42,n,2019_Oct_10_1315,ec_RRR,3.0.4,60.007
Kurdi and Ferguson,"For this task, the target creature is Golett:","So whenever Golett (his name or his picture) appears on the screen, hit the spacebar as quickly as possible. Hit the spacebar whenever you see an image of Golett or the word GOLETT. 

Press the spacebar to start the task",target5,stimuli/t5.jpg,42,33,stimuli/filler47.jpg,filler,FALSE,None,,,,,,,,,,,,,,0,0,0,0,,,,,0,1,1,4,0,32,32,32,,,,,,,,,,,,,,,,,,,,,,,,,,,,,,,,,,,,,,,,,,,,,,,,,,,,,CS1_USpos,None,1,,,,,,,,,,,,,,,,,,19,f,42,n,2019_Oct_10_1315,ec_RRR,3.0.4,60.007
Kurdi and Ferguson,"For this task, the target creature is Golett:","So whenever Golett (his name or his picture) appears on the screen, hit the spacebar as quickly as possible. Hit the spacebar whenever you see an image of Golett or the word GOLETT. 

Press the spacebar to start the task",target5,stimuli/t5.jpg,42,34,stimuli/target5_8.jpg,target,TRUE,space,,,,,,,,,,,,,,0,0,0,0,,,,,0,1,1,4,0,33,33,33,,,,,,,,,,,,,,,,,,,,,,,,,,,,,,,,,,,,,,,,,,,,,,,,,,,,,CS1_USpos,space,1,0.609665977,,,,,,,,,,,,,,,,,19,f,42,n,2019_Oct_10_1315,ec_RRR,3.0.4,60.007
Kurdi and Ferguson,"For this task, the target creature is Golett:","So whenever Golett (his name or his picture) appears on the screen, hit the spacebar as quickly as possible. Hit the spacebar whenever you see an image of Golett or the word GOLETT. 

Press the spacebar to start the task",target5,stimuli/t5.jpg,42,35,stimuli/filler30.jpg,filler,FALSE,None,,,,,,,,,,,,,,0,0,0,0,,,,,0,1,1,4,0,34,34,34,,,,,,,,,,,,,,,,,,,,,,,,,,,,,,,,,,,,,,,,,,,,,,,,,,,,,CS1_USpos,None,1,,,,,,,,,,,,,,,,,,19,f,42,n,2019_Oct_10_1315,ec_RRR,3.0.4,60.007
Kurdi and Ferguson,"For this task, the target creature is Golett:","So whenever Golett (his name or his picture) appears on the screen, hit the spacebar as quickly as possible. Hit the spacebar whenever you see an image of Golett or the word GOLETT. 

Press the spacebar to start the task",target5,stimuli/t5.jpg,42,36,stimuli/filler4.jpg,filler,FALSE,None,,,,,,,,,,,,,,0,0,0,0,,,,,0,1,1,4,0,35,35,35,,,,,,,,,,,,,,,,,,,,,,,,,,,,,,,,,,,,,,,,,,,,,,,,,,,,,CS1_USpos,None,1,,,,,,,,,,,,,,,,,,19,f,42,n,2019_Oct_10_1315,ec_RRR,3.0.4,60.007
Kurdi and Ferguson,"For this task, the target creature is Golett:","So whenever Golett (his name or his picture) appears on the screen, hit the spacebar as quickly as possible. Hit the spacebar whenever you see an image of Golett or the word GOLETT. 

Press the spacebar to start the task",target5,stimuli/t5.jpg,42,37,stimuli/filler41.jpg,filler,FALSE,None,,,,,,,,,,,,,,0,0,0,0,,,,,0,1,1,4,0,36,36,36,,,,,,,,,,,,,,,,,,,,,,,,,,,,,,,,,,,,,,,,,,,,,,,,,,,,,CS1_USpos,None,1,,,,,,,,,,,,,,,,,,19,f,42,n,2019_Oct_10_1315,ec_RRR,3.0.4,60.007
Kurdi and Ferguson,"For this task, the target creature is Golett:","So whenever Golett (his name or his picture) appears on the screen, hit the spacebar as quickly as possible. Hit the spacebar whenever you see an image of Golett or the word GOLETT. 

Press the spacebar to start the task",target5,stimuli/t5.jpg,42,38,stimuli/filler5.jpg,filler,FALSE,None,,,,,,,,,,,,,,0,0,0,0,,,,,0,1,1,4,0,37,37,37,,,,,,,,,,,,,,,,,,,,,,,,,,,,,,,,,,,,,,,,,,,,,,,,,,,,,CS1_USpos,None,1,,,,,,,,,,,,,,,,,,19,f,42,n,2019_Oct_10_1315,ec_RRR,3.0.4,60.007
Kurdi and Ferguson,"For this task, the target creature is Golett:","So whenever Golett (his name or his picture) appears on the screen, hit the spacebar as quickly as possible. Hit the spacebar whenever you see an image of Golett or the word GOLETT. 

Press the spacebar to start the task",target5,stimuli/t5.jpg,42,39,stimuli/filler15.jpg,filler,FALSE,None,,,,,,,,,,,,,,0,0,0,0,,,,,0,1,1,4,0,38,38,38,,,,,,,,,,,,,,,,,,,,,,,,,,,,,,,,,,,,,,,,,,,,,,,,,,,,,CS1_USpos,None,1,,,,,,,,,,,,,,,,,,19,f,42,n,2019_Oct_10_1315,ec_RRR,3.0.4,60.007
Kurdi and Ferguson,"For this task, the target creature is Golett:","So whenever Golett (his name or his picture) appears on the screen, hit the spacebar as quickly as possible. Hit the spacebar whenever you see an image of Golett or the word GOLETT. 

Press the spacebar to start the task",target5,stimuli/t5.jpg,42,40,stimuli/blank.jpg,blank,FALSE,None,,,,,,,,,,,,,,0,0,0,0,,,,,0,1,1,4,0,39,39,39,,,,,,,,,,,,,,,,,,,,,,,,,,,,,,,,,,,,,,,,,,,,,,,,,,,,,CS1_USpos,None,1,,,,,,,,,,,,,,,,,,19,f,42,n,2019_Oct_10_1315,ec_RRR,3.0.4,60.007
Kurdi and Ferguson,"For this task, the target creature is Golett:","So whenever Golett (his name or his picture) appears on the screen, hit the spacebar as quickly as possible. Hit the spacebar whenever you see an image of Golett or the word GOLETT. 

Press the spacebar to start the task",target5,stimuli/t5.jpg,42,41,stimuli/cs2_neg12.jpg,CSUS,FALSE,None,,,,,,,,,,,,,,0,0,0,0,,,,,0,1,1,4,0,40,40,40,,,,,,,,,,,,,,,,,,,,,,,,,,,,,,,,,,,,,,,,,,,,,,,,,,,,,CS1_USpos,None,1,,,,,,,,,,,,,,,,,,19,f,42,n,2019_Oct_10_1315,ec_RRR,3.0.4,60.007
Kurdi and Ferguson,"For this task, the target creature is Golett:","So whenever Golett (his name or his picture) appears on the screen, hit the spacebar as quickly as possible. Hit the spacebar whenever you see an image of Golett or the word GOLETT. 

Press the spacebar to start the task",target5,stimuli/t5.jpg,42,42,stimuli/blank.jpg,blank,FALSE,None,,,,,,,,,,,,,,0,0,0,0,,,,,0,1,1,4,0,41,41,41,,,,,,,,,,,,,,,,,,,,,,,,,,,,,,,,,,,,,,,,,,,,,,,,,,,,,CS1_USpos,None,1,,,,,,,,,,,,,,,,,,19,f,42,n,2019_Oct_10_1315,ec_RRR,3.0.4,60.007
Kurdi and Ferguson,"For this task, the target creature is Golett:","So whenever Golett (his name or his picture) appears on the screen, hit the spacebar as quickly as possible. Hit the spacebar whenever you see an image of Golett or the word GOLETT. 

Press the spacebar to start the task",target5,stimuli/t5.jpg,42,43,stimuli/filler28.jpg,filler,FALSE,None,,,,,,,,,,,,,,0,0,0,0,,,,,0,1,1,4,0,42,42,42,,,,,,,,,,,,,,,,,,,,,,,,,,,,,,,,,,,,,,,,,,,,,,,,,,,,,CS1_USpos,None,1,,,,,,,,,,,,,,,,,,19,f,42,n,2019_Oct_10_1315,ec_RRR,3.0.4,60.007
Kurdi and Ferguson,"For this task, the target creature is Golett:","So whenever Golett (his name or his picture) appears on the screen, hit the spacebar as quickly as possible. Hit the spacebar whenever you see an image of Golett or the word GOLETT. 

Press the spacebar to start the task",target5,stimuli/t5.jpg,42,44,stimuli/filler13.jpg,filler,FALSE,None,,,,,,,,,,,,,,0,0,0,0,,,,,0,1,1,4,0,43,43,43,,,,,,,,,,,,,,,,,,,,,,,,,,,,,,,,,,,,,,,,,,,,,,,,,,,,,CS1_USpos,None,1,,,,,,,,,,,,,,,,,,19,f,42,n,2019_Oct_10_1315,ec_RRR,3.0.4,60.007
Kurdi and Ferguson,"For this task, the target creature is Golett:","So whenever Golett (his name or his picture) appears on the screen, hit the spacebar as quickly as possible. Hit the spacebar whenever you see an image of Golett or the word GOLETT. 

Press the spacebar to start the task",target5,stimuli/t5.jpg,42,45,stimuli/filler50.jpg,filler,FALSE,None,,,,,,,,,,,,,,0,0,0,0,,,,,0,1,1,4,0,44,44,44,,,,,,,,,,,,,,,,,,,,,,,,,,,,,,,,,,,,,,,,,,,,,,,,,,,,,CS1_USpos,None,1,,,,,,,,,,,,,,,,,,19,f,42,n,2019_Oct_10_1315,ec_RRR,3.0.4,60.007
Kurdi and Ferguson,"For this task, the target creature is Golett:","So whenever Golett (his name or his picture) appears on the screen, hit the spacebar as quickly as possible. Hit the spacebar whenever you see an image of Golett or the word GOLETT. 

Press the spacebar to start the task",target5,stimuli/t5.jpg,42,46,stimuli/filler31.jpg,filler,FALSE,None,,,,,,,,,,,,,,0,0,0,0,,,,,0,1,1,4,0,45,45,45,,,,,,,,,,,,,,,,,,,,,,,,,,,,,,,,,,,,,,,,,,,,,,,,,,,,,CS1_USpos,None,1,,,,,,,,,,,,,,,,,,19,f,42,n,2019_Oct_10_1315,ec_RRR,3.0.4,60.007
Kurdi and Ferguson,"For this task, the target creature is Golett:","So whenever Golett (his name or his picture) appears on the screen, hit the spacebar as quickly as possible. Hit the spacebar whenever you see an image of Golett or the word GOLETT. 

Press the spacebar to start the task",target5,stimuli/t5.jpg,42,47,stimuli/filler10.jpg,filler,FALSE,None,,,,,,,,,,,,,,0,0,0,0,,,,,0,1,1,4,0,46,46,46,,,,,,,,,,,,,,,,,,,,,,,,,,,,,,,,,,,,,,,,,,,,,,,,,,,,,CS1_USpos,None,1,,,,,,,,,,,,,,,,,,19,f,42,n,2019_Oct_10_1315,ec_RRR,3.0.4,60.007
Kurdi and Ferguson,"For this task, the target creature is Golett:","So whenever Golett (his name or his picture) appears on the screen, hit the spacebar as quickly as possible. Hit the spacebar whenever you see an image of Golett or the word GOLETT. 

Press the spacebar to start the task",target5,stimuli/t5.jpg,42,48,stimuli/filler42.jpg,filler,FALSE,None,,,,,,,,,,,,,,0,0,0,0,,,,,0,1,1,4,0,47,47,47,,,,,,,,,,,,,,,,,,,,,,,,,,,,,,,,,,,,,,,,,,,,,,,,,,,,,CS1_USpos,None,1,,,,,,,,,,,,,,,,,,19,f,42,n,2019_Oct_10_1315,ec_RRR,3.0.4,60.007
Kurdi and Ferguson,"For this task, the target creature is Golett:","So whenever Golett (his name or his picture) appears on the screen, hit the spacebar as quickly as possible. Hit the spacebar whenever you see an image of Golett or the word GOLETT. 

Press the spacebar to start the task",target5,stimuli/t5.jpg,42,49,stimuli/filler44.jpg,filler,FALSE,None,,,,,,,,,,,,,,0,0,0,0,,,,,0,1,1,4,0,48,48,48,,,,,,,,,,,,,,,,,,,,,,,,,,,,,,,,,,,,,,,,,,,,,,,,,,,,,CS1_USpos,None,1,,,,,,,,,,,,,,,,,,19,f,42,n,2019_Oct_10_1315,ec_RRR,3.0.4,60.007
Kurdi and Ferguson,"For this task, the target creature is Golett:","So whenever Golett (his name or his picture) appears on the screen, hit the spacebar as quickly as possible. Hit the spacebar whenever you see an image of Golett or the word GOLETT. 

Press the spacebar to start the task",target5,stimuli/t5.jpg,42,50,stimuli/blank.jpg,blank,FALSE,None,,,,,,,,,,,,,,0,0,0,0,,,,,0,1,1,4,0,49,49,49,,,,,,,,,,,,,,,,,,,,,,,,,,,,,,,,,,,,,,,,,,,,,,,,,,,,,CS1_USpos,None,1,,,,,,,,,,,,,,,,,,19,f,42,n,2019_Oct_10_1315,ec_RRR,3.0.4,60.007
Kurdi and Ferguson,"For this task, the target creature is Golett:","So whenever Golett (his name or his picture) appears on the screen, hit the spacebar as quickly as possible. Hit the spacebar whenever you see an image of Golett or the word GOLETT. 

Press the spacebar to start the task",target5,stimuli/t5.jpg,42,51,stimuli/cs1_pos6.jpg,CSUS,FALSE,None,,,,,,,,,,,,,,0,0,0,0,,,,,0,1,1,4,0,50,50,50,,,,,,,,,,,,,,,,,,,,,,,,,,,,,,,,,,,,,,,,,,,,,,,,,,,,,CS1_USpos,None,1,,,,,,,,,,,,,,,,,,19,f,42,n,2019_Oct_10_1315,ec_RRR,3.0.4,60.007
Kurdi and Ferguson,"For this task, the target creature is Golett:","So whenever Golett (his name or his picture) appears on the screen, hit the spacebar as quickly as possible. Hit the spacebar whenever you see an image of Golett or the word GOLETT. 

Press the spacebar to start the task",target5,stimuli/t5.jpg,42,52,stimuli/blank.jpg,blank,FALSE,None,,,,,,,,,,,,,,0,0,0,0,,,,,0,1,1,4,0,51,51,51,,,,,,,,,,,,,,,,,,,,,,,,,,,,,,,,,,,,,,,,,,,,,,,,,,,,,CS1_USpos,None,1,,,,,,,,,,,,,,,,,,19,f,42,n,2019_Oct_10_1315,ec_RRR,3.0.4,60.007
Kurdi and Ferguson,"For this task, the target creature is Golett:","So whenever Golett (his name or his picture) appears on the screen, hit the spacebar as quickly as possible. Hit the spacebar whenever you see an image of Golett or the word GOLETT. 

Press the spacebar to start the task",target5,stimuli/t5.jpg,42,53,stimuli/filler37.jpg,filler,FALSE,None,,,,,,,,,,,,,,0,0,0,0,,,,,0,1,1,4,0,52,52,52,,,,,,,,,,,,,,,,,,,,,,,,,,,,,,,,,,,,,,,,,,,,,,,,,,,,,CS1_USpos,None,1,,,,,,,,,,,,,,,,,,19,f,42,n,2019_Oct_10_1315,ec_RRR,3.0.4,60.007
Kurdi and Ferguson,"For this task, the target creature is Golett:","So whenever Golett (his name or his picture) appears on the screen, hit the spacebar as quickly as possible. Hit the spacebar whenever you see an image of Golett or the word GOLETT. 

Press the spacebar to start the task",target5,stimuli/t5.jpg,42,54,stimuli/filler45.jpg,filler,FALSE,None,,,,,,,,,,,,,,0,0,0,0,,,,,0,1,1,4,0,53,53,53,,,,,,,,,,,,,,,,,,,,,,,,,,,,,,,,,,,,,,,,,,,,,,,,,,,,,CS1_USpos,None,1,,,,,,,,,,,,,,,,,,19,f,42,n,2019_Oct_10_1315,ec_RRR,3.0.4,60.007
Kurdi and Ferguson,"For this task, the target creature is Golett:","So whenever Golett (his name or his picture) appears on the screen, hit the spacebar as quickly as possible. Hit the spacebar whenever you see an image of Golett or the word GOLETT. 

Press the spacebar to start the task",target5,stimuli/t5.jpg,42,55,stimuli/filler49.jpg,filler,FALSE,None,,,,,,,,,,,,,,0,0,0,0,,,,,0,1,1,4,0,54,54,54,,,,,,,,,,,,,,,,,,,,,,,,,,,,,,,,,,,,,,,,,,,,,,,,,,,,,CS1_USpos,None,1,,,,,,,,,,,,,,,,,,19,f,42,n,2019_Oct_10_1315,ec_RRR,3.0.4,60.007
Kurdi and Ferguson,"For this task, the target creature is Golett:","So whenever Golett (his name or his picture) appears on the screen, hit the spacebar as quickly as possible. Hit the spacebar whenever you see an image of Golett or the word GOLETT. 

Press the spacebar to start the task",target5,stimuli/t5.jpg,42,56,stimuli/filler43.jpg,filler,FALSE,None,,,,,,,,,,,,,,0,0,0,0,,,,,0,1,1,4,0,55,55,55,,,,,,,,,,,,,,,,,,,,,,,,,,,,,,,,,,,,,,,,,,,,,,,,,,,,,CS1_USpos,None,1,,,,,,,,,,,,,,,,,,19,f,42,n,2019_Oct_10_1315,ec_RRR,3.0.4,60.007
Kurdi and Ferguson,"For this task, the target creature is Golett:","So whenever Golett (his name or his picture) appears on the screen, hit the spacebar as quickly as possible. Hit the spacebar whenever you see an image of Golett or the word GOLETT. 

Press the spacebar to start the task",target5,stimuli/t5.jpg,42,57,stimuli/filler11.jpg,filler,FALSE,None,,,,,,,,,,,,,,0,0,0,0,,,,,0,1,1,4,0,56,56,56,,,,,,,,,,,,,,,,,,,,,,,,,,,,,,,,,,,,,,,,,,,,,,,,,,,,,CS1_USpos,None,1,,,,,,,,,,,,,,,,,,19,f,42,n,2019_Oct_10_1315,ec_RRR,3.0.4,60.007
Kurdi and Ferguson,"For this task, the target creature is Golett:","So whenever Golett (his name or his picture) appears on the screen, hit the spacebar as quickly as possible. Hit the spacebar whenever you see an image of Golett or the word GOLETT. 

Press the spacebar to start the task",target5,stimuli/t5.jpg,42,58,stimuli/target5_9.jpg,target,TRUE,space,,,,,,,,,,,,,,0,0,0,0,,,,,0,1,1,4,0,57,57,57,,,,,,,,,,,,,,,,,,,,,,,,,,,,,,,,,,,,,,,,,,,,,,,,,,,,,CS1_USpos,space,1,0.616987315,,,,,,,,,,,,,,,,,19,f,42,n,2019_Oct_10_1315,ec_RRR,3.0.4,60.007
Kurdi and Ferguson,"For this task, the target creature is Golett:","So whenever Golett (his name or his picture) appears on the screen, hit the spacebar as quickly as possible. Hit the spacebar whenever you see an image of Golett or the word GOLETT. 

Press the spacebar to start the task",target5,stimuli/t5.jpg,42,59,stimuli/filler29.jpg,filler,FALSE,None,,,,,,,,,,,,,,0,0,0,0,,,,,0,1,1,4,0,58,58,58,,,,,,,,,,,,,,,,,,,,,,,,,,,,,,,,,,,,,,,,,,,,,,,,,,,,,CS1_USpos,None,1,,,,,,,,,,,,,,,,,,19,f,42,n,2019_Oct_10_1315,ec_RRR,3.0.4,60.007
Kurdi and Ferguson,"For this task, the target creature is Golett:","So whenever Golett (his name or his picture) appears on the screen, hit the spacebar as quickly as possible. Hit the spacebar whenever you see an image of Golett or the word GOLETT. 

Press the spacebar to start the task",target5,stimuli/t5.jpg,42,60,stimuli/blank.jpg,blank,FALSE,None,,,,,,,,,,,,,,0,0,0,0,,,,,0,1,1,4,0,59,59,59,,,,,,,,,,,,,,,,,,,,,,,,,,,,,,,,,,,,,,,,,,,,,,,,,,,,,CS1_USpos,None,1,,,,,,,,,,,,,,,,,,19,f,42,n,2019_Oct_10_1315,ec_RRR,3.0.4,60.007
Kurdi and Ferguson,"For this task, the target creature is Golett:","So whenever Golett (his name or his picture) appears on the screen, hit the spacebar as quickly as possible. Hit the spacebar whenever you see an image of Golett or the word GOLETT. 

Press the spacebar to start the task",target5,stimuli/t5.jpg,42,61,stimuli/cs2_neg17.jpg,CSUS,FALSE,None,,,,,,,,,,,,,,0,0,0,0,,,,,0,1,1,4,0,60,60,60,,,,,,,,,,,,,,,,,,,,,,,,,,,,,,,,,,,,,,,,,,,,,,,,,,,,,CS1_USpos,None,1,,,,,,,,,,,,,,,,,,19,f,42,n,2019_Oct_10_1315,ec_RRR,3.0.4,60.007
Kurdi and Ferguson,"For this task, the target creature is Golett:","So whenever Golett (his name or his picture) appears on the screen, hit the spacebar as quickly as possible. Hit the spacebar whenever you see an image of Golett or the word GOLETT. 

Press the spacebar to start the task",target5,stimuli/t5.jpg,42,62,stimuli/blank.jpg,blank,FALSE,None,,,,,,,,,,,,,,0,0,0,0,,,,,0,1,1,4,0,61,61,61,,,,,,,,,,,,,,,,,,,,,,,,,,,,,,,,,,,,,,,,,,,,,,,,,,,,,CS1_USpos,None,1,,,,,,,,,,,,,,,,,,19,f,42,n,2019_Oct_10_1315,ec_RRR,3.0.4,60.007
Kurdi and Ferguson,"For this task, the target creature is Golett:","So whenever Golett (his name or his picture) appears on the screen, hit the spacebar as quickly as possible. Hit the spacebar whenever you see an image of Golett or the word GOLETT. 

Press the spacebar to start the task",target5,stimuli/t5.jpg,42,63,stimuli/filler51.jpg,filler,FALSE,None,,,,,,,,,,,,,,0,0,0,0,,,,,0,1,1,4,0,62,62,62,,,,,,,,,,,,,,,,,,,,,,,,,,,,,,,,,,,,,,,,,,,,,,,,,,,,,CS1_USpos,None,1,,,,,,,,,,,,,,,,,,19,f,42,n,2019_Oct_10_1315,ec_RRR,3.0.4,60.007
Kurdi and Ferguson,"For this task, the target creature is Golett:","So whenever Golett (his name or his picture) appears on the screen, hit the spacebar as quickly as possible. Hit the spacebar whenever you see an image of Golett or the word GOLETT. 

Press the spacebar to start the task",target5,stimuli/t5.jpg,42,64,stimuli/target5_2.jpg,target,TRUE,space,,,,,,,,,,,,,,0,0,0,0,,,,,0,1,1,4,0,63,63,63,,,,,,,,,,,,,,,,,,,,,,,,,,,,,,,,,,,,,,,,,,,,,,,,,,,,,CS1_USpos,space,1,0.826510699,,,,,,,,,,,,,,,,,19,f,42,n,2019_Oct_10_1315,ec_RRR,3.0.4,60.007
Kurdi and Ferguson,"For this task, the target creature is Golett:","So whenever Golett (his name or his picture) appears on the screen, hit the spacebar as quickly as possible. Hit the spacebar whenever you see an image of Golett or the word GOLETT. 

Press the spacebar to start the task",target5,stimuli/t5.jpg,42,65,stimuli/filler34.jpg,filler,FALSE,None,,,,,,,,,,,,,,0,0,0,0,,,,,0,1,1,4,0,64,64,64,,,,,,,,,,,,,,,,,,,,,,,,,,,,,,,,,,,,,,,,,,,,,,,,,,,,,CS1_USpos,None,1,,,,,,,,,,,,,,,,,,19,f,42,n,2019_Oct_10_1315,ec_RRR,3.0.4,60.007
Kurdi and Ferguson,"For this task, the target creature is Golett:","So whenever Golett (his name or his picture) appears on the screen, hit the spacebar as quickly as possible. Hit the spacebar whenever you see an image of Golett or the word GOLETT. 

Press the spacebar to start the task",target5,stimuli/t5.jpg,42,66,stimuli/target5_4.jpg,target,TRUE,space,,,,,,,,,,,,,,0,0,0,0,,,,,0,1,1,4,0,65,65,65,,,,,,,,,,,,,,,,,,,,,,,,,,,,,,,,,,,,,,,,,,,,,,,,,,,,,CS1_USpos,space,1,0.555564443,,,,,,,,,,,,,,,,,19,f,42,n,2019_Oct_10_1315,ec_RRR,3.0.4,60.007
Kurdi and Ferguson,"For this task, the target creature is Golett:","So whenever Golett (his name or his picture) appears on the screen, hit the spacebar as quickly as possible. Hit the spacebar whenever you see an image of Golett or the word GOLETT. 

Press the spacebar to start the task",target5,stimuli/t5.jpg,42,67,stimuli/filler18.jpg,filler,FALSE,None,,,,,,,,,,,,,,0,0,0,0,,,,,0,1,1,4,0,66,66,66,,,,,,,,,,,,,,,,,,,,,,,,,,,,,,,,,,,,,,,,,,,,,,,,,,,,,CS1_USpos,None,1,,,,,,,,,,,,,,,,,,19,f,42,n,2019_Oct_10_1315,ec_RRR,3.0.4,60.007
Kurdi and Ferguson,"For this task, the target creature is Golett:","So whenever Golett (his name or his picture) appears on the screen, hit the spacebar as quickly as possible. Hit the spacebar whenever you see an image of Golett or the word GOLETT. 

Press the spacebar to start the task",target5,stimuli/t5.jpg,42,68,stimuli/filler52.jpg,filler,FALSE,None,,,,,,,,,,,,,,0,0,0,0,,,,,0,1,1,4,0,67,67,67,,,,,,,,,,,,,,,,,,,,,,,,,,,,,,,,,,,,,,,,,,,,,,,,,,,,,CS1_USpos,None,1,,,,,,,,,,,,,,,,,,19,f,42,n,2019_Oct_10_1315,ec_RRR,3.0.4,60.007
Kurdi and Ferguson,"For this task, the target creature is Golett:","So whenever Golett (his name or his picture) appears on the screen, hit the spacebar as quickly as possible. Hit the spacebar whenever you see an image of Golett or the word GOLETT. 

Press the spacebar to start the task",target5,stimuli/t5.jpg,42,69,stimuli/filler46.jpg,filler,FALSE,None,,,,,,,,,,,,,,0,0,0,0,,,,,0,1,1,4,0,68,68,68,,,,,,,,,,,,,,,,,,,,,,,,,,,,,,,,,,,,,,,,,,,,,,,,,,,,,CS1_USpos,None,1,,,,,,,,,,,,,,,,,,19,f,42,n,2019_Oct_10_1315,ec_RRR,3.0.4,60.007
Kurdi and Ferguson,"For this task, the target creature is Golett:","So whenever Golett (his name or his picture) appears on the screen, hit the spacebar as quickly as possible. Hit the spacebar whenever you see an image of Golett or the word GOLETT. 

Press the spacebar to start the task",target5,stimuli/t5.jpg,42,70,stimuli/blank.jpg,blank,FALSE,None,,,,,,,,,,,,,,0,0,0,0,,,,,0,1,1,4,0,69,69,69,,,,,,,,,,,,,,,,,,,,,,,,,,,,,,,,,,,,,,,,,,,,,,,,,,,,,CS1_USpos,None,1,,,,,,,,,,,,,,,,,,19,f,42,n,2019_Oct_10_1315,ec_RRR,3.0.4,60.007
Kurdi and Ferguson,"For this task, the target creature is Golett:","So whenever Golett (his name or his picture) appears on the screen, hit the spacebar as quickly as possible. Hit the spacebar whenever you see an image of Golett or the word GOLETT. 

Press the spacebar to start the task",target5,stimuli/t5.jpg,42,71,stimuli/cs1_pos7.jpg,CSUS,FALSE,None,,,,,,,,,,,,,,0,0,0,0,,,,,0,1,1,4,0,70,70,70,,,,,,,,,,,,,,,,,,,,,,,,,,,,,,,,,,,,,,,,,,,,,,,,,,,,,CS1_USpos,None,1,,,,,,,,,,,,,,,,,,19,f,42,n,2019_Oct_10_1315,ec_RRR,3.0.4,60.007
Kurdi and Ferguson,"For this task, the target creature is Golett:","So whenever Golett (his name or his picture) appears on the screen, hit the spacebar as quickly as possible. Hit the spacebar whenever you see an image of Golett or the word GOLETT. 

Press the spacebar to start the task",target5,stimuli/t5.jpg,42,72,stimuli/blank.jpg,blank,FALSE,None,,,,,,,,,,,,,,0,0,0,0,,,,,0,1,1,4,0,71,71,71,,,,,,,,,,,,,,,,,,,,,,,,,,,,,,,,,,,,,,,,,,,,,,,,,,,,,CS1_USpos,None,1,,,,,,,,,,,,,,,,,,19,f,42,n,2019_Oct_10_1315,ec_RRR,3.0.4,60.007
Kurdi and Ferguson,"For this task, the target creature is Golett:","So whenever Golett (his name or his picture) appears on the screen, hit the spacebar as quickly as possible. Hit the spacebar whenever you see an image of Golett or the word GOLETT. 

Press the spacebar to start the task",target5,stimuli/t5.jpg,42,73,stimuli/filler24.jpg,filler,FALSE,None,,,,,,,,,,,,,,0,0,0,0,,,,,0,1,1,4,0,72,72,72,,,,,,,,,,,,,,,,,,,,,,,,,,,,,,,,,,,,,,,,,,,,,,,,,,,,,CS1_USpos,None,1,,,,,,,,,,,,,,,,,,19,f,42,n,2019_Oct_10_1315,ec_RRR,3.0.4,60.007
Kurdi and Ferguson,"For this task, the target creature is Golett:","So whenever Golett (his name or his picture) appears on the screen, hit the spacebar as quickly as possible. Hit the spacebar whenever you see an image of Golett or the word GOLETT. 

Press the spacebar to start the task",target5,stimuli/t5.jpg,42,74,stimuli/filler3.jpg,filler,FALSE,None,,,,,,,,,,,,,,0,0,0,0,,,,,0,1,1,4,0,73,73,73,,,,,,,,,,,,,,,,,,,,,,,,,,,,,,,,,,,,,,,,,,,,,,,,,,,,,CS1_USpos,None,1,,,,,,,,,,,,,,,,,,19,f,42,n,2019_Oct_10_1315,ec_RRR,3.0.4,60.007
Kurdi and Ferguson,"For this task, the target creature is Golett:","So whenever Golett (his name or his picture) appears on the screen, hit the spacebar as quickly as possible. Hit the spacebar whenever you see an image of Golett or the word GOLETT. 

Press the spacebar to start the task",target5,stimuli/t5.jpg,42,75,stimuli/filler36.jpg,filler,FALSE,None,,,,,,,,,,,,,,0,0,0,0,,,,,0,1,1,4,0,74,74,74,,,,,,,,,,,,,,,,,,,,,,,,,,,,,,,,,,,,,,,,,,,,,,,,,,,,,CS1_USpos,None,1,,,,,,,,,,,,,,,,,,19,f,42,n,2019_Oct_10_1315,ec_RRR,3.0.4,60.007
Kurdi and Ferguson,"For this task, the target creature is Golett:","So whenever Golett (his name or his picture) appears on the screen, hit the spacebar as quickly as possible. Hit the spacebar whenever you see an image of Golett or the word GOLETT. 

Press the spacebar to start the task",target5,stimuli/t5.jpg,42,76,stimuli/target5_5.jpg,target,TRUE,space,,,,,,,,,,,,,,0,0,0,0,,,,,0,1,1,4,0,75,75,75,,,,,,,,,,,,,,,,,,,,,,,,,,,,,,,,,,,,,,,,,,,,,,,,,,,,,CS1_USpos,space,1,0.641197687,,,,,,,,,,,,,,,,,19,f,42,n,2019_Oct_10_1315,ec_RRR,3.0.4,60.007
Kurdi and Ferguson,"For this task, the target creature is Golett:","So whenever Golett (his name or his picture) appears on the screen, hit the spacebar as quickly as possible. Hit the spacebar whenever you see an image of Golett or the word GOLETT. 

Press the spacebar to start the task",target5,stimuli/t5.jpg,42,77,stimuli/filler33.jpg,filler,FALSE,None,,,,,,,,,,,,,,0,0,0,0,,,,,0,1,1,4,0,76,76,76,,,,,,,,,,,,,,,,,,,,,,,,,,,,,,,,,,,,,,,,,,,,,,,,,,,,,CS1_USpos,None,1,,,,,,,,,,,,,,,,,,19,f,42,n,2019_Oct_10_1315,ec_RRR,3.0.4,60.007
Kurdi and Ferguson,"For this task, the target creature is Golett:","So whenever Golett (his name or his picture) appears on the screen, hit the spacebar as quickly as possible. Hit the spacebar whenever you see an image of Golett or the word GOLETT. 

Press the spacebar to start the task",target5,stimuli/t5.jpg,42,78,stimuli/filler1.jpg,filler,FALSE,None,,,,,,,,,,,,,,0,0,0,0,,,,,0,1,1,4,0,77,77,77,,,,,,,,,,,,,,,,,,,,,,,,,,,,,,,,,,,,,,,,,,,,,,,,,,,,,CS1_USpos,None,1,,,,,,,,,,,,,,,,,,19,f,42,n,2019_Oct_10_1315,ec_RRR,3.0.4,60.007
Kurdi and Ferguson,"For this task, the target creature is Golett:","So whenever Golett (his name or his picture) appears on the screen, hit the spacebar as quickly as possible. Hit the spacebar whenever you see an image of Golett or the word GOLETT. 

Press the spacebar to start the task",target5,stimuli/t5.jpg,42,79,stimuli/filler26.jpg,filler,FALSE,None,,,,,,,,,,,,,,0,0,0,0,,,,,0,1,1,4,0,78,78,78,,,,,,,,,,,,,,,,,,,,,,,,,,,,,,,,,,,,,,,,,,,,,,,,,,,,,CS1_USpos,None,1,,,,,,,,,,,,,,,,,,19,f,42,n,2019_Oct_10_1315,ec_RRR,3.0.4,60.007
Kurdi and Ferguson,"For this task, the target creature is Golett:","So whenever Golett (his name or his picture) appears on the screen, hit the spacebar as quickly as possible. Hit the spacebar whenever you see an image of Golett or the word GOLETT. 

Press the spacebar to start the task",target5,stimuli/t5.jpg,42,80,stimuli/blank.jpg,blank,FALSE,None,,,,,,,,,,,,,,0,0,0,0,,,,,0,1,1,4,0,79,79,79,,,,,,,,,,,,,,,,,,,,,,,,,,,,,,,,,,,,,,,,,,,,,,,,,,,,,CS1_USpos,None,1,,,,,,,,,,,,,,,,,,19,f,42,n,2019_Oct_10_1315,ec_RRR,3.0.4,60.007
Kurdi and Ferguson,"For this task, the target creature is Golett:","So whenever Golett (his name or his picture) appears on the screen, hit the spacebar as quickly as possible. Hit the spacebar whenever you see an image of Golett or the word GOLETT. 

Press the spacebar to start the task",target5,stimuli/t5.jpg,42,81,stimuli/cs2_neg18.jpg,CSUS,FALSE,None,,,,,,,,,,,,,,0,0,0,0,,,,,0,1,1,4,0,80,80,80,,,,,,,,,,,,,,,,,,,,,,,,,,,,,,,,,,,,,,,,,,,,,,,,,,,,,CS1_USpos,None,1,,,,,,,,,,,,,,,,,,19,f,42,n,2019_Oct_10_1315,ec_RRR,3.0.4,60.007
Kurdi and Ferguson,"For this task, the target creature is Golett:","So whenever Golett (his name or his picture) appears on the screen, hit the spacebar as quickly as possible. Hit the spacebar whenever you see an image of Golett or the word GOLETT. 

Press the spacebar to start the task",target5,stimuli/t5.jpg,42,82,stimuli/blank.jpg,blank,FALSE,None,,,,,,,,,,,,,,0,0,0,0,,,,,0,1,1,4,0,81,81,81,,,,,,,,,,,,,,,,,,,,,,,,,,,,,,,,,,,,,,,,,,,,,,,,,,,,,CS1_USpos,None,1,,,,,,,,,,,,,,,,,,19,f,42,n,2019_Oct_10_1315,ec_RRR,3.0.4,60.007
Kurdi and Ferguson,"For this task, the target creature is Golett:","So whenever Golett (his name or his picture) appears on the screen, hit the spacebar as quickly as possible. Hit the spacebar whenever you see an image of Golett or the word GOLETT. 

Press the spacebar to start the task",target5,stimuli/t5.jpg,42,83,stimuli/filler9.jpg,filler,FALSE,None,,,,,,,,,,,,,,0,0,0,0,,,,,0,1,1,4,0,82,82,82,,,,,,,,,,,,,,,,,,,,,,,,,,,,,,,,,,,,,,,,,,,,,,,,,,,,,CS1_USpos,None,1,,,,,,,,,,,,,,,,,,19,f,42,n,2019_Oct_10_1315,ec_RRR,3.0.4,60.007
Kurdi and Ferguson,"For this task, the target creature is Golett:","So whenever Golett (his name or his picture) appears on the screen, hit the spacebar as quickly as possible. Hit the spacebar whenever you see an image of Golett or the word GOLETT. 

Press the spacebar to start the task",target5,stimuli/t5.jpg,42,84,stimuli/filler17.jpg,filler,FALSE,None,,,,,,,,,,,,,,0,0,0,0,,,,,0,1,1,4,0,83,83,83,,,,,,,,,,,,,,,,,,,,,,,,,,,,,,,,,,,,,,,,,,,,,,,,,,,,,CS1_USpos,None,1,,,,,,,,,,,,,,,,,,19,f,42,n,2019_Oct_10_1315,ec_RRR,3.0.4,60.007
Kurdi and Ferguson,"For this task, the target creature is Golett:","So whenever Golett (his name or his picture) appears on the screen, hit the spacebar as quickly as possible. Hit the spacebar whenever you see an image of Golett or the word GOLETT. 

Press the spacebar to start the task",target5,stimuli/t5.jpg,42,85,stimuli/filler35.jpg,filler,FALSE,None,,,,,,,,,,,,,,0,0,0,0,,,,,0,1,1,4,0,84,84,84,,,,,,,,,,,,,,,,,,,,,,,,,,,,,,,,,,,,,,,,,,,,,,,,,,,,,CS1_USpos,None,1,,,,,,,,,,,,,,,,,,19,f,42,n,2019_Oct_10_1315,ec_RRR,3.0.4,60.007
Kurdi and Ferguson,"For this task, the target creature is Golett:","So whenever Golett (his name or his picture) appears on the screen, hit the spacebar as quickly as possible. Hit the spacebar whenever you see an image of Golett or the word GOLETT. 

Press the spacebar to start the task",target5,stimuli/t5.jpg,42,86,stimuli/filler20.jpg,filler,FALSE,None,,,,,,,,,,,,,,0,0,0,0,,,,,0,1,1,4,0,85,85,85,,,,,,,,,,,,,,,,,,,,,,,,,,,,,,,,,,,,,,,,,,,,,,,,,,,,,CS1_USpos,None,1,,,,,,,,,,,,,,,,,,19,f,42,n,2019_Oct_10_1315,ec_RRR,3.0.4,60.007
Kurdi and Ferguson,"For this task, the target creature is Shelmet:","So whenever Shelmet (his name or his picture) appears on the screen, hit the spacebar as quickly as possible. Hit the spacebar whenever you see an image of Shelmet or the word SHELMET. 

Press the spacebar to start the task",target2,stimuli/t2.jpg,42,1,stimuli/filler33.jpg,filler,FALSE,None,,,,,,,,,,,,,,0,0,0,0,,,,,0,2,2,1,0,0,0,0,,,,,,,,,,,,,,,,,,,,,,,,,,,,,,,,,,,,,,,,,,,,,,,,,,,,,CS1_USpos,None,1,,,,,,,,,,,,,,,,,,19,f,42,n,2019_Oct_10_1315,ec_RRR,3.0.4,60.007
Kurdi and Ferguson,"For this task, the target creature is Shelmet:","So whenever Shelmet (his name or his picture) appears on the screen, hit the spacebar as quickly as possible. Hit the spacebar whenever you see an image of Shelmet or the word SHELMET. 

Press the spacebar to start the task",target2,stimuli/t2.jpg,42,2,stimuli/filler45.jpg,filler,FALSE,None,,,,,,,,,,,,,,0,0,0,0,,,,,0,2,2,1,0,1,1,1,,,,,,,,,,,,,,,,,,,,,,,,,,,,,,,,,,,,,,,,,,,,,,,,,,,,,CS1_USpos,None,1,,,,,,,,,,,,,,,,,,19,f,42,n,2019_Oct_10_1315,ec_RRR,3.0.4,60.007
Kurdi and Ferguson,"For this task, the target creature is Shelmet:","So whenever Shelmet (his name or his picture) appears on the screen, hit the spacebar as quickly as possible. Hit the spacebar whenever you see an image of Shelmet or the word SHELMET. 

Press the spacebar to start the task",target2,stimuli/t2.jpg,42,3,stimuli/filler30.jpg,filler,FALSE,None,,,,,,,,,,,,,,0,0,0,0,,,,,0,2,2,1,0,2,2,2,,,,,,,,,,,,,,,,,,,,,,,,,,,,,,,,,,,,,,,,,,,,,,,,,,,,,CS1_USpos,None,1,,,,,,,,,,,,,,,,,,19,f,42,n,2019_Oct_10_1315,ec_RRR,3.0.4,60.007
Kurdi and Ferguson,"For this task, the target creature is Shelmet:","So whenever Shelmet (his name or his picture) appears on the screen, hit the spacebar as quickly as possible. Hit the spacebar whenever you see an image of Shelmet or the word SHELMET. 

Press the spacebar to start the task",target2,stimuli/t2.jpg,42,4,stimuli/filler44.jpg,filler,FALSE,None,,,,,,,,,,,,,,0,0,0,0,,,,,0,2,2,1,0,3,3,3,,,,,,,,,,,,,,,,,,,,,,,,,,,,,,,,,,,,,,,,,,,,,,,,,,,,,CS1_USpos,None,1,,,,,,,,,,,,,,,,,,19,f,42,n,2019_Oct_10_1315,ec_RRR,3.0.4,60.007
Kurdi and Ferguson,"For this task, the target creature is Shelmet:","So whenever Shelmet (his name or his picture) appears on the screen, hit the spacebar as quickly as possible. Hit the spacebar whenever you see an image of Shelmet or the word SHELMET. 

Press the spacebar to start the task",target2,stimuli/t2.jpg,42,5,stimuli/filler46.jpg,filler,FALSE,None,,,,,,,,,,,,,,0,0,0,0,,,,,0,2,2,1,0,4,4,4,,,,,,,,,,,,,,,,,,,,,,,,,,,,,,,,,,,,,,,,,,,,,,,,,,,,,CS1_USpos,None,1,,,,,,,,,,,,,,,,,,19,f,42,n,2019_Oct_10_1315,ec_RRR,3.0.4,60.007
Kurdi and Ferguson,"For this task, the target creature is Shelmet:","So whenever Shelmet (his name or his picture) appears on the screen, hit the spacebar as quickly as possible. Hit the spacebar whenever you see an image of Shelmet or the word SHELMET. 

Press the spacebar to start the task",target2,stimuli/t2.jpg,42,6,stimuli/filler27.jpg,filler,FALSE,None,,,,,,,,,,,,,,0,0,0,0,,,,,0,2,2,1,0,5,5,5,,,,,,,,,,,,,,,,,,,,,,,,,,,,,,,,,,,,,,,,,,,,,,,,,,,,,CS1_USpos,None,1,,,,,,,,,,,,,,,,,,19,f,42,n,2019_Oct_10_1315,ec_RRR,3.0.4,60.007
Kurdi and Ferguson,"For this task, the target creature is Shelmet:","So whenever Shelmet (his name or his picture) appears on the screen, hit the spacebar as quickly as possible. Hit the spacebar whenever you see an image of Shelmet or the word SHELMET. 

Press the spacebar to start the task",target2,stimuli/t2.jpg,42,7,stimuli/filler34.jpg,filler,FALSE,None,,,,,,,,,,,,,,0,0,0,0,,,,,0,2,2,1,0,6,6,6,,,,,,,,,,,,,,,,,,,,,,,,,,,,,,,,,,,,,,,,,,,,,,,,,,,,,CS1_USpos,None,1,,,,,,,,,,,,,,,,,,19,f,42,n,2019_Oct_10_1315,ec_RRR,3.0.4,60.007
Kurdi and Ferguson,"For this task, the target creature is Shelmet:","So whenever Shelmet (his name or his picture) appears on the screen, hit the spacebar as quickly as possible. Hit the spacebar whenever you see an image of Shelmet or the word SHELMET. 

