data_collection_site,instructions_text_top,instructions_text_bottom,block_id,example_image,participant,trial_number,stimulus,trial_type,target_trial,surveillance_correct_response,filler_1_items,filler_2_items,middle_text,left_text,right_text,evaluation_stimulus,left_stimulus,right_stimulus,evaluation_response_indicating_CS1_preferred,awareness_1_question_text,awareness_2a_question_text,awareness_2b_question_text,awareness_2_question_text,record_data_collection_site_variable.thisRepN,record_data_collection_site_variable.thisTrialN,record_data_collection_site_variable.thisN,record_data_collection_site_variable.thisIndex,surveillance_instructions_loop.thisRepN,surveillance_instructions_loop.thisTrialN,surveillance_instructions_loop.thisN,surveillance_instructions_loop.thisIndex,surveillance_blocks_loop.thisRepN,surveillance_blocks_loop.thisTrialN,surveillance_blocks_loop.thisN,surveillance_blocks_loop.thisIndex,surveillance_trials_loop.thisRepN,surveillance_trials_loop.thisTrialN,surveillance_trials_loop.thisN,surveillance_trials_loop.thisIndex,filler_1_instructions_loop.thisRepN,filler_1_instructions_loop.thisTrialN,filler_1_instructions_loop.thisN,filler_1_instructions_loop.thisIndex,filler_1_loop.thisRepN,filler_1_loop.thisTrialN,filler_1_loop.thisN,filler_1_loop.thisIndex,filler_2_instructions_loop.thisRepN,filler_2_instructions_loop.thisTrialN,filler_2_instructions_loop.thisN,filler_2_instructions_loop.thisIndex,filler_2_loop.thisRepN,filler_2_loop.thisTrialN,filler_2_loop.thisN,filler_2_loop.thisIndex,evaluation_instructions_loop.thisRepN,evaluation_instructions_loop.thisTrialN,evaluation_instructions_loop.thisN,evaluation_instructions_loop.thisIndex,evaluation_loop.thisRepN,evaluation_loop.thisTrialN,evaluation_loop.thisN,evaluation_loop.thisIndex,evaluation_trials.thisRepN,evaluation_trials.thisTrialN,evaluation_trials.thisN,evaluation_trials.thisIndex,awareness_instructions_loop.thisRepN,awareness_instructions_loop.thisTrialN,awareness_instructions_loop.thisN,awareness_instructions_loop.thisIndex,awareness_1_trials_loop.thisRepN,awareness_1_trials_loop.thisTrialN,awareness_1_trials_loop.thisN,awareness_1_trials_loop.thisIndex,awareness_2a_trials_loop.thisRepN,awareness_2a_trials_loop.thisTrialN,awareness_2a_trials_loop.thisN,awareness_2a_trials_loop.thisIndex,awareness_2b_trials_loop.thisRepN,awareness_2b_trials_loop.thisTrialN,awareness_2b_trials_loop.thisN,awareness_2b_trials_loop.thisIndex,awareness_2c_trials_loop.thisRepN,awareness_2c_trials_loop.thisTrialN,awareness_2c_trials_loop.thisN,awareness_2c_trials_loop.thisIndex,end_message_loop.thisRepN,end_message_loop.thisTrialN,end_message_loop.thisN,end_message_loop.thisIndex,condition,surveillance_response.keys,surveillance_response.corr,surveillance_response.rt,filler_1_rating.response,filler_1_rating.rt,filler_2_rating.response,filler_2_rating.rt,evaluation_response.keys,evaluation_response.corr,evaluation_response.rt,inputText,awareness_1_response.keys,awareness_1_response.rt,awareness_type_2a_rating.response,awareness_type_2a_rating.rt,awareness_type_2b_rating.response,awareness_type_2b_rating.rt,awareness_type_2c_rating.response,awareness_type_2c_rating.rt,age,gender,participant,UseMonkey,date,expName,psychopyVersion,frameRate,
Vadillo,"Para esta tarea, el personaje clave es Magearna:","De modo que siempre que veas a Magearna (su nombre o su imagen) en la pantalla, pulsa la barra espaciadora tan rápido como sea posible. Pulsa la barra espaciadora cuando veas una imagen de Magearna o la palabra MAGEARNA. 

Pulsa la barra espaciadora para comenzar la tarea.",target1,stimuli/t1.jpg,152,1,stimuli/filler4.jpg,filler,False,None,,,,,,,,,,,,,,0,0,0,0,,,,,0,0,0,0,0,0,0,0,,,,,,,,,,,,,,,,,,,,,,,,,,,,,,,,,,,,,,,,,,,,,,,,,,,,,CS1_USpos,None,1,,,,,,,,,,,,,,,,,,20,f,152,n,2019_Dec_04_1700,ec_RRR,3.0.4,59.80546108696227,
Vadillo,"Para esta tarea, el personaje clave es Magearna:","De modo que siempre que veas a Magearna (su nombre o su imagen) en la pantalla, pulsa la barra espaciadora tan rápido como sea posible. Pulsa la barra espaciadora cuando veas una imagen de Magearna o la palabra MAGEARNA. 

Pulsa la barra espaciadora para comenzar la tarea.",target1,stimuli/t1.jpg,152,2,stimuli/filler25.jpg,filler,False,None,,,,,,,,,,,,,,0,0,0,0,,,,,0,0,0,0,0,1,1,1,,,,,,,,,,,,,,,,,,,,,,,,,,,,,,,,,,,,,,,,,,,,,,,,,,,,,CS1_USpos,None,1,,,,,,,,,,,,,,,,,,20,f,152,n,2019_Dec_04_1700,ec_RRR,3.0.4,59.80546108696227,
Vadillo,"Para esta tarea, el personaje clave es Magearna:","De modo que siempre que veas a Magearna (su nombre o su imagen) en la pantalla, pulsa la barra espaciadora tan rápido como sea posible. Pulsa la barra espaciadora cuando veas una imagen de Magearna o la palabra MAGEARNA. 

Pulsa la barra espaciadora para comenzar la tarea.",target1,stimuli/t1.jpg,152,3,stimuli/target1_6.jpg,target,True,space,,,,,,,,,,,,,,0,0,0,0,,,,,0,0,0,0,0,2,2,2,,,,,,,,,,,,,,,,,,,,,,,,,,,,,,,,,,,,,,,,,,,,,,,,,,,,,CS1_USpos,space,1,0.45300869923084974,,,,,,,,,,,,,,,,,20,f,152,n,2019_Dec_04_1700,ec_RRR,3.0.4,59.80546108696227,
Vadillo,"Para esta tarea, el personaje clave es Magearna:","De modo que siempre que veas a Magearna (su nombre o su imagen) en la pantalla, pulsa la barra espaciadora tan rápido como sea posible. Pulsa la barra espaciadora cuando veas una imagen de Magearna o la palabra MAGEARNA. 

Pulsa la barra espaciadora para comenzar la tarea.",target1,stimuli/t1.jpg,152,4,stimuli/target1_8.jpg,target,True,space,,,,,,,,,,,,,,0,0,0,0,,,,,0,0,0,0,0,3,3,3,,,,,,,,,,,,,,,,,,,,,,,,,,,,,,,,,,,,,,,,,,,,,,,,,,,,,CS1_USpos,space,1,0.5198745522648096,,,,,,,,,,,,,,,,,20,f,152,n,2019_Dec_04_1700,ec_RRR,3.0.4,59.80546108696227,
Vadillo,"Para esta tarea, el personaje clave es Magearna:","De modo que siempre que veas a Magearna (su nombre o su imagen) en la pantalla, pulsa la barra espaciadora tan rápido como sea posible. Pulsa la barra espaciadora cuando veas una imagen de Magearna o la palabra MAGEARNA. 

Pulsa la barra espaciadora para comenzar la tarea.",target1,stimuli/t1.jpg,152,5,stimuli/filler43.jpg,filler,False,None,,,,,,,,,,,,,,0,0,0,0,,,,,0,0,0,0,0,4,4,4,,,,,,,,,,,,,,,,,,,,,,,,,,,,,,,,,,,,,,,,,,,,,,,,,,,,,CS1_USpos,None,1,,,,,,,,,,,,,,,,,,20,f,152,n,2019_Dec_04_1700,ec_RRR,3.0.4,59.80546108696227,
Vadillo,"Para esta tarea, el personaje clave es Magearna:","De modo que siempre que veas a Magearna (su nombre o su imagen) en la pantalla, pulsa la barra espaciadora tan rápido como sea posible. Pulsa la barra espaciadora cuando veas una imagen de Magearna o la palabra MAGEARNA. 

Pulsa la barra espaciadora para comenzar la tarea.",target1,stimuli/t1.jpg,152,6,stimuli/filler6.jpg,filler,False,None,,,,,,,,,,,,,,0,0,0,0,,,,,0,0,0,0,0,5,5,5,,,,,,,,,,,,,,,,,,,,,,,,,,,,,,,,,,,,,,,,,,,,,,,,,,,,,CS1_USpos,None,1,,,,,,,,,,,,,,,,,,20,f,152,n,2019_Dec_04_1700,ec_RRR,3.0.4,59.80546108696227,
Vadillo,"Para esta tarea, el personaje clave es Magearna:","De modo que siempre que veas a Magearna (su nombre o su imagen) en la pantalla, pulsa la barra espaciadora tan rápido como sea posible. Pulsa la barra espaciadora cuando veas una imagen de Magearna o la palabra MAGEARNA. 

Pulsa la barra espaciadora para comenzar la tarea.",target1,stimuli/t1.jpg,152,7,stimuli/filler9.jpg,filler,False,None,,,,,,,,,,,,,,0,0,0,0,,,,,0,0,0,0,0,6,6,6,,,,,,,,,,,,,,,,,,,,,,,,,,,,,,,,,,,,,,,,,,,,,,,,,,,,,CS1_USpos,None,1,,,,,,,,,,,,,,,,,,20,f,152,n,2019_Dec_04_1700,ec_RRR,3.0.4,59.80546108696227,
Vadillo,"Para esta tarea, el personaje clave es Magearna:","De modo que siempre que veas a Magearna (su nombre o su imagen) en la pantalla, pulsa la barra espaciadora tan rápido como sea posible. Pulsa la barra espaciadora cuando veas una imagen de Magearna o la palabra MAGEARNA. 

Pulsa la barra espaciadora para comenzar la tarea.",target1,stimuli/t1.jpg,152,8,stimuli/filler51.jpg,filler,False,None,,,,,,,,,,,,,,0,0,0,0,,,,,0,0,0,0,0,7,7,7,,,,,,,,,,,,,,,,,,,,,,,,,,,,,,,,,,,,,,,,,,,,,,,,,,,,,CS1_USpos,None,1,,,,,,,,,,,,,,,,,,20,f,152,n,2019_Dec_04_1700,ec_RRR,3.0.4,59.80546108696227,
Vadillo,"Para esta tarea, el personaje clave es Magearna:","De modo que siempre que veas a Magearna (su nombre o su imagen) en la pantalla, pulsa la barra espaciadora tan rápido como sea posible. Pulsa la barra espaciadora cuando veas una imagen de Magearna o la palabra MAGEARNA. 

Pulsa la barra espaciadora para comenzar la tarea.",target1,stimuli/t1.jpg,152,9,stimuli/filler41.jpg,filler,False,None,,,,,,,,,,,,,,0,0,0,0,,,,,0,0,0,0,0,8,8,8,,,,,,,,,,,,,,,,,,,,,,,,,,,,,,,,,,,,,,,,,,,,,,,,,,,,,CS1_USpos,None,1,,,,,,,,,,,,,,,,,,20,f,152,n,2019_Dec_04_1700,ec_RRR,3.0.4,59.80546108696227,
Vadillo,"Para esta tarea, el personaje clave es Magearna:","De modo que siempre que veas a Magearna (su nombre o su imagen) en la pantalla, pulsa la barra espaciadora tan rápido como sea posible. Pulsa la barra espaciadora cuando veas una imagen de Magearna o la palabra MAGEARNA. 

Pulsa la barra espaciadora para comenzar la tarea.",target1,stimuli/t1.jpg,152,10,stimuli/blank.jpg,blank,False,None,,,,,,,,,,,,,,0,0,0,0,,,,,0,0,0,0,0,9,9,9,,,,,,,,,,,,,,,,,,,,,,,,,,,,,,,,,,,,,,,,,,,,,,,,,,,,,CS1_USpos,None,1,,,,,,,,,,,,,,,,,,20,f,152,n,2019_Dec_04_1700,ec_RRR,3.0.4,59.80546108696227,
Vadillo,"Para esta tarea, el personaje clave es Magearna:","De modo que siempre que veas a Magearna (su nombre o su imagen) en la pantalla, pulsa la barra espaciadora tan rápido como sea posible. Pulsa la barra espaciadora cuando veas una imagen de Magearna o la palabra MAGEARNA. 

Pulsa la barra espaciadora para comenzar la tarea.",target1,stimuli/t1.jpg,152,11,stimuli/cs1_pos20.jpg,CSUS,False,None,,,,,,,,,,,,,,0,0,0,0,,,,,0,0,0,0,0,10,10,10,,,,,,,,,,,,,,,,,,,,,,,,,,,,,,,,,,,,,,,,,,,,,,,,,,,,,CS1_USpos,None,1,,,,,,,,,,,,,,,,,,20,f,152,n,2019_Dec_04_1700,ec_RRR,3.0.4,59.80546108696227,
Vadillo,"Para esta tarea, el personaje clave es Magearna:","De modo que siempre que veas a Magearna (su nombre o su imagen) en la pantalla, pulsa la barra espaciadora tan rápido como sea posible. Pulsa la barra espaciadora cuando veas una imagen de Magearna o la palabra MAGEARNA. 

Pulsa la barra espaciadora para comenzar la tarea.",target1,stimuli/t1.jpg,152,12,stimuli/blank.jpg,blank,False,None,,,,,,,,,,,,,,0,0,0,0,,,,,0,0,0,0,0,11,11,11,,,,,,,,,,,,,,,,,,,,,,,,,,,,,,,,,,,,,,,,,,,,,,,,,,,,,CS1_USpos,None,1,,,,,,,,,,,,,,,,,,20,f,152,n,2019_Dec_04_1700,ec_RRR,3.0.4,59.80546108696227,
Vadillo,"Para esta tarea, el personaje clave es Magearna:","De modo que siempre que veas a Magearna (su nombre o su imagen) en la pantalla, pulsa la barra espaciadora tan rápido como sea posible. Pulsa la barra espaciadora cuando veas una imagen de Magearna o la palabra MAGEARNA. 

Pulsa la barra espaciadora para comenzar la tarea.",target1,stimuli/t1.jpg,152,13,stimuli/filler31.jpg,filler,False,None,,,,,,,,,,,,,,0,0,0,0,,,,,0,0,0,0,0,12,12,12,,,,,,,,,,,,,,,,,,,,,,,,,,,,,,,,,,,,,,,,,,,,,,,,,,,,,CS1_USpos,None,1,,,,,,,,,,,,,,,,,,20,f,152,n,2019_Dec_04_1700,ec_RRR,3.0.4,59.80546108696227,
Vadillo,"Para esta tarea, el personaje clave es Magearna:","De modo que siempre que veas a Magearna (su nombre o su imagen) en la pantalla, pulsa la barra espaciadora tan rápido como sea posible. Pulsa la barra espaciadora cuando veas una imagen de Magearna o la palabra MAGEARNA. 

Pulsa la barra espaciadora para comenzar la tarea.",target1,stimuli/t1.jpg,152,14,stimuli/filler24.jpg,filler,False,None,,,,,,,,,,,,,,0,0,0,0,,,,,0,0,0,0,0,13,13,13,,,,,,,,,,,,,,,,,,,,,,,,,,,,,,,,,,,,,,,,,,,,,,,,,,,,,CS1_USpos,None,1,,,,,,,,,,,,,,,,,,20,f,152,n,2019_Dec_04_1700,ec_RRR,3.0.4,59.80546108696227,
Vadillo,"Para esta tarea, el personaje clave es Magearna:","De modo que siempre que veas a Magearna (su nombre o su imagen) en la pantalla, pulsa la barra espaciadora tan rápido como sea posible. Pulsa la barra espaciadora cuando veas una imagen de Magearna o la palabra MAGEARNA. 

Pulsa la barra espaciadora para comenzar la tarea.",target1,stimuli/t1.jpg,152,15,stimuli/filler27.jpg,filler,False,None,,,,,,,,,,,,,,0,0,0,0,,,,,0,0,0,0,0,14,14,14,,,,,,,,,,,,,,,,,,,,,,,,,,,,,,,,,,,,,,,,,,,,,,,,,,,,,CS1_USpos,None,1,,,,,,,,,,,,,,,,,,20,f,152,n,2019_Dec_04_1700,ec_RRR,3.0.4,59.80546108696227,
Vadillo,"Para esta tarea, el personaje clave es Magearna:","De modo que siempre que veas a Magearna (su nombre o su imagen) en la pantalla, pulsa la barra espaciadora tan rápido como sea posible. Pulsa la barra espaciadora cuando veas una imagen de Magearna o la palabra MAGEARNA. 

Pulsa la barra espaciadora para comenzar la tarea.",target1,stimuli/t1.jpg,152,16,stimuli/filler44.jpg,filler,False,None,,,,,,,,,,,,,,0,0,0,0,,,,,0,0,0,0,0,15,15,15,,,,,,,,,,,,,,,,,,,,,,,,,,,,,,,,,,,,,,,,,,,,,,,,,,,,,CS1_USpos,None,1,,,,,,,,,,,,,,,,,,20,f,152,n,2019_Dec_04_1700,ec_RRR,3.0.4,59.80546108696227,
Vadillo,"Para esta tarea, el personaje clave es Magearna:","De modo que siempre que veas a Magearna (su nombre o su imagen) en la pantalla, pulsa la barra espaciadora tan rápido como sea posible. Pulsa la barra espaciadora cuando veas una imagen de Magearna o la palabra MAGEARNA. 

Pulsa la barra espaciadora para comenzar la tarea.",target1,stimuli/t1.jpg,152,17,stimuli/target1_4.jpg,target,True,space,,,,,,,,,,,,,,0,0,0,0,,,,,0,0,0,0,0,16,16,16,,,,,,,,,,,,,,,,,,,,,,,,,,,,,,,,,,,,,,,,,,,,,,,,,,,,,CS1_USpos,space,1,0.5050393873825669,,,,,,,,,,,,,,,,,20,f,152,n,2019_Dec_04_1700,ec_RRR,3.0.4,59.80546108696227,
Vadillo,"Para esta tarea, el personaje clave es Magearna:","De modo que siempre que veas a Magearna (su nombre o su imagen) en la pantalla, pulsa la barra espaciadora tan rápido como sea posible. Pulsa la barra espaciadora cuando veas una imagen de Magearna o la palabra MAGEARNA. 

Pulsa la barra espaciadora para comenzar la tarea.",target1,stimuli/t1.jpg,152,18,stimuli/filler5.jpg,filler,False,None,,,,,,,,,,,,,,0,0,0,0,,,,,0,0,0,0,0,17,17,17,,,,,,,,,,,,,,,,,,,,,,,,,,,,,,,,,,,,,,,,,,,,,,,,,,,,,CS1_USpos,space,0,0.5374875823035836,,,,,,,,,,,,,,,,,20,f,152,n,2019_Dec_04_1700,ec_RRR,3.0.4,59.80546108696227,
Vadillo,"Para esta tarea, el personaje clave es Magearna:","De modo que siempre que veas a Magearna (su nombre o su imagen) en la pantalla, pulsa la barra espaciadora tan rápido como sea posible. Pulsa la barra espaciadora cuando veas una imagen de Magearna o la palabra MAGEARNA. 

Pulsa la barra espaciadora para comenzar la tarea.",target1,stimuli/t1.jpg,152,19,stimuli/filler8.jpg,filler,False,None,,,,,,,,,,,,,,0,0,0,0,,,,,0,0,0,0,0,18,18,18,,,,,,,,,,,,,,,,,,,,,,,,,,,,,,,,,,,,,,,,,,,,,,,,,,,,,CS1_USpos,None,1,,,,,,,,,,,,,,,,,,20,f,152,n,2019_Dec_04_1700,ec_RRR,3.0.4,59.80546108696227,
Vadillo,"Para esta tarea, el personaje clave es Magearna:","De modo que siempre que veas a Magearna (su nombre o su imagen) en la pantalla, pulsa la barra espaciadora tan rápido como sea posible. Pulsa la barra espaciadora cuando veas una imagen de Magearna o la palabra MAGEARNA. 

Pulsa la barra espaciadora para comenzar la tarea.",target1,stimuli/t1.jpg,152,20,stimuli/blank.jpg,blank,False,None,,,,,,,,,,,,,,0,0,0,0,,,,,0,0,0,0,0,19,19,19,,,,,,,,,,,,,,,,,,,,,,,,,,,,,,,,,,,,,,,,,,,,,,,,,,,,,CS1_USpos,None,1,,,,,,,,,,,,,,,,,,20,f,152,n,2019_Dec_04_1700,ec_RRR,3.0.4,59.80546108696227,
Vadillo,"Para esta tarea, el personaje clave es Magearna:","De modo que siempre que veas a Magearna (su nombre o su imagen) en la pantalla, pulsa la barra espaciadora tan rápido como sea posible. Pulsa la barra espaciadora cuando veas una imagen de Magearna o la palabra MAGEARNA. 

Pulsa la barra espaciadora para comenzar la tarea.",target1,stimuli/t1.jpg,152,21,stimuli/cs2_neg6.jpg,CSUS,False,None,,,,,,,,,,,,,,0,0,0,0,,,,,0,0,0,0,0,20,20,20,,,,,,,,,,,,,,,,,,,,,,,,,,,,,,,,,,,,,,,,,,,,,,,,,,,,,CS1_USpos,None,1,,,,,,,,,,,,,,,,,,20,f,152,n,2019_Dec_04_1700,ec_RRR,3.0.4,59.80546108696227,
Vadillo,"Para esta tarea, el personaje clave es Magearna:","De modo que siempre que veas a Magearna (su nombre o su imagen) en la pantalla, pulsa la barra espaciadora tan rápido como sea posible. Pulsa la barra espaciadora cuando veas una imagen de Magearna o la palabra MAGEARNA. 

Pulsa la barra espaciadora para comenzar la tarea.",target1,stimuli/t1.jpg,152,22,stimuli/blank.jpg,blank,False,None,,,,,,,,,,,,,,0,0,0,0,,,,,0,0,0,0,0,21,21,21,,,,,,,,,,,,,,,,,,,,,,,,,,,,,,,,,,,,,,,,,,,,,,,,,,,,,CS1_USpos,None,1,,,,,,,,,,,,,,,,,,20,f,152,n,2019_Dec_04_1700,ec_RRR,3.0.4,59.80546108696227,
Vadillo,"Para esta tarea, el personaje clave es Magearna:","De modo que siempre que veas a Magearna (su nombre o su imagen) en la pantalla, pulsa la barra espaciadora tan rápido como sea posible. Pulsa la barra espaciadora cuando veas una imagen de Magearna o la palabra MAGEARNA. 

Pulsa la barra espaciadora para comenzar la tarea.",target1,stimuli/t1.jpg,152,23,stimuli/filler49.jpg,filler,False,None,,,,,,,,,,,,,,0,0,0,0,,,,,0,0,0,0,0,22,22,22,,,,,,,,,,,,,,,,,,,,,,,,,,,,,,,,,,,,,,,,,,,,,,,,,,,,,CS1_USpos,None,1,,,,,,,,,,,,,,,,,,20,f,152,n,2019_Dec_04_1700,ec_RRR,3.0.4,59.80546108696227,
Vadillo,"Para esta tarea, el personaje clave es Magearna:","De modo que siempre que veas a Magearna (su nombre o su imagen) en la pantalla, pulsa la barra espaciadora tan rápido como sea posible. Pulsa la barra espaciadora cuando veas una imagen de Magearna o la palabra MAGEARNA. 

Pulsa la barra espaciadora para comenzar la tarea.",target1,stimuli/t1.jpg,152,24,stimuli/filler26.jpg,filler,False,None,,,,,,,,,,,,,,0,0,0,0,,,,,0,0,0,0,0,23,23,23,,,,,,,,,,,,,,,,,,,,,,,,,,,,,,,,,,,,,,,,,,,,,,,,,,,,,CS1_USpos,None,1,,,,,,,,,,,,,,,,,,20,f,152,n,2019_Dec_04_1700,ec_RRR,3.0.4,59.80546108696227,
Vadillo,"Para esta tarea, el personaje clave es Magearna:","De modo que siempre que veas a Magearna (su nombre o su imagen) en la pantalla, pulsa la barra espaciadora tan rápido como sea posible. Pulsa la barra espaciadora cuando veas una imagen de Magearna o la palabra MAGEARNA. 

Pulsa la barra espaciadora para comenzar la tarea.",target1,stimuli/t1.jpg,152,25,stimuli/filler52.jpg,filler,False,None,,,,,,,,,,,,,,0,0,0,0,,,,,0,0,0,0,0,24,24,24,,,,,,,,,,,,,,,,,,,,,,,,,,,,,,,,,,,,,,,,,,,,,,,,,,,,,CS1_USpos,None,1,,,,,,,,,,,,,,,,,,20,f,152,n,2019_Dec_04_1700,ec_RRR,3.0.4,59.80546108696227,
Vadillo,"Para esta tarea, el personaje clave es Magearna:","De modo que siempre que veas a Magearna (su nombre o su imagen) en la pantalla, pulsa la barra espaciadora tan rápido como sea posible. Pulsa la barra espaciadora cuando veas una imagen de Magearna o la palabra MAGEARNA. 

Pulsa la barra espaciadora para comenzar la tarea.",target1,stimuli/t1.jpg,152,26,stimuli/filler16.jpg,filler,False,None,,,,,,,,,,,,,,0,0,0,0,,,,,0,0,0,0,0,25,25,25,,,,,,,,,,,,,,,,,,,,,,,,,,,,,,,,,,,,,,,,,,,,,,,,,,,,,CS1_USpos,None,1,,,,,,,,,,,,,,,,,,20,f,152,n,2019_Dec_04_1700,ec_RRR,3.0.4,59.80546108696227,
Vadillo,"Para esta tarea, el personaje clave es Magearna:","De modo que siempre que veas a Magearna (su nombre o su imagen) en la pantalla, pulsa la barra espaciadora tan rápido como sea posible. Pulsa la barra espaciadora cuando veas una imagen de Magearna o la palabra MAGEARNA. 

Pulsa la barra espaciadora para comenzar la tarea.",target1,stimuli/t1.jpg,152,27,stimuli/target1_9.jpg,target,True,space,,,,,,,,,,,,,,0,0,0,0,,,,,0,0,0,0,0,26,26,26,,,,,,,,,,,,,,,,,,,,,,,,,,,,,,,,,,,,,,,,,,,,,,,,,,,,,CS1_USpos,space,1,0.6726805281359702,,,,,,,,,,,,,,,,,20,f,152,n,2019_Dec_04_1700,ec_RRR,3.0.4,59.80546108696227,
Vadillo,"Para esta tarea, el personaje clave es Magearna:","De modo que siempre que veas a Magearna (su nombre o su imagen) en la pantalla, pulsa la barra espaciadora tan rápido como sea posible. Pulsa la barra espaciadora cuando veas una imagen de Magearna o la palabra MAGEARNA. 

Pulsa la barra espaciadora para comenzar la tarea.",target1,stimuli/t1.jpg,152,28,stimuli/filler30.jpg,filler,False,None,,,,,,,,,,,,,,0,0,0,0,,,,,0,0,0,0,0,27,27,27,,,,,,,,,,,,,,,,,,,,,,,,,,,,,,,,,,,,,,,,,,,,,,,,,,,,,CS1_USpos,None,1,,,,,,,,,,,,,,,,,,20,f,152,n,2019_Dec_04_1700,ec_RRR,3.0.4,59.80546108696227,
Vadillo,"Para esta tarea, el personaje clave es Magearna:","De modo que siempre que veas a Magearna (su nombre o su imagen) en la pantalla, pulsa la barra espaciadora tan rápido como sea posible. Pulsa la barra espaciadora cuando veas una imagen de Magearna o la palabra MAGEARNA. 

Pulsa la barra espaciadora para comenzar la tarea.",target1,stimuli/t1.jpg,152,29,stimuli/filler42.jpg,filler,False,None,,,,,,,,,,,,,,0,0,0,0,,,,,0,0,0,0,0,28,28,28,,,,,,,,,,,,,,,,,,,,,,,,,,,,,,,,,,,,,,,,,,,,,,,,,,,,,CS1_USpos,None,1,,,,,,,,,,,,,,,,,,20,f,152,n,2019_Dec_04_1700,ec_RRR,3.0.4,59.80546108696227,
Vadillo,"Para esta tarea, el personaje clave es Magearna:","De modo que siempre que veas a Magearna (su nombre o su imagen) en la pantalla, pulsa la barra espaciadora tan rápido como sea posible. Pulsa la barra espaciadora cuando veas una imagen de Magearna o la palabra MAGEARNA. 

Pulsa la barra espaciadora para comenzar la tarea.",target1,stimuli/t1.jpg,152,30,stimuli/blank.jpg,blank,False,None,,,,,,,,,,,,,,0,0,0,0,,,,,0,0,0,0,0,29,29,29,,,,,,,,,,,,,,,,,,,,,,,,,,,,,,,,,,,,,,,,,,,,,,,,,,,,,CS1_USpos,None,1,,,,,,,,,,,,,,,,,,20,f,152,n,2019_Dec_04_1700,ec_RRR,3.0.4,59.80546108696227,
Vadillo,"Para esta tarea, el personaje clave es Magearna:","De modo que siempre que veas a Magearna (su nombre o su imagen) en la pantalla, pulsa la barra espaciadora tan rápido como sea posible. Pulsa la barra espaciadora cuando veas una imagen de Magearna o la palabra MAGEARNA. 

Pulsa la barra espaciadora para comenzar la tarea.",target1,stimuli/t1.jpg,152,31,stimuli/cs1_pos17.jpg,CSUS,False,None,,,,,,,,,,,,,,0,0,0,0,,,,,0,0,0,0,0,30,30,30,,,,,,,,,,,,,,,,,,,,,,,,,,,,,,,,,,,,,,,,,,,,,,,,,,,,,CS1_USpos,None,1,,,,,,,,,,,,,,,,,,20,f,152,n,2019_Dec_04_1700,ec_RRR,3.0.4,59.80546108696227,
Vadillo,"Para esta tarea, el personaje clave es Magearna:","De modo que siempre que veas a Magearna (su nombre o su imagen) en la pantalla, pulsa la barra espaciadora tan rápido como sea posible. Pulsa la barra espaciadora cuando veas una imagen de Magearna o la palabra MAGEARNA. 

Pulsa la barra espaciadora para comenzar la tarea.",target1,stimuli/t1.jpg,152,32,stimuli/blank.jpg,blank,False,None,,,,,,,,,,,,,,0,0,0,0,,,,,0,0,0,0,0,31,31,31,,,,,,,,,,,,,,,,,,,,,,,,,,,,,,,,,,,,,,,,,,,,,,,,,,,,,CS1_USpos,None,1,,,,,,,,,,,,,,,,,,20,f,152,n,2019_Dec_04_1700,ec_RRR,3.0.4,59.80546108696227,
Vadillo,"Para esta tarea, el personaje clave es Magearna:","De modo que siempre que veas a Magearna (su nombre o su imagen) en la pantalla, pulsa la barra espaciadora tan rápido como sea posible. Pulsa la barra espaciadora cuando veas una imagen de Magearna o la palabra MAGEARNA. 

Pulsa la barra espaciadora para comenzar la tarea.",target1,stimuli/t1.jpg,152,33,stimuli/filler12.jpg,filler,False,None,,,,,,,,,,,,,,0,0,0,0,,,,,0,0,0,0,0,32,32,32,,,,,,,,,,,,,,,,,,,,,,,,,,,,,,,,,,,,,,,,,,,,,,,,,,,,,CS1_USpos,None,1,,,,,,,,,,,,,,,,,,20,f,152,n,2019_Dec_04_1700,ec_RRR,3.0.4,59.80546108696227,
Vadillo,"Para esta tarea, el personaje clave es Magearna:","De modo que siempre que veas a Magearna (su nombre o su imagen) en la pantalla, pulsa la barra espaciadora tan rápido como sea posible. Pulsa la barra espaciadora cuando veas una imagen de Magearna o la palabra MAGEARNA. 

Pulsa la barra espaciadora para comenzar la tarea.",target1,stimuli/t1.jpg,152,34,stimuli/filler50.jpg,filler,False,None,,,,,,,,,,,,,,0,0,0,0,,,,,0,0,0,0,0,33,33,33,,,,,,,,,,,,,,,,,,,,,,,,,,,,,,,,,,,,,,,,,,,,,,,,,,,,,CS1_USpos,None,1,,,,,,,,,,,,,,,,,,20,f,152,n,2019_Dec_04_1700,ec_RRR,3.0.4,59.80546108696227,
Vadillo,"Para esta tarea, el personaje clave es Magearna:","De modo que siempre que veas a Magearna (su nombre o su imagen) en la pantalla, pulsa la barra espaciadora tan rápido como sea posible. Pulsa la barra espaciadora cuando veas una imagen de Magearna o la palabra MAGEARNA. 

Pulsa la barra espaciadora para comenzar la tarea.",target1,stimuli/t1.jpg,152,35,stimuli/target1_3.jpg,target,True,space,,,,,,,,,,,,,,0,0,0,0,,,,,0,0,0,0,0,34,34,34,,,,,,,,,,,,,,,,,,,,,,,,,,,,,,,,,,,,,,,,,,,,,,,,,,,,,CS1_USpos,space,1,0.43810141598805785,,,,,,,,,,,,,,,,,20,f,152,n,2019_Dec_04_1700,ec_RRR,3.0.4,59.80546108696227,
Vadillo,"Para esta tarea, el personaje clave es Magearna:","De modo que siempre que veas a Magearna (su nombre o su imagen) en la pantalla, pulsa la barra espaciadora tan rápido como sea posible. Pulsa la barra espaciadora cuando veas una imagen de Magearna o la palabra MAGEARNA. 

Pulsa la barra espaciadora para comenzar la tarea.",target1,stimuli/t1.jpg,152,36,stimuli/filler38.jpg,filler,False,None,,,,,,,,,,,,,,0,0,0,0,,,,,0,0,0,0,0,35,35,35,,,,,,,,,,,,,,,,,,,,,,,,,,,,,,,,,,,,,,,,,,,,,,,,,,,,,CS1_USpos,None,1,,,,,,,,,,,,,,,,,,20,f,152,n,2019_Dec_04_1700,ec_RRR,3.0.4,59.80546108696227,
Vadillo,"Para esta tarea, el personaje clave es Magearna:","De modo que siempre que veas a Magearna (su nombre o su imagen) en la pantalla, pulsa la barra espaciadora tan rápido como sea posible. Pulsa la barra espaciadora cuando veas una imagen de Magearna o la palabra MAGEARNA. 

Pulsa la barra espaciadora para comenzar la tarea.",target1,stimuli/t1.jpg,152,37,stimuli/filler21.jpg,filler,False,None,,,,,,,,,,,,,,0,0,0,0,,,,,0,0,0,0,0,36,36,36,,,,,,,,,,,,,,,,,,,,,,,,,,,,,,,,,,,,,,,,,,,,,,,,,,,,,CS1_USpos,None,1,,,,,,,,,,,,,,,,,,20,f,152,n,2019_Dec_04_1700,ec_RRR,3.0.4,59.80546108696227,
Vadillo,"Para esta tarea, el personaje clave es Magearna:","De modo que siempre que veas a Magearna (su nombre o su imagen) en la pantalla, pulsa la barra espaciadora tan rápido como sea posible. Pulsa la barra espaciadora cuando veas una imagen de Magearna o la palabra MAGEARNA. 

Pulsa la barra espaciadora para comenzar la tarea.",target1,stimuli/t1.jpg,152,38,stimuli/filler1.jpg,filler,False,None,,,,,,,,,,,,,,0,0,0,0,,,,,0,0,0,0,0,37,37,37,,,,,,,,,,,,,,,,,,,,,,,,,,,,,,,,,,,,,,,,,,,,,,,,,,,,,CS1_USpos,None,1,,,,,,,,,,,,,,,,,,20,f,152,n,2019_Dec_04_1700,ec_RRR,3.0.4,59.80546108696227,
Vadillo,"Para esta tarea, el personaje clave es Magearna:","De modo que siempre que veas a Magearna (su nombre o su imagen) en la pantalla, pulsa la barra espaciadora tan rápido como sea posible. Pulsa la barra espaciadora cuando veas una imagen de Magearna o la palabra MAGEARNA. 

Pulsa la barra espaciadora para comenzar la tarea.",target1,stimuli/t1.jpg,152,39,stimuli/filler46.jpg,filler,False,None,,,,,,,,,,,,,,0,0,0,0,,,,,0,0,0,0,0,38,38,38,,,,,,,,,,,,,,,,,,,,,,,,,,,,,,,,,,,,,,,,,,,,,,,,,,,,,CS1_USpos,None,1,,,,,,,,,,,,,,,,,,20,f,152,n,2019_Dec_04_1700,ec_RRR,3.0.4,59.80546108696227,
Vadillo,"Para esta tarea, el personaje clave es Magearna:","De modo que siempre que veas a Magearna (su nombre o su imagen) en la pantalla, pulsa la barra espaciadora tan rápido como sea posible. Pulsa la barra espaciadora cuando veas una imagen de Magearna o la palabra MAGEARNA. 

Pulsa la barra espaciadora para comenzar la tarea.",target1,stimuli/t1.jpg,152,40,stimuli/blank.jpg,blank,False,None,,,,,,,,,,,,,,0,0,0,0,,,,,0,0,0,0,0,39,39,39,,,,,,,,,,,,,,,,,,,,,,,,,,,,,,,,,,,,,,,,,,,,,,,,,,,,,CS1_USpos,None,1,,,,,,,,,,,,,,,,,,20,f,152,n,2019_Dec_04_1700,ec_RRR,3.0.4,59.80546108696227,
Vadillo,"Para esta tarea, el personaje clave es Magearna:","De modo que siempre que veas a Magearna (su nombre o su imagen) en la pantalla, pulsa la barra espaciadora tan rápido como sea posible. Pulsa la barra espaciadora cuando veas una imagen de Magearna o la palabra MAGEARNA. 

Pulsa la barra espaciadora para comenzar la tarea.",target1,stimuli/t1.jpg,152,41,stimuli/cs2_neg15.jpg,CSUS,False,None,,,,,,,,,,,,,,0,0,0,0,,,,,0,0,0,0,0,40,40,40,,,,,,,,,,,,,,,,,,,,,,,,,,,,,,,,,,,,,,,,,,,,,,,,,,,,,CS1_USpos,None,1,,,,,,,,,,,,,,,,,,20,f,152,n,2019_Dec_04_1700,ec_RRR,3.0.4,59.80546108696227,
Vadillo,"Para esta tarea, el personaje clave es Magearna:","De modo que siempre que veas a Magearna (su nombre o su imagen) en la pantalla, pulsa la barra espaciadora tan rápido como sea posible. Pulsa la barra espaciadora cuando veas una imagen de Magearna o la palabra MAGEARNA. 

Pulsa la barra espaciadora para comenzar la tarea.",target1,stimuli/t1.jpg,152,42,stimuli/blank.jpg,blank,False,None,,,,,,,,,,,,,,0,0,0,0,,,,,0,0,0,0,0,41,41,41,,,,,,,,,,,,,,,,,,,,,,,,,,,,,,,,,,,,,,,,,,,,,,,,,,,,,CS1_USpos,None,1,,,,,,,,,,,,,,,,,,20,f,152,n,2019_Dec_04_1700,ec_RRR,3.0.4,59.80546108696227,
Vadillo,"Para esta tarea, el personaje clave es Magearna:","De modo que siempre que veas a Magearna (su nombre o su imagen) en la pantalla, pulsa la barra espaciadora tan rápido como sea posible. Pulsa la barra espaciadora cuando veas una imagen de Magearna o la palabra MAGEARNA. 

Pulsa la barra espaciadora para comenzar la tarea.",target1,stimuli/t1.jpg,152,43,stimuli/target1_10.jpg,target,True,space,,,,,,,,,,,,,,0,0,0,0,,,,,0,0,0,0,0,42,42,42,,,,,,,,,,,,,,,,,,,,,,,,,,,,,,,,,,,,,,,,,,,,,,,,,,,,,CS1_USpos,space,1,0.637886798940599,,,,,,,,,,,,,,,,,20,f,152,n,2019_Dec_04_1700,ec_RRR,3.0.4,59.80546108696227,
Vadillo,"Para esta tarea, el personaje clave es Magearna:","De modo que siempre que veas a Magearna (su nombre o su imagen) en la pantalla, pulsa la barra espaciadora tan rápido como sea posible. Pulsa la barra espaciadora cuando veas una imagen de Magearna o la palabra MAGEARNA. 

Pulsa la barra espaciadora para comenzar la tarea.",target1,stimuli/t1.jpg,152,44,stimuli/filler34.jpg,filler,False,None,,,,,,,,,,,,,,0,0,0,0,,,,,0,0,0,0,0,43,43,43,,,,,,,,,,,,,,,,,,,,,,,,,,,,,,,,,,,,,,,,,,,,,,,,,,,,,CS1_USpos,None,1,,,,,,,,,,,,,,,,,,20,f,152,n,2019_Dec_04_1700,ec_RRR,3.0.4,59.80546108696227,
Vadillo,"Para esta tarea, el personaje clave es Magearna:","De modo que siempre que veas a Magearna (su nombre o su imagen) en la pantalla, pulsa la barra espaciadora tan rápido como sea posible. Pulsa la barra espaciadora cuando veas una imagen de Magearna o la palabra MAGEARNA. 

Pulsa la barra espaciadora para comenzar la tarea.",target1,stimuli/t1.jpg,152,45,stimuli/filler39.jpg,filler,False,None,,,,,,,,,,,,,,0,0,0,0,,,,,0,0,0,0,0,44,44,44,,,,,,,,,,,,,,,,,,,,,,,,,,,,,,,,,,,,,,,,,,,,,,,,,,,,,CS1_USpos,None,1,,,,,,,,,,,,,,,,,,20,f,152,n,2019_Dec_04_1700,ec_RRR,3.0.4,59.80546108696227,
Vadillo,"Para esta tarea, el personaje clave es Magearna:","De modo que siempre que veas a Magearna (su nombre o su imagen) en la pantalla, pulsa la barra espaciadora tan rápido como sea posible. Pulsa la barra espaciadora cuando veas una imagen de Magearna o la palabra MAGEARNA. 

Pulsa la barra espaciadora para comenzar la tarea.",target1,stimuli/t1.jpg,152,46,stimuli/filler36.jpg,filler,False,None,,,,,,,,,,,,,,0,0,0,0,,,,,0,0,0,0,0,45,45,45,,,,,,,,,,,,,,,,,,,,,,,,,,,,,,,,,,,,,,,,,,,,,,,,,,,,,CS1_USpos,None,1,,,,,,,,,,,,,,,,,,20,f,152,n,2019_Dec_04_1700,ec_RRR,3.0.4,59.80546108696227,
Vadillo,"Para esta tarea, el personaje clave es Magearna:","De modo que siempre que veas a Magearna (su nombre o su imagen) en la pantalla, pulsa la barra espaciadora tan rápido como sea posible. Pulsa la barra espaciadora cuando veas una imagen de Magearna o la palabra MAGEARNA. 

Pulsa la barra espaciadora para comenzar la tarea.",target1,stimuli/t1.jpg,152,47,stimuli/filler17.jpg,filler,False,None,,,,,,,,,,,,,,0,0,0,0,,,,,0,0,0,0,0,46,46,46,,,,,,,,,,,,,,,,,,,,,,,,,,,,,,,,,,,,,,,,,,,,,,,,,,,,,CS1_USpos,None,1,,,,,,,,,,,,,,,,,,20,f,152,n,2019_Dec_04_1700,ec_RRR,3.0.4,59.80546108696227,
Vadillo,"Para esta tarea, el personaje clave es Magearna:","De modo que siempre que veas a Magearna (su nombre o su imagen) en la pantalla, pulsa la barra espaciadora tan rápido como sea posible. Pulsa la barra espaciadora cuando veas una imagen de Magearna o la palabra MAGEARNA. 

Pulsa la barra espaciadora para comenzar la tarea.",target1,stimuli/t1.jpg,152,48,stimuli/filler14.jpg,filler,False,None,,,,,,,,,,,,,,0,0,0,0,,,,,0,0,0,0,0,47,47,47,,,,,,,,,,,,,,,,,,,,,,,,,,,,,,,,,,,,,,,,,,,,,,,,,,,,,CS1_USpos,None,1,,,,,,,,,,,,,,,,,,20,f,152,n,2019_Dec_04_1700,ec_RRR,3.0.4,59.80546108696227,
Vadillo,"Para esta tarea, el personaje clave es Magearna:","De modo que siempre que veas a Magearna (su nombre o su imagen) en la pantalla, pulsa la barra espaciadora tan rápido como sea posible. Pulsa la barra espaciadora cuando veas una imagen de Magearna o la palabra MAGEARNA. 

Pulsa la barra espaciadora para comenzar la tarea.",target1,stimuli/t1.jpg,152,49,stimuli/filler28.jpg,filler,False,None,,,,,,,,,,,,,,0,0,0,0,,,,,0,0,0,0,0,48,48,48,,,,,,,,,,,,,,,,,,,,,,,,,,,,,,,,,,,,,,,,,,,,,,,,,,,,,CS1_USpos,None,1,,,,,,,,,,,,,,,,,,20,f,152,n,2019_Dec_04_1700,ec_RRR,3.0.4,59.80546108696227,
Vadillo,"Para esta tarea, el personaje clave es Magearna:","De modo que siempre que veas a Magearna (su nombre o su imagen) en la pantalla, pulsa la barra espaciadora tan rápido como sea posible. Pulsa la barra espaciadora cuando veas una imagen de Magearna o la palabra MAGEARNA. 

Pulsa la barra espaciadora para comenzar la tarea.",target1,stimuli/t1.jpg,152,50,stimuli/blank.jpg,blank,False,None,,,,,,,,,,,,,,0,0,0,0,,,,,0,0,0,0,0,49,49,49,,,,,,,,,,,,,,,,,,,,,,,,,,,,,,,,,,,,,,,,,,,,,,,,,,,,,CS1_USpos,None,1,,,,,,,,,,,,,,,,,,20,f,152,n,2019_Dec_04_1700,ec_RRR,3.0.4,59.80546108696227,
Vadillo,"Para esta tarea, el personaje clave es Magearna:","De modo que siempre que veas a Magearna (su nombre o su imagen) en la pantalla, pulsa la barra espaciadora tan rápido como sea posible. Pulsa la barra espaciadora cuando veas una imagen de Magearna o la palabra MAGEARNA. 

Pulsa la barra espaciadora para comenzar la tarea.",target1,stimuli/t1.jpg,152,51,stimuli/cs1_pos11.jpg,CSUS,False,None,,,,,,,,,,,,,,0,0,0,0,,,,,0,0,0,0,0,50,50,50,,,,,,,,,,,,,,,,,,,,,,,,,,,,,,,,,,,,,,,,,,,,,,,,,,,,,CS1_USpos,None,1,,,,,,,,,,,,,,,,,,20,f,152,n,2019_Dec_04_1700,ec_RRR,3.0.4,59.80546108696227,
Vadillo,"Para esta tarea, el personaje clave es Magearna:","De modo que siempre que veas a Magearna (su nombre o su imagen) en la pantalla, pulsa la barra espaciadora tan rápido como sea posible. Pulsa la barra espaciadora cuando veas una imagen de Magearna o la palabra MAGEARNA. 

Pulsa la barra espaciadora para comenzar la tarea.",target1,stimuli/t1.jpg,152,52,stimuli/blank.jpg,blank,False,None,,,,,,,,,,,,,,0,0,0,0,,,,,0,0,0,0,0,51,51,51,,,,,,,,,,,,,,,,,,,,,,,,,,,,,,,,,,,,,,,,,,,,,,,,,,,,,CS1_USpos,None,1,,,,,,,,,,,,,,,,,,20,f,152,n,2019_Dec_04_1700,ec_RRR,3.0.4,59.80546108696227,
Vadillo,"Para esta tarea, el personaje clave es Magearna:","De modo que siempre que veas a Magearna (su nombre o su imagen) en la pantalla, pulsa la barra espaciadora tan rápido como sea posible. Pulsa la barra espaciadora cuando veas una imagen de Magearna o la palabra MAGEARNA. 

Pulsa la barra espaciadora para comenzar la tarea.",target1,stimuli/t1.jpg,152,53,stimuli/filler20.jpg,filler,False,None,,,,,,,,,,,,,,0,0,0,0,,,,,0,0,0,0,0,52,52,52,,,,,,,,,,,,,,,,,,,,,,,,,,,,,,,,,,,,,,,,,,,,,,,,,,,,,CS1_USpos,None,1,,,,,,,,,,,,,,,,,,20,f,152,n,2019_Dec_04_1700,ec_RRR,3.0.4,59.80546108696227,
Vadillo,"Para esta tarea, el personaje clave es Magearna:","De modo que siempre que veas a Magearna (su nombre o su imagen) en la pantalla, pulsa la barra espaciadora tan rápido como sea posible. Pulsa la barra espaciadora cuando veas una imagen de Magearna o la palabra MAGEARNA. 

Pulsa la barra espaciadora para comenzar la tarea.",target1,stimuli/t1.jpg,152,54,stimuli/filler22.jpg,filler,False,None,,,,,,,,,,,,,,0,0,0,0,,,,,0,0,0,0,0,53,53,53,,,,,,,,,,,,,,,,,,,,,,,,,,,,,,,,,,,,,,,,,,,,,,,,,,,,,CS1_USpos,None,1,,,,,,,,,,,,,,,,,,20,f,152,n,2019_Dec_04_1700,ec_RRR,3.0.4,59.80546108696227,
Vadillo,"Para esta tarea, el personaje clave es Magearna:","De modo que siempre que veas a Magearna (su nombre o su imagen) en la pantalla, pulsa la barra espaciadora tan rápido como sea posible. Pulsa la barra espaciadora cuando veas una imagen de Magearna o la palabra MAGEARNA. 

Pulsa la barra espaciadora para comenzar la tarea.",target1,stimuli/t1.jpg,152,55,stimuli/filler40.jpg,filler,False,None,,,,,,,,,,,,,,0,0,0,0,,,,,0,0,0,0,0,54,54,54,,,,,,,,,,,,,,,,,,,,,,,,,,,,,,,,,,,,,,,,,,,,,,,,,,,,,CS1_USpos,None,1,,,,,,,,,,,,,,,,,,20,f,152,n,2019_Dec_04_1700,ec_RRR,3.0.4,59.80546108696227,
Vadillo,"Para esta tarea, el personaje clave es Magearna:","De modo que siempre que veas a Magearna (su nombre o su imagen) en la pantalla, pulsa la barra espaciadora tan rápido como sea posible. Pulsa la barra espaciadora cuando veas una imagen de Magearna o la palabra MAGEARNA. 

Pulsa la barra espaciadora para comenzar la tarea.",target1,stimuli/t1.jpg,152,56,stimuli/filler19.jpg,filler,False,None,,,,,,,,,,,,,,0,0,0,0,,,,,0,0,0,0,0,55,55,55,,,,,,,,,,,,,,,,,,,,,,,,,,,,,,,,,,,,,,,,,,,,,,,,,,,,,CS1_USpos,None,1,,,,,,,,,,,,,,,,,,20,f,152,n,2019_Dec_04_1700,ec_RRR,3.0.4,59.80546108696227,
Vadillo,"Para esta tarea, el personaje clave es Magearna:","De modo que siempre que veas a Magearna (su nombre o su imagen) en la pantalla, pulsa la barra espaciadora tan rápido como sea posible. Pulsa la barra espaciadora cuando veas una imagen de Magearna o la palabra MAGEARNA. 

Pulsa la barra espaciadora para comenzar la tarea.",target1,stimuli/t1.jpg,152,57,stimuli/filler37.jpg,filler,False,None,,,,,,,,,,,,,,0,0,0,0,,,,,0,0,0,0,0,56,56,56,,,,,,,,,,,,,,,,,,,,,,,,,,,,,,,,,,,,,,,,,,,,,,,,,,,,,CS1_USpos,None,1,,,,,,,,,,,,,,,,,,20,f,152,n,2019_Dec_04_1700,ec_RRR,3.0.4,59.80546108696227,
Vadillo,"Para esta tarea, el personaje clave es Magearna:","De modo que siempre que veas a Magearna (su nombre o su imagen) en la pantalla, pulsa la barra espaciadora tan rápido como sea posible. Pulsa la barra espaciadora cuando veas una imagen de Magearna o la palabra MAGEARNA. 

Pulsa la barra espaciadora para comenzar la tarea.",target1,stimuli/t1.jpg,152,58,stimuli/filler23.jpg,filler,False,None,,,,,,,,,,,,,,0,0,0,0,,,,,0,0,0,0,0,57,57,57,,,,,,,,,,,,,,,,,,,,,,,,,,,,,,,,,,,,,,,,,,,,,,,,,,,,,CS1_USpos,None,1,,,,,,,,,,,,,,,,,,20,f,152,n,2019_Dec_04_1700,ec_RRR,3.0.4,59.80546108696227,
Vadillo,"Para esta tarea, el personaje clave es Magearna:","De modo que siempre que veas a Magearna (su nombre o su imagen) en la pantalla, pulsa la barra espaciadora tan rápido como sea posible. Pulsa la barra espaciadora cuando veas una imagen de Magearna o la palabra MAGEARNA. 

Pulsa la barra espaciadora para comenzar la tarea.",target1,stimuli/t1.jpg,152,59,stimuli/filler35.jpg,filler,False,None,,,,,,,,,,,,,,0,0,0,0,,,,,0,0,0,0,0,58,58,58,,,,,,,,,,,,,,,,,,,,,,,,,,,,,,,,,,,,,,,,,,,,,,,,,,,,,CS1_USpos,None,1,,,,,,,,,,,,,,,,,,20,f,152,n,2019_Dec_04_1700,ec_RRR,3.0.4,59.80546108696227,
Vadillo,"Para esta tarea, el personaje clave es Magearna:","De modo que siempre que veas a Magearna (su nombre o su imagen) en la pantalla, pulsa la barra espaciadora tan rápido como sea posible. Pulsa la barra espaciadora cuando veas una imagen de Magearna o la palabra MAGEARNA. 

Pulsa la barra espaciadora para comenzar la tarea.",target1,stimuli/t1.jpg,152,60,stimuli/blank.jpg,blank,False,None,,,,,,,,,,,,,,0,0,0,0,,,,,0,0,0,0,0,59,59,59,,,,,,,,,,,,,,,,,,,,,,,,,,,,,,,,,,,,,,,,,,,,,,,,,,,,,CS1_USpos,None,1,,,,,,,,,,,,,,,,,,20,f,152,n,2019_Dec_04_1700,ec_RRR,3.0.4,59.80546108696227,
Vadillo,"Para esta tarea, el personaje clave es Magearna:","De modo que siempre que veas a Magearna (su nombre o su imagen) en la pantalla, pulsa la barra espaciadora tan rápido como sea posible. Pulsa la barra espaciadora cuando veas una imagen de Magearna o la palabra MAGEARNA. 

Pulsa la barra espaciadora para comenzar la tarea.",target1,stimuli/t1.jpg,152,61,stimuli/cs2_neg20.jpg,CSUS,False,None,,,,,,,,,,,,,,0,0,0,0,,,,,0,0,0,0,0,60,60,60,,,,,,,,,,,,,,,,,,,,,,,,,,,,,,,,,,,,,,,,,,,,,,,,,,,,,CS1_USpos,None,1,,,,,,,,,,,,,,,,,,20,f,152,n,2019_Dec_04_1700,ec_RRR,3.0.4,59.80546108696227,
Vadillo,"Para esta tarea, el personaje clave es Magearna:","De modo que siempre que veas a Magearna (su nombre o su imagen) en la pantalla, pulsa la barra espaciadora tan rápido como sea posible. Pulsa la barra espaciadora cuando veas una imagen de Magearna o la palabra MAGEARNA. 

Pulsa la barra espaciadora para comenzar la tarea.",target1,stimuli/t1.jpg,152,62,stimuli/blank.jpg,blank,False,None,,,,,,,,,,,,,,0,0,0,0,,,,,0,0,0,0,0,61,61,61,,,,,,,,,,,,,,,,,,,,,,,,,,,,,,,,,,,,,,,,,,,,,,,,,,,,,CS1_USpos,None,1,,,,,,,,,,,,,,,,,,20,f,152,n,2019_Dec_04_1700,ec_RRR,3.0.4,59.80546108696227,
Vadillo,"Para esta tarea, el personaje clave es Magearna:","De modo que siempre que veas a Magearna (su nombre o su imagen) en la pantalla, pulsa la barra espaciadora tan rápido como sea posible. Pulsa la barra espaciadora cuando veas una imagen de Magearna o la palabra MAGEARNA. 

Pulsa la barra espaciadora para comenzar la tarea.",target1,stimuli/t1.jpg,152,63,stimuli/filler7.jpg,filler,False,None,,,,,,,,,,,,,,0,0,0,0,,,,,0,0,0,0,0,62,62,62,,,,,,,,,,,,,,,,,,,,,,,,,,,,,,,,,,,,,,,,,,,,,,,,,,,,,CS1_USpos,None,1,,,,,,,,,,,,,,,,,,20,f,152,n,2019_Dec_04_1700,ec_RRR,3.0.4,59.80546108696227,
Vadillo,"Para esta tarea, el personaje clave es Magearna:","De modo que siempre que veas a Magearna (su nombre o su imagen) en la pantalla, pulsa la barra espaciadora tan rápido como sea posible. Pulsa la barra espaciadora cuando veas una imagen de Magearna o la palabra MAGEARNA. 

Pulsa la barra espaciadora para comenzar la tarea.",target1,stimuli/t1.jpg,152,64,stimuli/target1_2.jpg,target,True,space,,,,,,,,,,,,,,0,0,0,0,,,,,0,0,0,0,0,63,63,63,,,,,,,,,,,,,,,,,,,,,,,,,,,,,,,,,,,,,,,,,,,,,,,,,,,,,CS1_USpos,space,1,0.5547030190937221,,,,,,,,,,,,,,,,,20,f,152,n,2019_Dec_04_1700,ec_RRR,3.0.4,59.80546108696227,
Vadillo,"Para esta tarea, el personaje clave es Magearna:","De modo que siempre que veas a Magearna (su nombre o su imagen) en la pantalla, pulsa la barra espaciadora tan rápido como sea posible. Pulsa la barra espaciadora cuando veas una imagen de Magearna o la palabra MAGEARNA. 

Pulsa la barra espaciadora para comenzar la tarea.",target1,stimuli/t1.jpg,152,65,stimuli/target1_7.jpg,target,True,space,,,,,,,,,,,,,,0,0,0,0,,,,,0,0,0,0,0,64,64,64,,,,,,,,,,,,,,,,,,,,,,,,,,,,,,,,,,,,,,,,,,,,,,,,,,,,,CS1_USpos,None,0,,,,,,,,,,,,,,,,,,20,f,152,n,2019_Dec_04_1700,ec_RRR,3.0.4,59.80546108696227,
Vadillo,"Para esta tarea, el personaje clave es Magearna:","De modo que siempre que veas a Magearna (su nombre o su imagen) en la pantalla, pulsa la barra espaciadora tan rápido como sea posible. Pulsa la barra espaciadora cuando veas una imagen de Magearna o la palabra MAGEARNA. 

Pulsa la barra espaciadora para comenzar la tarea.",target1,stimuli/t1.jpg,152,66,stimuli/filler47.jpg,filler,False,None,,,,,,,,,,,,,,0,0,0,0,,,,,0,0,0,0,0,65,65,65,,,,,,,,,,,,,,,,,,,,,,,,,,,,,,,,,,,,,,,,,,,,,,,,,,,,,CS1_USpos,None,1,,,,,,,,,,,,,,,,,,20,f,152,n,2019_Dec_04_1700,ec_RRR,3.0.4,59.80546108696227,
Vadillo,"Para esta tarea, el personaje clave es Magearna:","De modo que siempre que veas a Magearna (su nombre o su imagen) en la pantalla, pulsa la barra espaciadora tan rápido como sea posible. Pulsa la barra espaciadora cuando veas una imagen de Magearna o la palabra MAGEARNA. 

Pulsa la barra espaciadora para comenzar la tarea.",target1,stimuli/t1.jpg,152,67,stimuli/filler29.jpg,filler,False,None,,,,,,,,,,,,,,0,0,0,0,,,,,0,0,0,0,0,66,66,66,,,,,,,,,,,,,,,,,,,,,,,,,,,,,,,,,,,,,,,,,,,,,,,,,,,,,CS1_USpos,None,1,,,,,,,,,,,,,,,,,,20,f,152,n,2019_Dec_04_1700,ec_RRR,3.0.4,59.80546108696227,
Vadillo,"Para esta tarea, el personaje clave es Magearna:","De modo que siempre que veas a Magearna (su nombre o su imagen) en la pantalla, pulsa la barra espaciadora tan rápido como sea posible. Pulsa la barra espaciadora cuando veas una imagen de Magearna o la palabra MAGEARNA. 

Pulsa la barra espaciadora para comenzar la tarea.",target1,stimuli/t1.jpg,152,68,stimuli/filler10.jpg,filler,False,None,,,,,,,,,,,,,,0,0,0,0,,,,,0,0,0,0,0,67,67,67,,,,,,,,,,,,,,,,,,,,,,,,,,,,,,,,,,,,,,,,,,,,,,,,,,,,,CS1_USpos,None,1,,,,,,,,,,,,,,,,,,20,f,152,n,2019_Dec_04_1700,ec_RRR,3.0.4,59.80546108696227,
Vadillo,"Para esta tarea, el personaje clave es Magearna:","De modo que siempre que veas a Magearna (su nombre o su imagen) en la pantalla, pulsa la barra espaciadora tan rápido como sea posible. Pulsa la barra espaciadora cuando veas una imagen de Magearna o la palabra MAGEARNA. 

Pulsa la barra espaciadora para comenzar la tarea.",target1,stimuli/t1.jpg,152,69,stimuli/target1_1.jpg,target,True,space,,,,,,,,,,,,,,0,0,0,0,,,,,0,0,0,0,0,68,68,68,,,,,,,,,,,,,,,,,,,,,,,,,,,,,,,,,,,,,,,,,,,,,,,,,,,,,CS1_USpos,space,1,0.4879115493968129,,,,,,,,,,,,,,,,,20,f,152,n,2019_Dec_04_1700,ec_RRR,3.0.4,59.80546108696227,
Vadillo,"Para esta tarea, el personaje clave es Magearna:","De modo que siempre que veas a Magearna (su nombre o su imagen) en la pantalla, pulsa la barra espaciadora tan rápido como sea posible. Pulsa la barra espaciadora cuando veas una imagen de Magearna o la palabra MAGEARNA. 

Pulsa la barra espaciadora para comenzar la tarea.",target1,stimuli/t1.jpg,152,70,stimuli/blank.jpg,blank,False,None,,,,,,,,,,,,,,0,0,0,0,,,,,0,0,0,0,0,69,69,69,,,,,,,,,,,,,,,,,,,,,,,,,,,,,,,,,,,,,,,,,,,,,,,,,,,,,CS1_USpos,None,1,,,,,,,,,,,,,,,,,,20,f,152,n,2019_Dec_04_1700,ec_RRR,3.0.4,59.80546108696227,
Vadillo,"Para esta tarea, el personaje clave es Magearna:","De modo que siempre que veas a Magearna (su nombre o su imagen) en la pantalla, pulsa la barra espaciadora tan rápido como sea posible. Pulsa la barra espaciadora cuando veas una imagen de Magearna o la palabra MAGEARNA. 

Pulsa la barra espaciadora para comenzar la tarea.",target1,stimuli/t1.jpg,152,71,stimuli/cs1_pos7.jpg,CSUS,False,None,,,,,,,,,,,,,,0,0,0,0,,,,,0,0,0,0,0,70,70,70,,,,,,,,,,,,,,,,,,,,,,,,,,,,,,,,,,,,,,,,,,,,,,,,,,,,,CS1_USpos,None,1,,,,,,,,,,,,,,,,,,20,f,152,n,2019_Dec_04_1700,ec_RRR,3.0.4,59.80546108696227,
Vadillo,"Para esta tarea, el personaje clave es Magearna:","De modo que siempre que veas a Magearna (su nombre o su imagen) en la pantalla, pulsa la barra espaciadora tan rápido como sea posible. Pulsa la barra espaciadora cuando veas una imagen de Magearna o la palabra MAGEARNA. 

Pulsa la barra espaciadora para comenzar la tarea.",target1,stimuli/t1.jpg,152,72,stimuli/blank.jpg,blank,False,None,,,,,,,,,,,,,,0,0,0,0,,,,,0,0,0,0,0,71,71,71,,,,,,,,,,,,,,,,,,,,,,,,,,,,,,,,,,,,,,,,,,,,,,,,,,,,,CS1_USpos,None,1,,,,,,,,,,,,,,,,,,20,f,152,n,2019_Dec_04_1700,ec_RRR,3.0.4,59.80546108696227,
Vadillo,"Para esta tarea, el personaje clave es Magearna:","De modo que siempre que veas a Magearna (su nombre o su imagen) en la pantalla, pulsa la barra espaciadora tan rápido como sea posible. Pulsa la barra espaciadora cuando veas una imagen de Magearna o la palabra MAGEARNA. 

Pulsa la barra espaciadora para comenzar la tarea.",target1,stimuli/t1.jpg,152,73,stimuli/filler32.jpg,filler,False,None,,,,,,,,,,,,,,0,0,0,0,,,,,0,0,0,0,0,72,72,72,,,,,,,,,,,,,,,,,,,,,,,,,,,,,,,,,,,,,,,,,,,,,,,,,,,,,CS1_USpos,None,1,,,,,,,,,,,,,,,,,,20,f,152,n,2019_Dec_04_1700,ec_RRR,3.0.4,59.80546108696227,
Vadillo,"Para esta tarea, el personaje clave es Magearna:","De modo que siempre que veas a Magearna (su nombre o su imagen) en la pantalla, pulsa la barra espaciadora tan rápido como sea posible. Pulsa la barra espaciadora cuando veas una imagen de Magearna o la palabra MAGEARNA. 

Pulsa la barra espaciadora para comenzar la tarea.",target1,stimuli/t1.jpg,152,74,stimuli/filler11.jpg,filler,False,None,,,,,,,,,,,,,,0,0,0,0,,,,,0,0,0,0,0,73,73,73,,,,,,,,,,,,,,,,,,,,,,,,,,,,,,,,,,,,,,,,,,,,,,,,,,,,,CS1_USpos,None,1,,,,,,,,,,,,,,,,,,20,f,152,n,2019_Dec_04_1700,ec_RRR,3.0.4,59.80546108696227,
Vadillo,"Para esta tarea, el personaje clave es Magearna:","De modo que siempre que veas a Magearna (su nombre o su imagen) en la pantalla, pulsa la barra espaciadora tan rápido como sea posible. Pulsa la barra espaciadora cuando veas una imagen de Magearna o la palabra MAGEARNA. 

Pulsa la barra espaciadora para comenzar la tarea.",target1,stimuli/t1.jpg,152,75,stimuli/filler48.jpg,filler,False,None,,,,,,,,,,,,,,0,0,0,0,,,,,0,0,0,0,0,74,74,74,,,,,,,,,,,,,,,,,,,,,,,,,,,,,,,,,,,,,,,,,,,,,,,,,,,,,CS1_USpos,None,1,,,,,,,,,,,,,,,,,,20,f,152,n,2019_Dec_04_1700,ec_RRR,3.0.4,59.80546108696227,
Vadillo,"Para esta tarea, el personaje clave es Magearna:","De modo que siempre que veas a Magearna (su nombre o su imagen) en la pantalla, pulsa la barra espaciadora tan rápido como sea posible. Pulsa la barra espaciadora cuando veas una imagen de Magearna o la palabra MAGEARNA. 

Pulsa la barra espaciadora para comenzar la tarea.",target1,stimuli/t1.jpg,152,76,stimuli/target1_5.jpg,target,True,space,,,,,,,,,,,,,,0,0,0,0,,,,,0,0,0,0,0,75,75,75,,,,,,,,,,,,,,,,,,,,,,,,,,,,,,,,,,,,,,,,,,,,,,,,,,,,,CS1_USpos,space,1,0.5037805316969752,,,,,,,,,,,,,,,,,20,f,152,n,2019_Dec_04_1700,ec_RRR,3.0.4,59.80546108696227,
Vadillo,"Para esta tarea, el personaje clave es Magearna:","De modo que siempre que veas a Magearna (su nombre o su imagen) en la pantalla, pulsa la barra espaciadora tan rápido como sea posible. Pulsa la barra espaciadora cuando veas una imagen de Magearna o la palabra MAGEARNA. 

Pulsa la barra espaciadora para comenzar la tarea.",target1,stimuli/t1.jpg,152,77,stimuli/filler13.jpg,filler,False,None,,,,,,,,,,,,,,0,0,0,0,,,,,0,0,0,0,0,76,76,76,,,,,,,,,,,,,,,,,,,,,,,,,,,,,,,,,,,,,,,,,,,,,,,,,,,,,CS1_USpos,None,1,,,,,,,,,,,,,,,,,,20,f,152,n,2019_Dec_04_1700,ec_RRR,3.0.4,59.80546108696227,
Vadillo,"Para esta tarea, el personaje clave es Magearna:","De modo que siempre que veas a Magearna (su nombre o su imagen) en la pantalla, pulsa la barra espaciadora tan rápido como sea posible. Pulsa la barra espaciadora cuando veas una imagen de Magearna o la palabra MAGEARNA. 

Pulsa la barra espaciadora para comenzar la tarea.",target1,stimuli/t1.jpg,152,78,stimuli/filler33.jpg,filler,False,None,,,,,,,,,,,,,,0,0,0,0,,,,,0,0,0,0,0,77,77,77,,,,,,,,,,,,,,,,,,,,,,,,,,,,,,,,,,,,,,,,,,,,,,,,,,,,,CS1_USpos,None,1,,,,,,,,,,,,,,,,,,20,f,152,n,2019_Dec_04_1700,ec_RRR,3.0.4,59.80546108696227,
Vadillo,"Para esta tarea, el personaje clave es Magearna:","De modo que siempre que veas a Magearna (su nombre o su imagen) en la pantalla, pulsa la barra espaciadora tan rápido como sea posible. Pulsa la barra espaciadora cuando veas una imagen de Magearna o la palabra MAGEARNA. 

Pulsa la barra espaciadora para comenzar la tarea.",target1,stimuli/t1.jpg,152,79,stimuli/filler2.jpg,filler,False,None,,,,,,,,,,,,,,0,0,0,0,,,,,0,0,0,0,0,78,78,78,,,,,,,,,,,,,,,,,,,,,,,,,,,,,,,,,,,,,,,,,,,,,,,,,,,,,CS1_USpos,None,1,,,,,,,,,,,,,,,,,,20,f,152,n,2019_Dec_04_1700,ec_RRR,3.0.4,59.80546108696227,
Vadillo,"Para esta tarea, el personaje clave es Magearna:","De modo que siempre que veas a Magearna (su nombre o su imagen) en la pantalla, pulsa la barra espaciadora tan rápido como sea posible. Pulsa la barra espaciadora cuando veas una imagen de Magearna o la palabra MAGEARNA. 

Pulsa la barra espaciadora para comenzar la tarea.",target1,stimuli/t1.jpg,152,80,stimuli/blank.jpg,blank,False,None,,,,,,,,,,,,,,0,0,0,0,,,,,0,0,0,0,0,79,79,79,,,,,,,,,,,,,,,,,,,,,,,,,,,,,,,,,,,,,,,,,,,,,,,,,,,,,CS1_USpos,None,1,,,,,,,,,,,,,,,,,,20,f,152,n,2019_Dec_04_1700,ec_RRR,3.0.4,59.80546108696227,
Vadillo,"Para esta tarea, el personaje clave es Magearna:","De modo que siempre que veas a Magearna (su nombre o su imagen) en la pantalla, pulsa la barra espaciadora tan rápido como sea posible. Pulsa la barra espaciadora cuando veas una imagen de Magearna o la palabra MAGEARNA. 

Pulsa la barra espaciadora para comenzar la tarea.",target1,stimuli/t1.jpg,152,81,stimuli/cs2_neg7.jpg,CSUS,False,None,,,,,,,,,,,,,,0,0,0,0,,,,,0,0,0,0,0,80,80,80,,,,,,,,,,,,,,,,,,,,,,,,,,,,,,,,,,,,,,,,,,,,,,,,,,,,,CS1_USpos,None,1,,,,,,,,,,,,,,,,,,20,f,152,n,2019_Dec_04_1700,ec_RRR,3.0.4,59.80546108696227,
Vadillo,"Para esta tarea, el personaje clave es Magearna:","De modo que siempre que veas a Magearna (su nombre o su imagen) en la pantalla, pulsa la barra espaciadora tan rápido como sea posible. Pulsa la barra espaciadora cuando veas una imagen de Magearna o la palabra MAGEARNA. 

Pulsa la barra espaciadora para comenzar la tarea.",target1,stimuli/t1.jpg,152,82,stimuli/blank.jpg,blank,False,None,,,,,,,,,,,,,,0,0,0,0,,,,,0,0,0,0,0,81,81,81,,,,,,,,,,,,,,,,,,,,,,,,,,,,,,,,,,,,,,,,,,,,,,,,,,,,,CS1_USpos,None,1,,,,,,,,,,,,,,,,,,20,f,152,n,2019_Dec_04_1700,ec_RRR,3.0.4,59.80546108696227,
Vadillo,"Para esta tarea, el personaje clave es Magearna:","De modo que siempre que veas a Magearna (su nombre o su imagen) en la pantalla, pulsa la barra espaciadora tan rápido como sea posible. Pulsa la barra espaciadora cuando veas una imagen de Magearna o la palabra MAGEARNA. 

Pulsa la barra espaciadora para comenzar la tarea.",target1,stimuli/t1.jpg,152,83,stimuli/filler45.jpg,filler,False,None,,,,,,,,,,,,,,0,0,0,0,,,,,0,0,0,0,0,82,82,82,,,,,,,,,,,,,,,,,,,,,,,,,,,,,,,,,,,,,,,,,,,,,,,,,,,,,CS1_USpos,None,1,,,,,,,,,,,,,,,,,,20,f,152,n,2019_Dec_04_1700,ec_RRR,3.0.4,59.80546108696227,
Vadillo,"Para esta tarea, el personaje clave es Magearna:","De modo que siempre que veas a Magearna (su nombre o su imagen) en la pantalla, pulsa la barra espaciadora tan rápido como sea posible. Pulsa la barra espaciadora cuando veas una imagen de Magearna o la palabra MAGEARNA. 

Pulsa la barra espaciadora para comenzar la tarea.",target1,stimuli/t1.jpg,152,84,stimuli/filler15.jpg,filler,False,None,,,,,,,,,,,,,,0,0,0,0,,,,,0,0,0,0,0,83,83,83,,,,,,,,,,,,,,,,,,,,,,,,,,,,,,,,,,,,,,,,,,,,,,,,,,,,,CS1_USpos,None,1,,,,,,,,,,,,,,,,,,20,f,152,n,2019_Dec_04_1700,ec_RRR,3.0.4,59.80546108696227,
Vadillo,"Para esta tarea, el personaje clave es Magearna:","De modo que siempre que veas a Magearna (su nombre o su imagen) en la pantalla, pulsa la barra espaciadora tan rápido como sea posible. Pulsa la barra espaciadora cuando veas una imagen de Magearna o la palabra MAGEARNA. 

Pulsa la barra espaciadora para comenzar la tarea.",target1,stimuli/t1.jpg,152,85,stimuli/filler3.jpg,filler,False,None,,,,,,,,,,,,,,0,0,0,0,,,,,0,0,0,0,0,84,84,84,,,,,,,,,,,,,,,,,,,,,,,,,,,,,,,,,,,,,,,,,,,,,,,,,,,,,CS1_USpos,None,1,,,,,,,,,,,,,,,,,,20,f,152,n,2019_Dec_04_1700,ec_RRR,3.0.4,59.80546108696227,
Vadillo,"Para esta tarea, el personaje clave es Magearna:","De modo que siempre que veas a Magearna (su nombre o su imagen) en la pantalla, pulsa la barra espaciadora tan rápido como sea posible. Pulsa la barra espaciadora cuando veas una imagen de Magearna o la palabra MAGEARNA. 

Pulsa la barra espaciadora para comenzar la tarea.",target1,stimuli/t1.jpg,152,86,stimuli/filler18.jpg,filler,False,None,,,,,,,,,,,,,,0,0,0,0,,,,,0,0,0,0,0,85,85,85,,,,,,,,,,,,,,,,,,,,,,,,,,,,,,,,,,,,,,,,,,,,,,,,,,,,,CS1_USpos,None,1,,,,,,,,,,,,,,,,,,20,f,152,n,2019_Dec_04_1700,ec_RRR,3.0.4,59.80546108696227,
Vadillo,"Para esta tarea, el personaje clave es Palpitoad:","De modo que siempre que veas a Palpitoad (su nombre o su imagen) en la pantalla, pulsa la barra espaciadora tan rápido como sea posible. Pulsa la barra espaciadora cuando veas una imagen de Palpitoad o la palabra PALPITOAD. 

Pulsa la barra espaciadora para comenzar la tarea.",target4,stimuli/t4.jpg,152,1,stimuli/target4_10.jpg,target,True,space,,,,,,,,,,,,,,0,0,0,0,,,,,0,1,1,3,0,0,0,0,,,,,,,,,,,,,,,,,,,,,,,,,,,,,,,,,,,,,,,,,,,,,,,,,,,,,CS1_USpos,space,1,0.6633814584929496,,,,,,,,,,,,,,,,,20,f,152,n,2019_Dec_04_1700,ec_RRR,3.0.4,59.80546108696227,
Vadillo,"Para esta tarea, el personaje clave es Palpitoad:","De modo que siempre que veas a Palpitoad (su nombre o su imagen) en la pantalla, pulsa la barra espaciadora tan rápido como sea posible. Pulsa la barra espaciadora cuando veas una imagen de Palpitoad o la palabra PALPITOAD. 

Pulsa la barra espaciadora para comenzar la tarea.",target4,stimuli/t4.jpg,152,2,stimuli/filler21.jpg,filler,False,None,,,,,,,,,,,,,,0,0,0,0,,,,,0,1,1,3,0,1,1,1,,,,,,,,,,,,,,,,,,,,,,,,,,,,,,,,,,,,,,,,,,,,,,,,,,,,,CS1_USpos,None,1,,,,,,,,,,,,,,,,,,20,f,152,n,2019_Dec_04_1700,ec_RRR,3.0.4,59.80546108696227,
Vadillo,"Para esta tarea, el personaje clave es Palpitoad:","De modo que siempre que veas a Palpitoad (su nombre o su imagen) en la pantalla, pulsa la barra espaciadora tan rápido como sea posible. Pulsa la barra espaciadora cuando veas una imagen de Palpitoad o la palabra PALPITOAD. 

Pulsa la barra espaciadora para comenzar la tarea.",target4,stimuli/t4.jpg,152,3,stimuli/filler49.jpg,filler,False,None,,,,,,,,,,,,,,0,0,0,0,,,,,0,1,1,3,0,2,2,2,,,,,,,,,,,,,,,,,,,,,,,,,,,,,,,,,,,,,,,,,,,,,,,,,,,,,CS1_USpos,None,1,,,,,,,,,,,,,,,,,,20,f,152,n,2019_Dec_04_1700,ec_RRR,3.0.4,59.80546108696227,
Vadillo,"Para esta tarea, el personaje clave es Palpitoad:","De modo que siempre que veas a Palpitoad (su nombre o su imagen) en la pantalla, pulsa la barra espaciadora tan rápido como sea posible. Pulsa la barra espaciadora cuando veas una imagen de Palpitoad o la palabra PALPITOAD. 

Pulsa la barra espaciadora para comenzar la tarea.",target4,stimuli/t4.jpg,152,4,stimuli/filler31.jpg,filler,False,None,,,,,,,,,,,,,,0,0,0,0,,,,,0,1,1,3,0,3,3,3,,,,,,,,,,,,,,,,,,,,,,,,,,,,,,,,,,,,,,,,,,,,,,,,,,,,,CS1_USpos,None,1,,,,,,,,,,,,,,,,,,20,f,152,n,2019_Dec_04_1700,ec_RRR,3.0.4,59.80546108696227,
Vadillo,"Para esta tarea, el personaje clave es Palpitoad:","De modo que siempre que veas a Palpitoad (su nombre o su imagen) en la pantalla, pulsa la barra espaciadora tan rápido como sea posible. Pulsa la barra espaciadora cuando veas una imagen de Palpitoad o la palabra PALPITOAD. 

Pulsa la barra espaciadora para comenzar la tarea.",target4,stimuli/t4.jpg,152,5,stimuli/filler17.jpg,filler,False,None,,,,,,,,,,,,,,0,0,0,0,,,,,0,1,1,3,0,4,4,4,,,,,,,,,,,,,,,,,,,,,,,,,,,,,,,,,,,,,,,,,,,,,,,,,,,,,CS1_USpos,None,1,,,,,,,,,,,,,,,,,,20,f,152,n,2019_Dec_04_1700,ec_RRR,3.0.4,59.80546108696227,
Vadillo,"Para esta tarea, el personaje clave es Palpitoad:","De modo que siempre que veas a Palpitoad (su nombre o su imagen) en la pantalla, pulsa la barra espaciadora tan rápido como sea posible. Pulsa la barra espaciadora cuando veas una imagen de Palpitoad o la palabra PALPITOAD. 

Pulsa la barra espaciadora para comenzar la tarea.",target4,stimuli/t4.jpg,152,6,stimuli/target4_3.jpg,target,True,space,,,,,,,,,,,,,,0,0,0,0,,,,,0,1,1,3,0,5,5,5,,,,,,,,,,,,,,,,,,,,,,,,,,,,,,,,,,,,,,,,,,,,,,,,,,,,,CS1_USpos,space,1,0.5055041897576302,,,,,,,,,,,,,,,,,20,f,152,n,2019_Dec_04_1700,ec_RRR,3.0.4,59.80546108696227,
Vadillo,"Para esta tarea, el personaje clave es Palpitoad:","De modo que siempre que veas a Palpitoad (su nombre o su imagen) en la pantalla, pulsa la barra espaciadora tan rápido como sea posible. Pulsa la barra espaciadora cuando veas una imagen de Palpitoad o la palabra PALPITOAD. 

Pulsa la barra espaciadora para comenzar la tarea.",target4,stimuli/t4.jpg,152,7,stimuli/filler24.jpg,filler,False,None,,,,,,,,,,,,,,0,0,0,0,,,,,0,1,1,3,0,6,6,6,,,,,,,,,,,,,,,,,,,,,,,,,,,,,,,,,,,,,,,,,,,,,,,,,,,,,CS1_USpos,None,1,,,,,,,,,,,,,,,,,,20,f,152,n,2019_Dec_04_1700,ec_RRR,3.0.4,59.80546108696227,
Vadillo,"Para esta tarea, el personaje clave es Palpitoad:","De modo que siempre que veas a Palpitoad (su nombre o su imagen) en la pantalla, pulsa la barra espaciadora tan rápido como sea posible. Pulsa la barra espaciadora cuando veas una imagen de Palpitoad o la palabra PALPITOAD. 

Pulsa la barra espaciadora para comenzar la tarea.",target4,stimuli/t4.jpg,152,8,stimuli/filler12.jpg,filler,False,None,,,,,,,,,,,,,,0,0,0,0,,,,,0,1,1,3,0,7,7,7,,,,,,,,,,,,,,,,,,,,,,,,,,,,,,,,,,,,,,,,,,,,,,,,,,,,,CS1_USpos,None,1,,,,,,,,,,,,,,,,,,20,f,152,n,2019_Dec_04_1700,ec_RRR,3.0.4,59.80546108696227,
Vadillo,"Para esta tarea, el personaje clave es Palpitoad:","De modo que siempre que veas a Palpitoad (su nombre o su imagen) en la pantalla, pulsa la barra espaciadora tan rápido como sea posible. Pulsa la barra espaciadora cuando veas una imagen de Palpitoad o la palabra PALPITOAD. 

Pulsa la barra espaciadora para comenzar la tarea.",target4,stimuli/t4.jpg,152,9,stimuli/filler39.jpg,filler,False,None,,,,,,,,,,,,,,0,0,0,0,,,,,0,1,1,3,0,8,8,8,,,,,,,,,,,,,,,,,,,,,,,,,,,,,,,,,,,,,,,,,,,,,,,,,,,,,CS1_USpos,None,1,,,,,,,,,,,,,,,,,,20,f,152,n,2019_Dec_04_1700,ec_RRR,3.0.4,59.80546108696227,
Vadillo,"Para esta tarea, el personaje clave es Palpitoad:","De modo que siempre que veas a Palpitoad (su nombre o su imagen) en la pantalla, pulsa la barra espaciadora tan rápido como sea posible. Pulsa la barra espaciadora cuando veas una imagen de Palpitoad o la palabra PALPITOAD. 

Pulsa la barra espaciadora para comenzar la tarea.",target4,stimuli/t4.jpg,152,10,stimuli/blank.jpg,blank,False,None,,,,,,,,,,,,,,0,0,0,0,,,,,0,1,1,3,0,9,9,9,,,,,,,,,,,,,,,,,,,,,,,,,,,,,,,,,,,,,,,,,,,,,,,,,,,,,CS1_USpos,None,1,,,,,,,,,,,,,,,,,,20,f,152,n,2019_Dec_04_1700,ec_RRR,3.0.4,59.80546108696227,
Vadillo,"Para esta tarea, el personaje clave es Palpitoad:","De modo que siempre que veas a Palpitoad (su nombre o su imagen) en la pantalla, pulsa la barra espaciadora tan rápido como sea posible. Pulsa la barra espaciadora cuando veas una imagen de Palpitoad o la palabra PALPITOAD. 

Pulsa la barra espaciadora para comenzar la tarea.",target4,stimuli/t4.jpg,152,11,stimuli/cs1_pos2.jpg,CSUS,False,None,,,,,,,,,,,,,,0,0,0,0,,,,,0,1,1,3,0,10,10,10,,,,,,,,,,,,,,,,,,,,,,,,,,,,,,,,,,,,,,,,,,,,,,,,,,,,,CS1_USpos,None,1,,,,,,,,,,,,,,,,,,20,f,152,n,2019_Dec_04_1700,ec_RRR,3.0.4,59.80546108696227,
Vadillo,"Para esta tarea, el personaje clave es Palpitoad:","De modo que siempre que veas a Palpitoad (su nombre o su imagen) en la pantalla, pulsa la barra espaciadora tan rápido como sea posible. Pulsa la barra espaciadora cuando veas una imagen de Palpitoad o la palabra PALPITOAD. 

Pulsa la barra espaciadora para comenzar la tarea.",target4,stimuli/t4.jpg,152,12,stimuli/blank.jpg,blank,False,None,,,,,,,,,,,,,,0,0,0,0,,,,,0,1,1,3,0,11,11,11,,,,,,,,,,,,,,,,,,,,,,,,,,,,,,,,,,,,,,,,,,,,,,,,,,,,,CS1_USpos,None,1,,,,,,,,,,,,,,,,,,20,f,152,n,2019_Dec_04_1700,ec_RRR,3.0.4,59.80546108696227,
Vadillo,"Para esta tarea, el personaje clave es Palpitoad:","De modo que siempre que veas a Palpitoad (su nombre o su imagen) en la pantalla, pulsa la barra espaciadora tan rápido como sea posible. Pulsa la barra espaciadora cuando veas una imagen de Palpitoad o la palabra PALPITOAD. 

Pulsa la barra espaciadora para comenzar la tarea.",target4,stimuli/t4.jpg,152,13,stimuli/filler37.jpg,filler,False,None,,,,,,,,,,,,,,0,0,0,0,,,,,0,1,1,3,0,12,12,12,,,,,,,,,,,,,,,,,,,,,,,,,,,,,,,,,,,,,,,,,,,,,,,,,,,,,CS1_USpos,None,1,,,,,,,,,,,,,,,,,,20,f,152,n,2019_Dec_04_1700,ec_RRR,3.0.4,59.80546108696227,
Vadillo,"Para esta tarea, el personaje clave es Palpitoad:","De modo que siempre que veas a Palpitoad (su nombre o su imagen) en la pantalla, pulsa la barra espaciadora tan rápido como sea posible. Pulsa la barra espaciadora cuando veas una imagen de Palpitoad o la palabra PALPITOAD. 

Pulsa la barra espaciadora para comenzar la tarea.",target4,stimuli/t4.jpg,152,14,stimuli/target4_1.jpg,target,True,space,,,,,,,,,,,,,,0,0,0,0,,,,,0,1,1,3,0,13,13,13,,,,,,,,,,,,,,,,,,,,,,,,,,,,,,,,,,,,,,,,,,,,,,,,,,,,,CS1_USpos,space,1,0.571054550120607,,,,,,,,,,,,,,,,,20,f,152,n,2019_Dec_04_1700,ec_RRR,3.0.4,59.80546108696227,
Vadillo,"Para esta tarea, el personaje clave es Palpitoad:","De modo que siempre que veas a Palpitoad (su nombre o su imagen) en la pantalla, pulsa la barra espaciadora tan rápido como sea posible. Pulsa la barra espaciadora cuando veas una imagen de Palpitoad o la palabra PALPITOAD. 

Pulsa la barra espaciadora para comenzar la tarea.",target4,stimuli/t4.jpg,152,15,stimuli/filler38.jpg,filler,False,None,,,,,,,,,,,,,,0,0,0,0,,,,,0,1,1,3,0,14,14,14,,,,,,,,,,,,,,,,,,,,,,,,,,,,,,,,,,,,,,,,,,,,,,,,,,,,,CS1_USpos,None,1,,,,,,,,,,,,,,,,,,20,f,152,n,2019_Dec_04_1700,ec_RRR,3.0.4,59.80546108696227,
Vadillo,"Para esta tarea, el personaje clave es Palpitoad:","De modo que siempre que veas a Palpitoad (su nombre o su imagen) en la pantalla, pulsa la barra espaciadora tan rápido como sea posible. Pulsa la barra espaciadora cuando veas una imagen de Palpitoad o la palabra PALPITOAD. 

Pulsa la barra espaciadora para comenzar la tarea.",target4,stimuli/t4.jpg,152,16,stimuli/filler52.jpg,filler,False,None,,,,,,,,,,,,,,0,0,0,0,,,,,0,1,1,3,0,15,15,15,,,,,,,,,,,,,,,,,,,,,,,,,,,,,,,,,,,,,,,,,,,,,,,,,,,,,CS1_USpos,None,1,,,,,,,,,,,,,,,,,,20,f,152,n,2019_Dec_04_1700,ec_RRR,3.0.4,59.80546108696227,
Vadillo,"Para esta tarea, el personaje clave es Palpitoad:","De modo que siempre que veas a Palpitoad (su nombre o su imagen) en la pantalla, pulsa la barra espaciadora tan rápido como sea posible. Pulsa la barra espaciadora cuando veas una imagen de Palpitoad o la palabra PALPITOAD. 

Pulsa la barra espaciadora para comenzar la tarea.",target4,stimuli/t4.jpg,152,17,stimuli/filler26.jpg,filler,False,None,,,,,,,,,,,,,,0,0,0,0,,,,,0,1,1,3,0,16,16,16,,,,,,,,,,,,,,,,,,,,,,,,,,,,,,,,,,,,,,,,,,,,,,,,,,,,,CS1_USpos,None,1,,,,,,,,,,,,,,,,,,20,f,152,n,2019_Dec_04_1700,ec_RRR,3.0.4,59.80546108696227,
Vadillo,"Para esta tarea, el personaje clave es Palpitoad:","De modo que siempre que veas a Palpitoad (su nombre o su imagen) en la pantalla, pulsa la barra espaciadora tan rápido como sea posible. Pulsa la barra espaciadora cuando veas una imagen de Palpitoad o la palabra PALPITOAD. 

Pulsa la barra espaciadora para comenzar la tarea.",target4,stimuli/t4.jpg,152,18,stimuli/filler42.jpg,filler,False,None,,,,,,,,,,,,,,0,0,0,0,,,,,0,1,1,3,0,17,17,17,,,,,,,,,,,,,,,,,,,,,,,,,,,,,,,,,,,,,,,,,,,,,,,,,,,,,CS1_USpos,None,1,,,,,,,,,,,,,,,,,,20,f,152,n,2019_Dec_04_1700,ec_RRR,3.0.4,59.80546108696227,
Vadillo,"Para esta tarea, el personaje clave es Palpitoad:","De modo que siempre que veas a Palpitoad (su nombre o su imagen) en la pantalla, pulsa la barra espaciadora tan rápido como sea posible. Pulsa la barra espaciadora cuando veas una imagen de Palpitoad o la palabra PALPITOAD. 

Pulsa la barra espaciadora para comenzar la tarea.",target4,stimuli/t4.jpg,152,19,stimuli/target4_8.jpg,target,True,space,,,,,,,,,,,,,,0,0,0,0,,,,,0,1,1,3,0,18,18,18,,,,,,,,,,,,,,,,,,,,,,,,,,,,,,,,,,,,,,,,,,,,,,,,,,,,,CS1_USpos,space,1,0.5210990482009947,,,,,,,,,,,,,,,,,20,f,152,n,2019_Dec_04_1700,ec_RRR,3.0.4,59.80546108696227,
Vadillo,"Para esta tarea, el personaje clave es Palpitoad:","De modo que siempre que veas a Palpitoad (su nombre o su imagen) en la pantalla, pulsa la barra espaciadora tan rápido como sea posible. Pulsa la barra espaciadora cuando veas una imagen de Palpitoad o la palabra PALPITOAD. 

Pulsa la barra espaciadora para comenzar la tarea.",target4,stimuli/t4.jpg,152,20,stimuli/blank.jpg,blank,False,None,,,,,,,,,,,,,,0,0,0,0,,,,,0,1,1,3,0,19,19,19,,,,,,,,,,,,,,,,,,,,,,,,,,,,,,,,,,,,,,,,,,,,,,,,,,,,,CS1_USpos,None,1,,,,,,,,,,,,,,,,,,20,f,152,n,2019_Dec_04_1700,ec_RRR,3.0.4,59.80546108696227,
Vadillo,"Para esta tarea, el personaje clave es Palpitoad:","De modo que siempre que veas a Palpitoad (su nombre o su imagen) en la pantalla, pulsa la barra espaciadora tan rápido como sea posible. Pulsa la barra espaciadora cuando veas una imagen de Palpitoad o la palabra PALPITOAD. 

Pulsa la barra espaciadora para comenzar la tarea.",target4,stimuli/t4.jpg,152,21,stimuli/cs2_neg4.jpg,CSUS,False,None,,,,,,,,,,,,,,0,0,0,0,,,,,0,1,1,3,0,20,20,20,,,,,,,,,,,,,,,,,,,,,,,,,,,,,,,,,,,,,,,,,,,,,,,,,,,,,CS1_USpos,None,1,,,,,,,,,,,,,,,,,,20,f,152,n,2019_Dec_04_1700,ec_RRR,3.0.4,59.80546108696227,
Vadillo,"Para esta tarea, el personaje clave es Palpitoad:","De modo que siempre que veas a Palpitoad (su nombre o su imagen) en la pantalla, pulsa la barra espaciadora tan rápido como sea posible. Pulsa la barra espaciadora cuando veas una imagen de Palpitoad o la palabra PALPITOAD. 

Pulsa la barra espaciadora para comenzar la tarea.",target4,stimuli/t4.jpg,152,22,stimuli/blank.jpg,blank,False,None,,,,,,,,,,,,,,0,0,0,0,,,,,0,1,1,3,0,21,21,21,,,,,,,,,,,,,,,,,,,,,,,,,,,,,,,,,,,,,,,,,,,,,,,,,,,,,CS1_USpos,None,1,,,,,,,,,,,,,,,,,,20,f,152,n,2019_Dec_04_1700,ec_RRR,3.0.4,59.80546108696227,
Vadillo,"Para esta tarea, el personaje clave es Palpitoad:","De modo que siempre que veas a Palpitoad (su nombre o su imagen) en la pantalla, pulsa la barra espaciadora tan rápido como sea posible. Pulsa la barra espaciadora cuando veas una imagen de Palpitoad o la palabra PALPITOAD. 

Pulsa la barra espaciadora para comenzar la tarea.",target4,stimuli/t4.jpg,152,23,stimuli/filler51.jpg,filler,False,None,,,,,,,,,,,,,,0,0,0,0,,,,,0,1,1,3,0,22,22,22,,,,,,,,,,,,,,,,,,,,,,,,,,,,,,,,,,,,,,,,,,,,,,,,,,,,,CS1_USpos,None,1,,,,,,,,,,,,,,,,,,20,f,152,n,2019_Dec_04_1700,ec_RRR,3.0.4,59.80546108696227,
Vadillo,"Para esta tarea, el personaje clave es Palpitoad:","De modo que siempre que veas a Palpitoad (su nombre o su imagen) en la pantalla, pulsa la barra espaciadora tan rápido como sea posible. Pulsa la barra espaciadora cuando veas una imagen de Palpitoad o la palabra PALPITOAD. 

Pulsa la barra espaciadora para comenzar la tarea.",target4,stimuli/t4.jpg,152,24,stimuli/target4_5.jpg,target,True,space,,,,,,,,,,,,,,0,0,0,0,,,,,0,1,1,3,0,23,23,23,,,,,,,,,,,,,,,,,,,,,,,,,,,,,,,,,,,,,,,,,,,,,,,,,,,,,CS1_USpos,space,1,0.5210484524723142,,,,,,,,,,,,,,,,,20,f,152,n,2019_Dec_04_1700,ec_RRR,3.0.4,59.80546108696227,
Vadillo,"Para esta tarea, el personaje clave es Palpitoad:","De modo que siempre que veas a Palpitoad (su nombre o su imagen) en la pantalla, pulsa la barra espaciadora tan rápido como sea posible. Pulsa la barra espaciadora cuando veas una imagen de Palpitoad o la palabra PALPITOAD. 

Pulsa la barra espaciadora para comenzar la tarea.",target4,stimuli/t4.jpg,152,25,stimuli/filler5.jpg,filler,False,None,,,,,,,,,,,,,,0,0,0,0,,,,,0,1,1,3,0,24,24,24,,,,,,,,,,,,,,,,,,,,,,,,,,,,,,,,,,,,,,,,,,,,,,,,,,,,,CS1_USpos,None,1,,,,,,,,,,,,,,,,,,20,f,152,n,2019_Dec_04_1700,ec_RRR,3.0.4,59.80546108696227,
Vadillo,"Para esta tarea, el personaje clave es Palpitoad:","De modo que siempre que veas a Palpitoad (su nombre o su imagen) en la pantalla, pulsa la barra espaciadora tan rápido como sea posible. Pulsa la barra espaciadora cuando veas una imagen de Palpitoad o la palabra PALPITOAD. 

Pulsa la barra espaciadora para comenzar la tarea.",target4,stimuli/t4.jpg,152,26,stimuli/filler25.jpg,filler,False,None,,,,,,,,,,,,,,0,0,0,0,,,,,0,1,1,3,0,25,25,25,,,,,,,,,,,,,,,,,,,,,,,,,,,,,,,,,,,,,,,,,,,,,,,,,,,,,CS1_USpos,None,1,,,,,,,,,,,,,,,,,,20,f,152,n,2019_Dec_04_1700,ec_RRR,3.0.4,59.80546108696227,
Vadillo,"Para esta tarea, el personaje clave es Palpitoad:","De modo que siempre que veas a Palpitoad (su nombre o su imagen) en la pantalla, pulsa la barra espaciadora tan rápido como sea posible. Pulsa la barra espaciadora cuando veas una imagen de Palpitoad o la palabra PALPITOAD. 

Pulsa la barra espaciadora para comenzar la tarea.",target4,stimuli/t4.jpg,152,27,stimuli/filler45.jpg,filler,False,None,,,,,,,,,,,,,,0,0,0,0,,,,,0,1,1,3,0,26,26,26,,,,,,,,,,,,,,,,,,,,,,,,,,,,,,,,,,,,,,,,,,,,,,,,,,,,,CS1_USpos,None,1,,,,,,,,,,,,,,,,,,20,f,152,n,2019_Dec_04_1700,ec_RRR,3.0.4,59.80546108696227,
Vadillo,"Para esta tarea, el personaje clave es Palpitoad:","De modo que siempre que veas a Palpitoad (su nombre o su imagen) en la pantalla, pulsa la barra espaciadora tan rápido como sea posible. Pulsa la barra espaciadora cuando veas una imagen de Palpitoad o la palabra PALPITOAD. 

Pulsa la barra espaciadora para comenzar la tarea.",target4,stimuli/t4.jpg,152,28,stimuli/filler11.jpg,filler,False,None,,,,,,,,,,,,,,0,0,0,0,,,,,0,1,1,3,0,27,27,27,,,,,,,,,,,,,,,,,,,,,,,,,,,,,,,,,,,,,,,,,,,,,,,,,,,,,CS1_USpos,None,1,,,,,,,,,,,,,,,,,,20,f,152,n,2019_Dec_04_1700,ec_RRR,3.0.4,59.80546108696227,
Vadillo,"Para esta tarea, el personaje clave es Palpitoad:","De modo que siempre que veas a Palpitoad (su nombre o su imagen) en la pantalla, pulsa la barra espaciadora tan rápido como sea posible. Pulsa la barra espaciadora cuando veas una imagen de Palpitoad o la palabra PALPITOAD. 

Pulsa la barra espaciadora para comenzar la tarea.",target4,stimuli/t4.jpg,152,29,stimuli/filler4.jpg,filler,False,None,,,,,,,,,,,,,,0,0,0,0,,,,,0,1,1,3,0,28,28,28,,,,,,,,,,,,,,,,,,,,,,,,,,,,,,,,,,,,,,,,,,,,,,,,,,,,,CS1_USpos,None,1,,,,,,,,,,,,,,,,,,20,f,152,n,2019_Dec_04_1700,ec_RRR,3.0.4,59.80546108696227,
Vadillo,"Para esta tarea, el personaje clave es Palpitoad:","De modo que siempre que veas a Palpitoad (su nombre o su imagen) en la pantalla, pulsa la barra espaciadora tan rápido como sea posible. Pulsa la barra espaciadora cuando veas una imagen de Palpitoad o la palabra PALPITOAD. 

Pulsa la barra espaciadora para comenzar la tarea.",target4,stimuli/t4.jpg,152,30,stimuli/blank.jpg,blank,False,None,,,,,,,,,,,,,,0,0,0,0,,,,,0,1,1,3,0,29,29,29,,,,,,,,,,,,,,,,,,,,,,,,,,,,,,,,,,,,,,,,,,,,,,,,,,,,,CS1_USpos,None,1,,,,,,,,,,,,,,,,,,20,f,152,n,2019_Dec_04_1700,ec_RRR,3.0.4,59.80546108696227,
Vadillo,"Para esta tarea, el personaje clave es Palpitoad:","De modo que siempre que veas a Palpitoad (su nombre o su imagen) en la pantalla, pulsa la barra espaciadora tan rápido como sea posible. Pulsa la barra espaciadora cuando veas una imagen de Palpitoad o la palabra PALPITOAD. 

Pulsa la barra espaciadora para comenzar la tarea.",target4,stimuli/t4.jpg,152,31,stimuli/cs1_pos8.jpg,CSUS,False,None,,,,,,,,,,,,,,0,0,0,0,,,,,0,1,1,3,0,30,30,30,,,,,,,,,,,,,,,,,,,,,,,,,,,,,,,,,,,,,,,,,,,,,,,,,,,,,CS1_USpos,None,1,,,,,,,,,,,,,,,,,,20,f,152,n,2019_Dec_04_1700,ec_RRR,3.0.4,59.80546108696227,
Vadillo,"Para esta tarea, el personaje clave es Palpitoad:","De modo que siempre que veas a Palpitoad (su nombre o su imagen) en la pantalla, pulsa la barra espaciadora tan rápido como sea posible. Pulsa la barra espaciadora cuando veas una imagen de Palpitoad o la palabra PALPITOAD. 

Pulsa la barra espaciadora para comenzar la tarea.",target4,stimuli/t4.jpg,152,32,stimuli/blank.jpg,blank,False,None,,,,,,,,,,,,,,0,0,0,0,,,,,0,1,1,3,0,31,31,31,,,,,,,,,,,,,,,,,,,,,,,,,,,,,,,,,,,,,,,,,,,,,,,,,,,,,CS1_USpos,None,1,,,,,,,,,,,,,,,,,,20,f,152,n,2019_Dec_04_1700,ec_RRR,3.0.4,59.80546108696227,
Vadillo,"Para esta tarea, el personaje clave es Palpitoad:","De modo que siempre que veas a Palpitoad (su nombre o su imagen) en la pantalla, pulsa la barra espaciadora tan rápido como sea posible. Pulsa la barra espaciadora cuando veas una imagen de Palpitoad o la palabra PALPITOAD. 

Pulsa la barra espaciadora para comenzar la tarea.",target4,stimuli/t4.jpg,152,33,stimuli/filler30.jpg,filler,False,None,,,,,,,,,,,,,,0,0,0,0,,,,,0,1,1,3,0,32,32,32,,,,,,,,,,,,,,,,,,,,,,,,,,,,,,,,,,,,,,,,,,,,,,,,,,,,,CS1_USpos,None,1,,,,,,,,,,,,,,,,,,20,f,152,n,2019_Dec_04_1700,ec_RRR,3.0.4,59.80546108696227,
Vadillo,"Para esta tarea, el personaje clave es Palpitoad:","De modo que siempre que veas a Palpitoad (su nombre o su imagen) en la pantalla, pulsa la barra espaciadora tan rápido como sea posible. Pulsa la barra espaciadora cuando veas una imagen de Palpitoad o la palabra PALPITOAD. 

Pulsa la barra espaciadora para comenzar la tarea.",target4,stimuli/t4.jpg,152,34,stimuli/filler43.jpg,filler,False,None,,,,,,,,,,,,,,0,0,0,0,,,,,0,1,1,3,0,33,33,33,,,,,,,,,,,,,,,,,,,,,,,,,,,,,,,,,,,,,,,,,,,,,,,,,,,,,CS1_USpos,None,1,,,,,,,,,,,,,,,,,,20,f,152,n,2019_Dec_04_1700,ec_RRR,3.0.4,59.80546108696227,
Vadillo,"Para esta tarea, el personaje clave es Palpitoad:","De modo que siempre que veas a Palpitoad (su nombre o su imagen) en la pantalla, pulsa la barra espaciadora tan rápido como sea posible. Pulsa la barra espaciadora cuando veas una imagen de Palpitoad o la palabra PALPITOAD. 

Pulsa la barra espaciadora para comenzar la tarea.",target4,stimuli/t4.jpg,152,35,stimuli/filler28.jpg,filler,False,None,,,,,,,,,,,,,,0,0,0,0,,,,,0,1,1,3,0,34,34,34,,,,,,,,,,,,,,,,,,,,,,,,,,,,,,,,,,,,,,,,,,,,,,,,,,,,,CS1_USpos,None,1,,,,,,,,,,,,,,,,,,20,f,152,n,2019_Dec_04_1700,ec_RRR,3.0.4,59.80546108696227,
Vadillo,"Para esta tarea, el personaje clave es Palpitoad:","De modo que siempre que veas a Palpitoad (su nombre o su imagen) en la pantalla, pulsa la barra espaciadora tan rápido como sea posible. Pulsa la barra espaciadora cuando veas una imagen de Palpitoad o la palabra PALPITOAD. 

Pulsa la barra espaciadora para comenzar la tarea.",target4,stimuli/t4.jpg,152,36,stimuli/filler14.jpg,filler,False,None,,,,,,,,,,,,,,0,0,0,0,,,,,0,1,1,3,0,35,35,35,,,,,,,,,,,,,,,,,,,,,,,,,,,,,,,,,,,,,,,,,,,,,,,,,,,,,CS1_USpos,None,1,,,,,,,,,,,,,,,,,,20,f,152,n,2019_Dec_04_1700,ec_RRR,3.0.4,59.80546108696227,
Vadillo,"Para esta tarea, el personaje clave es Palpitoad:","De modo que siempre que veas a Palpitoad (su nombre o su imagen) en la pantalla, pulsa la barra espaciadora tan rápido como sea posible. Pulsa la barra espaciadora cuando veas una imagen de Palpitoad o la palabra PALPITOAD. 

Pulsa la barra espaciadora para comenzar la tarea.",target4,stimuli/t4.jpg,152,37,stimuli/target4_9.jpg,target,True,space,,,,,,,,,,,,,,0,0,0,0,,,,,0,1,1,3,0,36,36,36,,,,,,,,,,,,,,,,,,,,,,,,,,,,,,,,,,,,,,,,,,,,,,,,,,,,,CS1_USpos,space,1,0.6033502023201436,,,,,,,,,,,,,,,,,20,f,152,n,2019_Dec_04_1700,ec_RRR,3.0.4,59.80546108696227,
Vadillo,"Para esta tarea, el personaje clave es Palpitoad:","De modo que siempre que veas a Palpitoad (su nombre o su imagen) en la pantalla, pulsa la barra espaciadora tan rápido como sea posible. Pulsa la barra espaciadora cuando veas una imagen de Palpitoad o la palabra PALPITOAD. 

Pulsa la barra espaciadora para comenzar la tarea.",target4,stimuli/t4.jpg,152,38,stimuli/filler41.jpg,filler,False,None,,,,,,,,,,,,,,0,0,0,0,,,,,0,1,1,3,0,37,37,37,,,,,,,,,,,,,,,,,,,,,,,,,,,,,,,,,,,,,,,,,,,,,,,,,,,,,CS1_USpos,None,1,,,,,,,,,,,,,,,,,,20,f,152,n,2019_Dec_04_1700,ec_RRR,3.0.4,59.80546108696227,
Vadillo,"Para esta tarea, el personaje clave es Palpitoad:","De modo que siempre que veas a Palpitoad (su nombre o su imagen) en la pantalla, pulsa la barra espaciadora tan rápido como sea posible. Pulsa la barra espaciadora cuando veas una imagen de Palpitoad o la palabra PALPITOAD. 

Pulsa la barra espaciadora para comenzar la tarea.",target4,stimuli/t4.jpg,152,39,stimuli/filler27.jpg,filler,False,None,,,,,,,,,,,,,,0,0,0,0,,,,,0,1,1,3,0,38,38,38,,,,,,,,,,,,,,,,,,,,,,,,,,,,,,,,,,,,,,,,,,,,,,,,,,,,,CS1_USpos,None,1,,,,,,,,,,,,,,,,,,20,f,152,n,2019_Dec_04_1700,ec_RRR,3.0.4,59.80546108696227,
Vadillo,"Para esta tarea, el personaje clave es Palpitoad:","De modo que siempre que veas a Palpitoad (su nombre o su imagen) en la pantalla, pulsa la barra espaciadora tan rápido como sea posible. Pulsa la barra espaciadora cuando veas una imagen de Palpitoad o la palabra PALPITOAD. 

Pulsa la barra espaciadora para comenzar la tarea.",target4,stimuli/t4.jpg,152,40,stimuli/blank.jpg,blank,False,None,,,,,,,,,,,,,,0,0,0,0,,,,,0,1,1,3,0,39,39,39,,,,,,,,,,,,,,,,,,,,,,,,,,,,,,,,,,,,,,,,,,,,,,,,,,,,,CS1_USpos,None,1,,,,,,,,,,,,,,,,,,20,f,152,n,2019_Dec_04_1700,ec_RRR,3.0.4,59.80546108696227,
Vadillo,"Para esta tarea, el personaje clave es Palpitoad:","De modo que siempre que veas a Palpitoad (su nombre o su imagen) en la pantalla, pulsa la barra espaciadora tan rápido como sea posible. Pulsa la barra espaciadora cuando veas una imagen de Palpitoad o la palabra PALPITOAD. 

Pulsa la barra espaciadora para comenzar la tarea.",target4,stimuli/t4.jpg,152,41,stimuli/cs2_neg2.jpg,CSUS,False,None,,,,,,,,,,,,,,0,0,0,0,,,,,0,1,1,3,0,40,40,40,,,,,,,,,,,,,,,,,,,,,,,,,,,,,,,,,,,,,,,,,,,,,,,,,,,,,CS1_USpos,None,1,,,,,,,,,,,,,,,,,,20,f,152,n,2019_Dec_04_1700,ec_RRR,3.0.4,59.80546108696227,
Vadillo,"Para esta tarea, el personaje clave es Palpitoad:","De modo que siempre que veas a Palpitoad (su nombre o su imagen) en la pantalla, pulsa la barra espaciadora tan rápido como sea posible. Pulsa la barra espaciadora cuando veas una imagen de Palpitoad o la palabra PALPITOAD. 

Pulsa la barra espaciadora para comenzar la tarea.",target4,stimuli/t4.jpg,152,42,stimuli/blank.jpg,blank,False,None,,,,,,,,,,,,,,0,0,0,0,,,,,0,1,1,3,0,41,41,41,,,,,,,,,,,,,,,,,,,,,,,,,,,,,,,,,,,,,,,,,,,,,,,,,,,,,CS1_USpos,None,1,,,,,,,,,,,,,,,,,,20,f,152,n,2019_Dec_04_1700,ec_RRR,3.0.4,59.80546108696227,
Vadillo,"Para esta tarea, el personaje clave es Palpitoad:","De modo que siempre que veas a Palpitoad (su nombre o su imagen) en la pantalla, pulsa la barra espaciadora tan rápido como sea posible. Pulsa la barra espaciadora cuando veas una imagen de Palpitoad o la palabra PALPITOAD. 

Pulsa la barra espaciadora para comenzar la tarea.",target4,stimuli/t4.jpg,152,43,stimuli/filler2.jpg,filler,False,None,,,,,,,,,,,,,,0,0,0,0,,,,,0,1,1,3,0,42,42,42,,,,,,,,,,,,,,,,,,,,,,,,,,,,,,,,,,,,,,,,,,,,,,,,,,,,,CS1_USpos,None,1,,,,,,,,,,,,,,,,,,20,f,152,n,2019_Dec_04_1700,ec_RRR,3.0.4,59.80546108696227,
Vadillo,"Para esta tarea, el personaje clave es Palpitoad:","De modo que siempre que veas a Palpitoad (su nombre o su imagen) en la pantalla, pulsa la barra espaciadora tan rápido como sea posible. Pulsa la barra espaciadora cuando veas una imagen de Palpitoad o la palabra PALPITOAD. 

Pulsa la barra espaciadora para comenzar la tarea.",target4,stimuli/t4.jpg,152,44,stimuli/filler13.jpg,filler,False,None,,,,,,,,,,,,,,0,0,0,0,,,,,0,1,1,3,0,43,43,43,,,,,,,,,,,,,,,,,,,,,,,,,,,,,,,,,,,,,,,,,,,,,,,,,,,,,CS1_USpos,None,1,,,,,,,,,,,,,,,,,,20,f,152,n,2019_Dec_04_1700,ec_RRR,3.0.4,59.80546108696227,
Vadillo,"Para esta tarea, el personaje clave es Palpitoad:","De modo que siempre que veas a Palpitoad (su nombre o su imagen) en la pantalla, pulsa la barra espaciadora tan rápido como sea posible. Pulsa la barra espaciadora cuando veas una imagen de Palpitoad o la palabra PALPITOAD. 

Pulsa la barra espaciadora para comenzar la tarea.",target4,stimuli/t4.jpg,152,45,stimuli/filler9.jpg,filler,False,None,,,,,,,,,,,,,,0,0,0,0,,,,,0,1,1,3,0,44,44,44,,,,,,,,,,,,,,,,,,,,,,,,,,,,,,,,,,,,,,,,,,,,,,,,,,,,,CS1_USpos,None,1,,,,,,,,,,,,,,,,,,20,f,152,n,2019_Dec_04_1700,ec_RRR,3.0.4,59.80546108696227,
Vadillo,"Para esta tarea, el personaje clave es Palpitoad:","De modo que siempre que veas a Palpitoad (su nombre o su imagen) en la pantalla, pulsa la barra espaciadora tan rápido como sea posible. Pulsa la barra espaciadora cuando veas una imagen de Palpitoad o la palabra PALPITOAD. 

Pulsa la barra espaciadora para comenzar la tarea.",target4,stimuli/t4.jpg,152,46,stimuli/target4_2.jpg,target,True,space,,,,,,,,,,,,,,0,0,0,0,,,,,0,1,1,3,0,45,45,45,,,,,,,,,,,,,,,,,,,,,,,,,,,,,,,,,,,,,,,,,,,,,,,,,,,,,CS1_USpos,space,1,0.553928222740069,,,,,,,,,,,,,,,,,20,f,152,n,2019_Dec_04_1700,ec_RRR,3.0.4,59.80546108696227,
Vadillo,"Para esta tarea, el personaje clave es Palpitoad:","De modo que siempre que veas a Palpitoad (su nombre o su imagen) en la pantalla, pulsa la barra espaciadora tan rápido como sea posible. Pulsa la barra espaciadora cuando veas una imagen de Palpitoad o la palabra PALPITOAD. 

Pulsa la barra espaciadora para comenzar la tarea.",target4,stimuli/t4.jpg,152,47,stimuli/filler33.jpg,filler,False,None,,,,,,,,,,,,,,0,0,0,0,,,,,0,1,1,3,0,46,46,46,,,,,,,,,,,,,,,,,,,,,,,,,,,,,,,,,,,,,,,,,,,,,,,,,,,,,CS1_USpos,None,1,,,,,,,,,,,,,,,,,,20,f,152,n,2019_Dec_04_1700,ec_RRR,3.0.4,59.80546108696227,
Vadillo,"Para esta tarea, el personaje clave es Palpitoad:","De modo que siempre que veas a Palpitoad (su nombre o su imagen) en la pantalla, pulsa la barra espaciadora tan rápido como sea posible. Pulsa la barra espaciadora cuando veas una imagen de Palpitoad o la palabra PALPITOAD. 

Pulsa la barra espaciadora para comenzar la tarea.",target4,stimuli/t4.jpg,152,48,stimuli/filler36.jpg,filler,False,None,,,,,,,,,,,,,,0,0,0,0,,,,,0,1,1,3,0,47,47,47,,,,,,,,,,,,,,,,,,,,,,,,,,,,,,,,,,,,,,,,,,,,,,,,,,,,,CS1_USpos,None,1,,,,,,,,,,,,,,,,,,20,f,152,n,2019_Dec_04_1700,ec_RRR,3.0.4,59.80546108696227,
Vadillo,"Para esta tarea, el personaje clave es Palpitoad:","De modo que siempre que veas a Palpitoad (su nombre o su imagen) en la pantalla, pulsa la barra espaciadora tan rápido como sea posible. Pulsa la barra espaciadora cuando veas una imagen de Palpitoad o la palabra PALPITOAD. 

Pulsa la barra espaciadora para comenzar la tarea.",target4,stimuli/t4.jpg,152,49,stimuli/filler34.jpg,filler,False,None,,,,,,,,,,,,,,0,0,0,0,,,,,0,1,1,3,0,48,48,48,,,,,,,,,,,,,,,,,,,,,,,,,,,,,,,,,,,,,,,,,,,,,,,,,,,,,CS1_USpos,None,1,,,,,,,,,,,,,,,,,,20,f,152,n,2019_Dec_04_1700,ec_RRR,3.0.4,59.80546108696227,
Vadillo,"Para esta tarea, el personaje clave es Palpitoad:","De modo que siempre que veas a Palpitoad (su nombre o su imagen) en la pantalla, pulsa la barra espaciadora tan rápido como sea posible. Pulsa la barra espaciadora cuando veas una imagen de Palpitoad o la palabra PALPITOAD. 

Pulsa la barra espaciadora para comenzar la tarea.",target4,stimuli/t4.jpg,152,50,stimuli/blank.jpg,blank,False,None,,,,,,,,,,,,,,0,0,0,0,,,,,0,1,1,3,0,49,49,49,,,,,,,,,,,,,,,,,,,,,,,,,,,,,,,,,,,,,,,,,,,,,,,,,,,,,CS1_USpos,None,1,,,,,,,,,,,,,,,,,,20,f,152,n,2019_Dec_04_1700,ec_RRR,3.0.4,59.80546108696227,
Vadillo,"Para esta tarea, el personaje clave es Palpitoad:","De modo que siempre que veas a Palpitoad (su nombre o su imagen) en la pantalla, pulsa la barra espaciadora tan rápido como sea posible. Pulsa la barra espaciadora cuando veas una imagen de Palpitoad o la palabra PALPITOAD. 

Pulsa la barra espaciadora para comenzar la tarea.",target4,stimuli/t4.jpg,152,51,stimuli/cs1_pos18.jpg,CSUS,False,None,,,,,,,,,,,,,,0,0,0,0,,,,,0,1,1,3,0,50,50,50,,,,,,,,,,,,,,,,,,,,,,,,,,,,,,,,,,,,,,,,,,,,,,,,,,,,,CS1_USpos,None,1,,,,,,,,,,,,,,,,,,20,f,152,n,2019_Dec_04_1700,ec_RRR,3.0.4,59.80546108696227,
Vadillo,"Para esta tarea, el personaje clave es Palpitoad:","De modo que siempre que veas a Palpitoad (su nombre o su imagen) en la pantalla, pulsa la barra espaciadora tan rápido como sea posible. Pulsa la barra espaciadora cuando veas una imagen de Palpitoad o la palabra PALPITOAD. 

Pulsa la barra espaciadora para comenzar la tarea.",target4,stimuli/t4.jpg,152,52,stimuli/blank.jpg,blank,False,None,,,,,,,,,,,,,,0,0,0,0,,,,,0,1,1,3,0,51,51,51,,,,,,,,,,,,,,,,,,,,,,,,,,,,,,,,,,,,,,,,,,,,,,,,,,,,,CS1_USpos,None,1,,,,,,,,,,,,,,,,,,20,f,152,n,2019_Dec_04_1700,ec_RRR,3.0.4,59.80546108696227,
Vadillo,"Para esta tarea, el personaje clave es Palpitoad:","De modo que siempre que veas a Palpitoad (su nombre o su imagen) en la pantalla, pulsa la barra espaciadora tan rápido como sea posible. Pulsa la barra espaciadora cuando veas una imagen de Palpitoad o la palabra PALPITOAD. 

Pulsa la barra espaciadora para comenzar la tarea.",target4,stimuli/t4.jpg,152,53,stimuli/filler15.jpg,filler,False,None,,,,,,,,,,,,,,0,0,0,0,,,,,0,1,1,3,0,52,52,52,,,,,,,,,,,,,,,,,,,,,,,,,,,,,,,,,,,,,,,,,,,,,,,,,,,,,CS1_USpos,None,1,,,,,,,,,,,,,,,,,,20,f,152,n,2019_Dec_04_1700,ec_RRR,3.0.4,59.80546108696227,
Vadillo,"Para esta tarea, el personaje clave es Palpitoad:","De modo que siempre que veas a Palpitoad (su nombre o su imagen) en la pantalla, pulsa la barra espaciadora tan rápido como sea posible. Pulsa la barra espaciadora cuando veas una imagen de Palpitoad o la palabra PALPITOAD. 

Pulsa la barra espaciadora para comenzar la tarea.",target4,stimuli/t4.jpg,152,54,stimuli/filler23.jpg,filler,False,None,,,,,,,,,,,,,,0,0,0,0,,,,,0,1,1,3,0,53,53,53,,,,,,,,,,,,,,,,,,,,,,,,,,,,,,,,,,,,,,,,,,,,,,,,,,,,,CS1_USpos,None,1,,,,,,,,,,,,,,,,,,20,f,152,n,2019_Dec_04_1700,ec_RRR,3.0.4,59.80546108696227,
Vadillo,"Para esta tarea, el personaje clave es Palpitoad:","De modo que siempre que veas a Palpitoad (su nombre o su imagen) en la pantalla, pulsa la barra espaciadora tan rápido como sea posible. Pulsa la barra espaciadora cuando veas una imagen de Palpitoad o la palabra PALPITOAD. 

Pulsa la barra espaciadora para comenzar la tarea.",target4,stimuli/t4.jpg,152,55,stimuli/filler19.jpg,filler,False,None,,,,,,,,,,,,,,0,0,0,0,,,,,0,1,1,3,0,54,54,54,,,,,,,,,,,,,,,,,,,,,,,,,,,,,,,,,,,,,,,,,,,,,,,,,,,,,CS1_USpos,None,1,,,,,,,,,,,,,,,,,,20,f,152,n,2019_Dec_04_1700,ec_RRR,3.0.4,59.80546108696227,
Vadillo,"Para esta tarea, el personaje clave es Palpitoad:","De modo que siempre que veas a Palpitoad (su nombre o su imagen) en la pantalla, pulsa la barra espaciadora tan rápido como sea posible. Pulsa la barra espaciadora cuando veas una imagen de Palpitoad o la palabra PALPITOAD. 

Pulsa la barra espaciadora para comenzar la tarea.",target4,stimuli/t4.jpg,152,56,stimuli/filler48.jpg,filler,False,None,,,,,,,,,,,,,,0,0,0,0,,,,,0,1,1,3,0,55,55,55,,,,,,,,,,,,,,,,,,,,,,,,,,,,,,,,,,,,,,,,,,,,,,,,,,,,,CS1_USpos,None,1,,,,,,,,,,,,,,,,,,20,f,152,n,2019_Dec_04_1700,ec_RRR,3.0.4,59.80546108696227,
Vadillo,"Para esta tarea, el personaje clave es Palpitoad:","De modo que siempre que veas a Palpitoad (su nombre o su imagen) en la pantalla, pulsa la barra espaciadora tan rápido como sea posible. Pulsa la barra espaciadora cuando veas una imagen de Palpitoad o la palabra PALPITOAD. 

Pulsa la barra espaciadora para comenzar la tarea.",target4,stimuli/t4.jpg,152,57,stimuli/filler40.jpg,filler,False,None,,,,,,,,,,,,,,0,0,0,0,,,,,0,1,1,3,0,56,56,56,,,,,,,,,,,,,,,,,,,,,,,,,,,,,,,,,,,,,,,,,,,,,,,,,,,,,CS1_USpos,None,1,,,,,,,,,,,,,,,,,,20,f,152,n,2019_Dec_04_1700,ec_RRR,3.0.4,59.80546108696227,
Vadillo,"Para esta tarea, el personaje clave es Palpitoad:","De modo que siempre que veas a Palpitoad (su nombre o su imagen) en la pantalla, pulsa la barra espaciadora tan rápido como sea posible. Pulsa la barra espaciadora cuando veas una imagen de Palpitoad o la palabra PALPITOAD. 

Pulsa la barra espaciadora para comenzar la tarea.",target4,stimuli/t4.jpg,152,58,stimuli/target4_7.jpg,target,True,space,,,,,,,,,,,,,,0,0,0,0,,,,,0,1,1,3,0,57,57,57,,,,,,,,,,,,,,,,,,,,,,,,,,,,,,,,,,,,,,,,,,,,,,,,,,,,,CS1_USpos,space,1,0.6219668432604522,,,,,,,,,,,,,,,,,20,f,152,n,2019_Dec_04_1700,ec_RRR,3.0.4,59.80546108696227,
Vadillo,"Para esta tarea, el personaje clave es Palpitoad:","De modo que siempre que veas a Palpitoad (su nombre o su imagen) en la pantalla, pulsa la barra espaciadora tan rápido como sea posible. Pulsa la barra espaciadora cuando veas una imagen de Palpitoad o la palabra PALPITOAD. 

Pulsa la barra espaciadora para comenzar la tarea.",target4,stimuli/t4.jpg,152,59,stimuli/filler18.jpg,filler,False,None,,,,,,,,,,,,,,0,0,0,0,,,,,0,1,1,3,0,58,58,58,,,,,,,,,,,,,,,,,,,,,,,,,,,,,,,,,,,,,,,,,,,,,,,,,,,,,CS1_USpos,None,1,,,,,,,,,,,,,,,,,,20,f,152,n,2019_Dec_04_1700,ec_RRR,3.0.4,59.80546108696227,
Vadillo,"Para esta tarea, el personaje clave es Palpitoad:","De modo que siempre que veas a Palpitoad (su nombre o su imagen) en la pantalla, pulsa la barra espaciadora tan rápido como sea posible. Pulsa la barra espaciadora cuando veas una imagen de Palpitoad o la palabra PALPITOAD. 

Pulsa la barra espaciadora para comenzar la tarea.",target4,stimuli/t4.jpg,152,60,stimuli/blank.jpg,blank,False,None,,,,,,,,,,,,,,0,0,0,0,,,,,0,1,1,3,0,59,59,59,,,,,,,,,,,,,,,,,,,,,,,,,,,,,,,,,,,,,,,,,,,,,,,,,,,,,CS1_USpos,None,1,,,,,,,,,,,,,,,,,,20,f,152,n,2019_Dec_04_1700,ec_RRR,3.0.4,59.80546108696227,
Vadillo,"Para esta tarea, el personaje clave es Palpitoad:","De modo que siempre que veas a Palpitoad (su nombre o su imagen) en la pantalla, pulsa la barra espaciadora tan rápido como sea posible. Pulsa la barra espaciadora cuando veas una imagen de Palpitoad o la palabra PALPITOAD. 

Pulsa la barra espaciadora para comenzar la tarea.",target4,stimuli/t4.jpg,152,61,stimuli/cs2_neg11.jpg,CSUS,False,None,,,,,,,,,,,,,,0,0,0,0,,,,,0,1,1,3,0,60,60,60,,,,,,,,,,,,,,,,,,,,,,,,,,,,,,,,,,,,,,,,,,,,,,,,,,,,,CS1_USpos,None,1,,,,,,,,,,,,,,,,,,20,f,152,n,2019_Dec_04_1700,ec_RRR,3.0.4,59.80546108696227,
Vadillo,"Para esta tarea, el personaje clave es Palpitoad:","De modo que siempre que veas a Palpitoad (su nombre o su imagen) en la pantalla, pulsa la barra espaciadora tan rápido como sea posible. Pulsa la barra espaciadora cuando veas una imagen de Palpitoad o la palabra PALPITOAD. 

Pulsa la barra espaciadora para comenzar la tarea.",target4,stimuli/t4.jpg,152,62,stimuli/blank.jpg,blank,False,None,,,,,,,,,,,,,,0,0,0,0,,,,,0,1,1,3,0,61,61,61,,,,,,,,,,,,,,,,,,,,,,,,,,,,,,,,,,,,,,,,,,,,,,,,,,,,,CS1_USpos,None,1,,,,,,,,,,,,,,,,,,20,f,152,n,2019_Dec_04_1700,ec_RRR,3.0.4,59.80546108696227,
Vadillo,"Para esta tarea, el personaje clave es Palpitoad:","De modo que siempre que veas a Palpitoad (su nombre o su imagen) en la pantalla, pulsa la barra espaciadora tan rápido como sea posible. Pulsa la barra espaciadora cuando veas una imagen de Palpitoad o la palabra PALPITOAD. 

Pulsa la barra espaciadora para comenzar la tarea.",target4,stimuli/t4.jpg,152,63,stimuli/filler22.jpg,filler,False,None,,,,,,,,,,,,,,0,0,0,0,,,,,0,1,1,3,0,62,62,62,,,,,,,,,,,,,,,,,,,,,,,,,,,,,,,,,,,,,,,,,,,,,,,,,,,,,CS1_USpos,None,1,,,,,,,,,,,,,,,,,,20,f,152,n,2019_Dec_04_1700,ec_RRR,3.0.4,59.80546108696227,
Vadillo,"Para esta tarea, el personaje clave es Palpitoad:","De modo que siempre que veas a Palpitoad (su nombre o su imagen) en la pantalla, pulsa la barra espaciadora tan rápido como sea posible. Pulsa la barra espaciadora cuando veas una imagen de Palpitoad o la palabra PALPITOAD. 

Pulsa la barra espaciadora para comenzar la tarea.",target4,stimuli/t4.jpg,152,64,stimuli/target4_6.jpg,target,True,space,,,,,,,,,,,,,,0,0,0,0,,,,,0,1,1,3,0,63,63,63,,,,,,,,,,,,,,,,,,,,,,,,,,,,,,,,,,,,,,,,,,,,,,,,,,,,,CS1_USpos,space,1,0.7053428117651492,,,,,,,,,,,,,,,,,20,f,152,n,2019_Dec_04_1700,ec_RRR,3.0.4,59.80546108696227,
Vadillo,"Para esta tarea, el personaje clave es Palpitoad:","De modo que siempre que veas a Palpitoad (su nombre o su imagen) en la pantalla, pulsa la barra espaciadora tan rápido como sea posible. Pulsa la barra espaciadora cuando veas una imagen de Palpitoad o la palabra PALPITOAD. 

Pulsa la barra espaciadora para comenzar la tarea.",target4,stimuli/t4.jpg,152,65,stimuli/filler1.jpg,filler,False,None,,,,,,,,,,,,,,0,0,0,0,,,,,0,1,1,3,0,64,64,64,,,,,,,,,,,,,,,,,,,,,,,,,,,,,,,,,,,,,,,,,,,,,,,,,,,,,CS1_USpos,None,1,,,,,,,,,,,,,,,,,,20,f,152,n,2019_Dec_04_1700,ec_RRR,3.0.4,59.80546108696227,
Vadillo,"Para esta tarea, el personaje clave es Palpitoad:","De modo que siempre que veas a Palpitoad (su nombre o su imagen) en la pantalla, pulsa la barra espaciadora tan rápido como sea posible. Pulsa la barra espaciadora cuando veas una imagen de Palpitoad o la palabra PALPITOAD. 

Pulsa la barra espaciadora para comenzar la tarea.",target4,stimuli/t4.jpg,152,66,stimuli/filler20.jpg,filler,False,None,,,,,,,,,,,,,,0,0,0,0,,,,,0,1,1,3,0,65,65,65,,,,,,,,,,,,,,,,,,,,,,,,,,,,,,,,,,,,,,,,,,,,,,,,,,,,,CS1_USpos,None,1,,,,,,,,,,,,,,,,,,20,f,152,n,2019_Dec_04_1700,ec_RRR,3.0.4,59.80546108696227,
Vadillo,"Para esta tarea, el personaje clave es Palpitoad:","De modo que siempre que veas a Palpitoad (su nombre o su imagen) en la pantalla, pulsa la barra espaciadora tan rápido como sea posible. Pulsa la barra espaciadora cuando veas una imagen de Palpitoad o la palabra PALPITOAD. 

Pulsa la barra espaciadora para comenzar la tarea.",target4,stimuli/t4.jpg,152,67,stimuli/filler47.jpg,filler,False,None,,,,,,,,,,,,,,0,0,0,0,,,,,0,1,1,3,0,66,66,66,,,,,,,,,,,,,,,,,,,,,,,,,,,,,,,,,,,,,,,,,,,,,,,,,,,,,CS1_USpos,None,1,,,,,,,,,,,,,,,,,,20,f,152,n,2019_Dec_04_1700,ec_RRR,3.0.4,59.80546108696227,
Vadillo,"Para esta tarea, el personaje clave es Palpitoad:","De modo que siempre que veas a Palpitoad (su nombre o su imagen) en la pantalla, pulsa la barra espaciadora tan rápido como sea posible. Pulsa la barra espaciadora cuando veas una imagen de Palpitoad o la palabra PALPITOAD. 

Pulsa la barra espaciadora para comenzar la tarea.",target4,stimuli/t4.jpg,152,68,stimuli/filler7.jpg,filler,False,None,,,,,,,,,,,,,,0,0,0,0,,,,,0,1,1,3,0,67,67,67,,,,,,,,,,,,,,,,,,,,,,,,,,,,,,,,,,,,,,,,,,,,,,,,,,,,,CS1_USpos,None,1,,,,,,,,,,,,,,,,,,20,f,152,n,2019_Dec_04_1700,ec_RRR,3.0.4,59.80546108696227,
Vadillo,"Para esta tarea, el personaje clave es Palpitoad:","De modo que siempre que veas a Palpitoad (su nombre o su imagen) en la pantalla, pulsa la barra espaciadora tan rápido como sea posible. Pulsa la barra espaciadora cuando veas una imagen de Palpitoad o la palabra PALPITOAD. 

Pulsa la barra espaciadora para comenzar la tarea.",target4,stimuli/t4.jpg,152,69,stimuli/filler10.jpg,filler,False,None,,,,,,,,,,,,,,0,0,0,0,,,,,0,1,1,3,0,68,68,68,,,,,,,,,,,,,,,,,,,,,,,,,,,,,,,,,,,,,,,,,,,,,,,,,,,,,CS1_USpos,None,1,,,,,,,,,,,,,,,,,,20,f,152,n,2019_Dec_04_1700,ec_RRR,3.0.4,59.80546108696227,
Vadillo,"Para esta tarea, el personaje clave es Palpitoad:","De modo que siempre que veas a Palpitoad (su nombre o su imagen) en la pantalla, pulsa la barra espaciadora tan rápido como sea posible. Pulsa la barra espaciadora cuando veas una imagen de Palpitoad o la palabra PALPITOAD. 

Pulsa la barra espaciadora para comenzar la tarea.",target4,stimuli/t4.jpg,152,70,stimuli/blank.jpg,blank,False,None,,,,,,,,,,,,,,0,0,0,0,,,,,0,1,1,3,0,69,69,69,,,,,,,,,,,,,,,,,,,,,,,,,,,,,,,,,,,,,,,,,,,,,,,,,,,,,CS1_USpos,None,1,,,,,,,,,,,,,,,,,,20,f,152,n,2019_Dec_04_1700,ec_RRR,3.0.4,59.80546108696227,
Vadillo,"Para esta tarea, el personaje clave es Palpitoad:","De modo que siempre que veas a Palpitoad (su nombre o su imagen) en la pantalla, pulsa la barra espaciadora tan rápido como sea posible. Pulsa la barra espaciadora cuando veas una imagen de Palpitoad o la palabra PALPITOAD. 

Pulsa la barra espaciadora para comenzar la tarea.",target4,stimuli/t4.jpg,152,71,stimuli/cs1_pos9.jpg,CSUS,False,None,,,,,,,,,,,,,,0,0,0,0,,,,,0,1,1,3,0,70,70,70,,,,,,,,,,,,,,,,,,,,,,,,,,,,,,,,,,,,,,,,,,,,,,,,,,,,,CS1_USpos,None,1,,,,,,,,,,,,,,,,,,20,f,152,n,2019_Dec_04_1700,ec_RRR,3.0.4,59.80546108696227,
Vadillo,"Para esta tarea, el personaje clave es Palpitoad:","De modo que siempre que veas a Palpitoad (su nombre o su imagen) en la pantalla, pulsa la barra espaciadora tan rápido como sea posible. Pulsa la barra espaciadora cuando veas una imagen de Palpitoad o la palabra PALPITOAD. 

Pulsa la barra espaciadora para comenzar la tarea.",target4,stimuli/t4.jpg,152,72,stimuli/blank.jpg,blank,False,None,,,,,,,,,,,,,,0,0,0,0,,,,,0,1,1,3,0,71,71,71,,,,,,,,,,,,,,,,,,,,,,,,,,,,,,,,,,,,,,,,,,,,,,,,,,,,,CS1_USpos,None,1,,,,,,,,,,,,,,,,,,20,f,152,n,2019_Dec_04_1700,ec_RRR,3.0.4,59.80546108696227,
Vadillo,"Para esta tarea, el personaje clave es Palpitoad:","De modo que siempre que veas a Palpitoad (su nombre o su imagen) en la pantalla, pulsa la barra espaciadora tan rápido como sea posible. Pulsa la barra espaciadora cuando veas una imagen de Palpitoad o la palabra PALPITOAD. 

Pulsa la barra espaciadora para comenzar la tarea.",target4,stimuli/t4.jpg,152,73,stimuli/filler35.jpg,filler,False,None,,,,,,,,,,,,,,0,0,0,0,,,,,0,1,1,3,0,72,72,72,,,,,,,,,,,,,,,,,,,,,,,,,,,,,,,,,,,,,,,,,,,,,,,,,,,,,CS1_USpos,None,1,,,,,,,,,,,,,,,,,,20,f,152,n,2019_Dec_04_1700,ec_RRR,3.0.4,59.80546108696227,
Vadillo,"Para esta tarea, el personaje clave es Palpitoad:","De modo que siempre que veas a Palpitoad (su nombre o su imagen) en la pantalla, pulsa la barra espaciadora tan rápido como sea posible. Pulsa la barra espaciadora cuando veas una imagen de Palpitoad o la palabra PALPITOAD. 

Pulsa la barra espaciadora para comenzar la tarea.",target4,stimuli/t4.jpg,152,74,stimuli/filler6.jpg,filler,False,None,,,,,,,,,,,,,,0,0,0,0,,,,,0,1,1,3,0,73,73,73,,,,,,,,,,,,,,,,,,,,,,,,,,,,,,,,,,,,,,,,,,,,,,,,,,,,,CS1_USpos,None,1,,,,,,,,,,,,,,,,,,20,f,152,n,2019_Dec_04_1700,ec_RRR,3.0.4,59.80546108696227,
Vadillo,"Para esta tarea, el personaje clave es Palpitoad:","De modo que siempre que veas a Palpitoad (su nombre o su imagen) en la pantalla, pulsa la barra espaciadora tan rápido como sea posible. Pulsa la barra espaciadora cuando veas una imagen de Palpitoad o la palabra PALPITOAD. 

Pulsa la barra espaciadora para comenzar la tarea.",target4,stimuli/t4.jpg,152,75,stimuli/filler29.jpg,filler,False,None,,,,,,,,,,,,,,0,0,0,0,,,,,0,1,1,3,0,74,74,74,,,,,,,,,,,,,,,,,,,,,,,,,,,,,,,,,,,,,,,,,,,,,,,,,,,,,CS1_USpos,None,1,,,,,,,,,,,,,,,,,,20,f,152,n,2019_Dec_04_1700,ec_RRR,3.0.4,59.80546108696227,
Vadillo,"Para esta tarea, el personaje clave es Palpitoad:","De modo que siempre que veas a Palpitoad (su nombre o su imagen) en la pantalla, pulsa la barra espaciadora tan rápido como sea posible. Pulsa la barra espaciadora cuando veas una imagen de Palpitoad o la palabra PALPITOAD. 

Pulsa la barra espaciadora para comenzar la tarea.",target4,stimuli/t4.jpg,152,76,stimuli/filler16.jpg,filler,False,None,,,,,,,,,,,,,,0,0,0,0,,,,,0,1,1,3,0,75,75,75,,,,,,,,,,,,,,,,,,,,,,,,,,,,,,,,,,,,,,,,,,,,,,,,,,,,,CS1_USpos,None,1,,,,,,,,,,,,,,,,,,20,f,152,n,2019_Dec_04_1700,ec_RRR,3.0.4,59.80546108696227,
