data_collection_site,instructions_text_top,instructions_text_bottom,block_id,example_image,participant,trial_number,stimulus,trial_type,target_trial,surveillance_correct_response,filler_1_items,filler_2_items,middle_text,left_text,right_text,evaluation_stimulus,left_stimulus,right_stimulus,evaluation_response_indicating_CS1_preferred,awareness_1_question_text,awareness_2a_question_text,awareness_2b_question_text,awareness_2_question_text,record_data_collection_site_variable.thisRepN,record_data_collection_site_variable.thisTrialN,record_data_collection_site_variable.thisN,record_data_collection_site_variable.thisIndex,surveillance_instructions_loop.thisRepN,surveillance_instructions_loop.thisTrialN,surveillance_instructions_loop.thisN,surveillance_instructions_loop.thisIndex,surveillance_blocks_loop.thisRepN,surveillance_blocks_loop.thisTrialN,surveillance_blocks_loop.thisN,surveillance_blocks_loop.thisIndex,surveillance_trials_loop.thisRepN,surveillance_trials_loop.thisTrialN,surveillance_trials_loop.thisN,surveillance_trials_loop.thisIndex,filler_1_instructions_loop.thisRepN,filler_1_instructions_loop.thisTrialN,filler_1_instructions_loop.thisN,filler_1_instructions_loop.thisIndex,filler_1_loop.thisRepN,filler_1_loop.thisTrialN,filler_1_loop.thisN,filler_1_loop.thisIndex,filler_2_instructions_loop.thisRepN,filler_2_instructions_loop.thisTrialN,filler_2_instructions_loop.thisN,filler_2_instructions_loop.thisIndex,filler_2_loop.thisRepN,filler_2_loop.thisTrialN,filler_2_loop.thisN,filler_2_loop.thisIndex,evaluation_instructions_loop.thisRepN,evaluation_instructions_loop.thisTrialN,evaluation_instructions_loop.thisN,evaluation_instructions_loop.thisIndex,evaluation_loop.thisRepN,evaluation_loop.thisTrialN,evaluation_loop.thisN,evaluation_loop.thisIndex,evaluation_trials.thisRepN,evaluation_trials.thisTrialN,evaluation_trials.thisN,evaluation_trials.thisIndex,awareness_instructions_loop.thisRepN,awareness_instructions_loop.thisTrialN,awareness_instructions_loop.thisN,awareness_instructions_loop.thisIndex,awareness_1_trials_loop.thisRepN,awareness_1_trials_loop.thisTrialN,awareness_1_trials_loop.thisN,awareness_1_trials_loop.thisIndex,awareness_2a_trials_loop.thisRepN,awareness_2a_trials_loop.thisTrialN,awareness_2a_trials_loop.thisN,awareness_2a_trials_loop.thisIndex,awareness_2b_trials_loop.thisRepN,awareness_2b_trials_loop.thisTrialN,awareness_2b_trials_loop.thisN,awareness_2b_trials_loop.thisIndex,awareness_2c_trials_loop.thisRepN,awareness_2c_trials_loop.thisTrialN,awareness_2c_trials_loop.thisN,awareness_2c_trials_loop.thisIndex,end_message_loop.thisRepN,end_message_loop.thisTrialN,end_message_loop.thisN,end_message_loop.thisIndex,condition,surveillance_response.keys,surveillance_response.corr,surveillance_response.rt,filler_1_rating.response,filler_1_rating.rt,filler_2_rating.response,filler_2_rating.rt,evaluation_response.keys,evaluation_response.corr,evaluation_response.rt,inputText,awareness_1_response.keys,awareness_1_response.rt,awareness_type_2a_rating.response,awareness_type_2a_rating.rt,awareness_type_2b_rating.response,awareness_type_2b_rating.rt,awareness_type_2c_rating.response,awareness_type_2c_rating.rt,age,gender,participant,UseMonkey,date,expName,psychopyVersion,frameRate,
Vadillo,"Para esta tarea, el personaje clave es Bergmite:","De modo que siempre que veas a Bergmite (su nombre o su imagen) en la pantalla, pulsa la barra espaciadora tan rápido como sea posible. Pulsa la barra espaciadora cuando veas una imagen de Bergmite o la palabra BERGMITE. 

Pulsa la barra espaciadora para comenzar la tarea.",target3,stimuli/t3.jpg,165,1,stimuli/filler2.jpg,filler,False,None,,,,,,,,,,,,,,0,0,0,0,,,,,0,0,0,2,0,0,0,0,,,,,,,,,,,,,,,,,,,,,,,,,,,,,,,,,,,,,,,,,,,,,,,,,,,,,CS1_USneg,None,1,,,,,,,,,,,,,,,,,,21,f,165,n,2019_Dec_04_1757,ec_RRR,3.0.4,59.80190530338482,
Vadillo,"Para esta tarea, el personaje clave es Bergmite:","De modo que siempre que veas a Bergmite (su nombre o su imagen) en la pantalla, pulsa la barra espaciadora tan rápido como sea posible. Pulsa la barra espaciadora cuando veas una imagen de Bergmite o la palabra BERGMITE. 

Pulsa la barra espaciadora para comenzar la tarea.",target3,stimuli/t3.jpg,165,2,stimuli/filler6.jpg,filler,False,None,,,,,,,,,,,,,,0,0,0,0,,,,,0,0,0,2,0,1,1,1,,,,,,,,,,,,,,,,,,,,,,,,,,,,,,,,,,,,,,,,,,,,,,,,,,,,,CS1_USneg,None,1,,,,,,,,,,,,,,,,,,21,f,165,n,2019_Dec_04_1757,ec_RRR,3.0.4,59.80190530338482,
Vadillo,"Para esta tarea, el personaje clave es Bergmite:","De modo que siempre que veas a Bergmite (su nombre o su imagen) en la pantalla, pulsa la barra espaciadora tan rápido como sea posible. Pulsa la barra espaciadora cuando veas una imagen de Bergmite o la palabra BERGMITE. 

Pulsa la barra espaciadora para comenzar la tarea.",target3,stimuli/t3.jpg,165,3,stimuli/filler26.jpg,filler,False,None,,,,,,,,,,,,,,0,0,0,0,,,,,0,0,0,2,0,2,2,2,,,,,,,,,,,,,,,,,,,,,,,,,,,,,,,,,,,,,,,,,,,,,,,,,,,,,CS1_USneg,None,1,,,,,,,,,,,,,,,,,,21,f,165,n,2019_Dec_04_1757,ec_RRR,3.0.4,59.80190530338482,
Vadillo,"Para esta tarea, el personaje clave es Bergmite:","De modo que siempre que veas a Bergmite (su nombre o su imagen) en la pantalla, pulsa la barra espaciadora tan rápido como sea posible. Pulsa la barra espaciadora cuando veas una imagen de Bergmite o la palabra BERGMITE. 

Pulsa la barra espaciadora para comenzar la tarea.",target3,stimuli/t3.jpg,165,4,stimuli/filler33.jpg,filler,False,None,,,,,,,,,,,,,,0,0,0,0,,,,,0,0,0,2,0,3,3,3,,,,,,,,,,,,,,,,,,,,,,,,,,,,,,,,,,,,,,,,,,,,,,,,,,,,,CS1_USneg,None,1,,,,,,,,,,,,,,,,,,21,f,165,n,2019_Dec_04_1757,ec_RRR,3.0.4,59.80190530338482,
Vadillo,"Para esta tarea, el personaje clave es Bergmite:","De modo que siempre que veas a Bergmite (su nombre o su imagen) en la pantalla, pulsa la barra espaciadora tan rápido como sea posible. Pulsa la barra espaciadora cuando veas una imagen de Bergmite o la palabra BERGMITE. 

Pulsa la barra espaciadora para comenzar la tarea.",target3,stimuli/t3.jpg,165,5,stimuli/filler43.jpg,filler,False,None,,,,,,,,,,,,,,0,0,0,0,,,,,0,0,0,2,0,4,4,4,,,,,,,,,,,,,,,,,,,,,,,,,,,,,,,,,,,,,,,,,,,,,,,,,,,,,CS1_USneg,None,1,,,,,,,,,,,,,,,,,,21,f,165,n,2019_Dec_04_1757,ec_RRR,3.0.4,59.80190530338482,
Vadillo,"Para esta tarea, el personaje clave es Bergmite:","De modo que siempre que veas a Bergmite (su nombre o su imagen) en la pantalla, pulsa la barra espaciadora tan rápido como sea posible. Pulsa la barra espaciadora cuando veas una imagen de Bergmite o la palabra BERGMITE. 

Pulsa la barra espaciadora para comenzar la tarea.",target3,stimuli/t3.jpg,165,6,stimuli/target3_1.jpg,target,True,space,,,,,,,,,,,,,,0,0,0,0,,,,,0,0,0,2,0,5,5,5,,,,,,,,,,,,,,,,,,,,,,,,,,,,,,,,,,,,,,,,,,,,,,,,,,,,,CS1_USneg,space,1,0.835932535410393,,,,,,,,,,,,,,,,,21,f,165,n,2019_Dec_04_1757,ec_RRR,3.0.4,59.80190530338482,
Vadillo,"Para esta tarea, el personaje clave es Bergmite:","De modo que siempre que veas a Bergmite (su nombre o su imagen) en la pantalla, pulsa la barra espaciadora tan rápido como sea posible. Pulsa la barra espaciadora cuando veas una imagen de Bergmite o la palabra BERGMITE. 

Pulsa la barra espaciadora para comenzar la tarea.",target3,stimuli/t3.jpg,165,7,stimuli/filler45.jpg,filler,False,None,,,,,,,,,,,,,,0,0,0,0,,,,,0,0,0,2,0,6,6,6,,,,,,,,,,,,,,,,,,,,,,,,,,,,,,,,,,,,,,,,,,,,,,,,,,,,,CS1_USneg,None,1,,,,,,,,,,,,,,,,,,21,f,165,n,2019_Dec_04_1757,ec_RRR,3.0.4,59.80190530338482,
Vadillo,"Para esta tarea, el personaje clave es Bergmite:","De modo que siempre que veas a Bergmite (su nombre o su imagen) en la pantalla, pulsa la barra espaciadora tan rápido como sea posible. Pulsa la barra espaciadora cuando veas una imagen de Bergmite o la palabra BERGMITE. 

Pulsa la barra espaciadora para comenzar la tarea.",target3,stimuli/t3.jpg,165,8,stimuli/filler48.jpg,filler,False,None,,,,,,,,,,,,,,0,0,0,0,,,,,0,0,0,2,0,7,7,7,,,,,,,,,,,,,,,,,,,,,,,,,,,,,,,,,,,,,,,,,,,,,,,,,,,,,CS1_USneg,None,1,,,,,,,,,,,,,,,,,,21,f,165,n,2019_Dec_04_1757,ec_RRR,3.0.4,59.80190530338482,
Vadillo,"Para esta tarea, el personaje clave es Bergmite:","De modo que siempre que veas a Bergmite (su nombre o su imagen) en la pantalla, pulsa la barra espaciadora tan rápido como sea posible. Pulsa la barra espaciadora cuando veas una imagen de Bergmite o la palabra BERGMITE. 

Pulsa la barra espaciadora para comenzar la tarea.",target3,stimuli/t3.jpg,165,9,stimuli/target3_7.jpg,target,True,space,,,,,,,,,,,,,,0,0,0,0,,,,,0,0,0,2,0,8,8,8,,,,,,,,,,,,,,,,,,,,,,,,,,,,,,,,,,,,,,,,,,,,,,,,,,,,,CS1_USneg,space,1,1.4388094732130412,,,,,,,,,,,,,,,,,21,f,165,n,2019_Dec_04_1757,ec_RRR,3.0.4,59.80190530338482,
Vadillo,"Para esta tarea, el personaje clave es Bergmite:","De modo que siempre que veas a Bergmite (su nombre o su imagen) en la pantalla, pulsa la barra espaciadora tan rápido como sea posible. Pulsa la barra espaciadora cuando veas una imagen de Bergmite o la palabra BERGMITE. 

Pulsa la barra espaciadora para comenzar la tarea.",target3,stimuli/t3.jpg,165,10,stimuli/blank.jpg,blank,False,None,,,,,,,,,,,,,,0,0,0,0,,,,,0,0,0,2,0,9,9,9,,,,,,,,,,,,,,,,,,,,,,,,,,,,,,,,,,,,,,,,,,,,,,,,,,,,,CS1_USneg,None,1,,,,,,,,,,,,,,,,,,21,f,165,n,2019_Dec_04_1757,ec_RRR,3.0.4,59.80190530338482,
Vadillo,"Para esta tarea, el personaje clave es Bergmite:","De modo que siempre que veas a Bergmite (su nombre o su imagen) en la pantalla, pulsa la barra espaciadora tan rápido como sea posible. Pulsa la barra espaciadora cuando veas una imagen de Bergmite o la palabra BERGMITE. 

Pulsa la barra espaciadora para comenzar la tarea.",target3,stimuli/t3.jpg,165,11,stimuli/cs1_neg9.jpg,CSUS,False,None,,,,,,,,,,,,,,0,0,0,0,,,,,0,0,0,2,0,10,10,10,,,,,,,,,,,,,,,,,,,,,,,,,,,,,,,,,,,,,,,,,,,,,,,,,,,,,CS1_USneg,None,1,,,,,,,,,,,,,,,,,,21,f,165,n,2019_Dec_04_1757,ec_RRR,3.0.4,59.80190530338482,
Vadillo,"Para esta tarea, el personaje clave es Bergmite:","De modo que siempre que veas a Bergmite (su nombre o su imagen) en la pantalla, pulsa la barra espaciadora tan rápido como sea posible. Pulsa la barra espaciadora cuando veas una imagen de Bergmite o la palabra BERGMITE. 

Pulsa la barra espaciadora para comenzar la tarea.",target3,stimuli/t3.jpg,165,12,stimuli/blank.jpg,blank,False,None,,,,,,,,,,,,,,0,0,0,0,,,,,0,0,0,2,0,11,11,11,,,,,,,,,,,,,,,,,,,,,,,,,,,,,,,,,,,,,,,,,,,,,,,,,,,,,CS1_USneg,None,1,,,,,,,,,,,,,,,,,,21,f,165,n,2019_Dec_04_1757,ec_RRR,3.0.4,59.80190530338482,
Vadillo,"Para esta tarea, el personaje clave es Bergmite:","De modo que siempre que veas a Bergmite (su nombre o su imagen) en la pantalla, pulsa la barra espaciadora tan rápido como sea posible. Pulsa la barra espaciadora cuando veas una imagen de Bergmite o la palabra BERGMITE. 

Pulsa la barra espaciadora para comenzar la tarea.",target3,stimuli/t3.jpg,165,13,stimuli/filler31.jpg,filler,False,None,,,,,,,,,,,,,,0,0,0,0,,,,,0,0,0,2,0,12,12,12,,,,,,,,,,,,,,,,,,,,,,,,,,,,,,,,,,,,,,,,,,,,,,,,,,,,,CS1_USneg,None,1,,,,,,,,,,,,,,,,,,21,f,165,n,2019_Dec_04_1757,ec_RRR,3.0.4,59.80190530338482,
Vadillo,"Para esta tarea, el personaje clave es Bergmite:","De modo que siempre que veas a Bergmite (su nombre o su imagen) en la pantalla, pulsa la barra espaciadora tan rápido como sea posible. Pulsa la barra espaciadora cuando veas una imagen de Bergmite o la palabra BERGMITE. 

Pulsa la barra espaciadora para comenzar la tarea.",target3,stimuli/t3.jpg,165,14,stimuli/target3_3.jpg,target,True,space,,,,,,,,,,,,,,0,0,0,0,,,,,0,0,0,2,0,13,13,13,,,,,,,,,,,,,,,,,,,,,,,,,,,,,,,,,,,,,,,,,,,,,,,,,,,,,CS1_USneg,space,1,0.702955436805496,,,,,,,,,,,,,,,,,21,f,165,n,2019_Dec_04_1757,ec_RRR,3.0.4,59.80190530338482,
Vadillo,"Para esta tarea, el personaje clave es Bergmite:","De modo que siempre que veas a Bergmite (su nombre o su imagen) en la pantalla, pulsa la barra espaciadora tan rápido como sea posible. Pulsa la barra espaciadora cuando veas una imagen de Bergmite o la palabra BERGMITE. 

Pulsa la barra espaciadora para comenzar la tarea.",target3,stimuli/t3.jpg,165,15,stimuli/filler32.jpg,filler,False,None,,,,,,,,,,,,,,0,0,0,0,,,,,0,0,0,2,0,14,14,14,,,,,,,,,,,,,,,,,,,,,,,,,,,,,,,,,,,,,,,,,,,,,,,,,,,,,CS1_USneg,None,1,,,,,,,,,,,,,,,,,,21,f,165,n,2019_Dec_04_1757,ec_RRR,3.0.4,59.80190530338482,
Vadillo,"Para esta tarea, el personaje clave es Bergmite:","De modo que siempre que veas a Bergmite (su nombre o su imagen) en la pantalla, pulsa la barra espaciadora tan rápido como sea posible. Pulsa la barra espaciadora cuando veas una imagen de Bergmite o la palabra BERGMITE. 

Pulsa la barra espaciadora para comenzar la tarea.",target3,stimuli/t3.jpg,165,16,stimuli/filler23.jpg,filler,False,None,,,,,,,,,,,,,,0,0,0,0,,,,,0,0,0,2,0,15,15,15,,,,,,,,,,,,,,,,,,,,,,,,,,,,,,,,,,,,,,,,,,,,,,,,,,,,,CS1_USneg,None,1,,,,,,,,,,,,,,,,,,21,f,165,n,2019_Dec_04_1757,ec_RRR,3.0.4,59.80190530338482,
Vadillo,"Para esta tarea, el personaje clave es Bergmite:","De modo que siempre que veas a Bergmite (su nombre o su imagen) en la pantalla, pulsa la barra espaciadora tan rápido como sea posible. Pulsa la barra espaciadora cuando veas una imagen de Bergmite o la palabra BERGMITE. 

Pulsa la barra espaciadora para comenzar la tarea.",target3,stimuli/t3.jpg,165,17,stimuli/filler24.jpg,filler,False,None,,,,,,,,,,,,,,0,0,0,0,,,,,0,0,0,2,0,16,16,16,,,,,,,,,,,,,,,,,,,,,,,,,,,,,,,,,,,,,,,,,,,,,,,,,,,,,CS1_USneg,None,1,,,,,,,,,,,,,,,,,,21,f,165,n,2019_Dec_04_1757,ec_RRR,3.0.4,59.80190530338482,
Vadillo,"Para esta tarea, el personaje clave es Bergmite:","De modo que siempre que veas a Bergmite (su nombre o su imagen) en la pantalla, pulsa la barra espaciadora tan rápido como sea posible. Pulsa la barra espaciadora cuando veas una imagen de Bergmite o la palabra BERGMITE. 

Pulsa la barra espaciadora para comenzar la tarea.",target3,stimuli/t3.jpg,165,18,stimuli/filler22.jpg,filler,False,None,,,,,,,,,,,,,,0,0,0,0,,,,,0,0,0,2,0,17,17,17,,,,,,,,,,,,,,,,,,,,,,,,,,,,,,,,,,,,,,,,,,,,,,,,,,,,,CS1_USneg,None,1,,,,,,,,,,,,,,,,,,21,f,165,n,2019_Dec_04_1757,ec_RRR,3.0.4,59.80190530338482,
Vadillo,"Para esta tarea, el personaje clave es Bergmite:","De modo que siempre que veas a Bergmite (su nombre o su imagen) en la pantalla, pulsa la barra espaciadora tan rápido como sea posible. Pulsa la barra espaciadora cuando veas una imagen de Bergmite o la palabra BERGMITE. 

Pulsa la barra espaciadora para comenzar la tarea.",target3,stimuli/t3.jpg,165,19,stimuli/filler11.jpg,filler,False,None,,,,,,,,,,,,,,0,0,0,0,,,,,0,0,0,2,0,18,18,18,,,,,,,,,,,,,,,,,,,,,,,,,,,,,,,,,,,,,,,,,,,,,,,,,,,,,CS1_USneg,None,1,,,,,,,,,,,,,,,,,,21,f,165,n,2019_Dec_04_1757,ec_RRR,3.0.4,59.80190530338482,
Vadillo,"Para esta tarea, el personaje clave es Bergmite:","De modo que siempre que veas a Bergmite (su nombre o su imagen) en la pantalla, pulsa la barra espaciadora tan rápido como sea posible. Pulsa la barra espaciadora cuando veas una imagen de Bergmite o la palabra BERGMITE. 

Pulsa la barra espaciadora para comenzar la tarea.",target3,stimuli/t3.jpg,165,20,stimuli/blank.jpg,blank,False,None,,,,,,,,,,,,,,0,0,0,0,,,,,0,0,0,2,0,19,19,19,,,,,,,,,,,,,,,,,,,,,,,,,,,,,,,,,,,,,,,,,,,,,,,,,,,,,CS1_USneg,None,1,,,,,,,,,,,,,,,,,,21,f,165,n,2019_Dec_04_1757,ec_RRR,3.0.4,59.80190530338482,
Vadillo,"Para esta tarea, el personaje clave es Bergmite:","De modo que siempre que veas a Bergmite (su nombre o su imagen) en la pantalla, pulsa la barra espaciadora tan rápido como sea posible. Pulsa la barra espaciadora cuando veas una imagen de Bergmite o la palabra BERGMITE. 

Pulsa la barra espaciadora para comenzar la tarea.",target3,stimuli/t3.jpg,165,21,stimuli/cs2_pos2.jpg,CSUS,False,None,,,,,,,,,,,,,,0,0,0,0,,,,,0,0,0,2,0,20,20,20,,,,,,,,,,,,,,,,,,,,,,,,,,,,,,,,,,,,,,,,,,,,,,,,,,,,,CS1_USneg,None,1,,,,,,,,,,,,,,,,,,21,f,165,n,2019_Dec_04_1757,ec_RRR,3.0.4,59.80190530338482,
Vadillo,"Para esta tarea, el personaje clave es Bergmite:","De modo que siempre que veas a Bergmite (su nombre o su imagen) en la pantalla, pulsa la barra espaciadora tan rápido como sea posible. Pulsa la barra espaciadora cuando veas una imagen de Bergmite o la palabra BERGMITE. 

Pulsa la barra espaciadora para comenzar la tarea.",target3,stimuli/t3.jpg,165,22,stimuli/blank.jpg,blank,False,None,,,,,,,,,,,,,,0,0,0,0,,,,,0,0,0,2,0,21,21,21,,,,,,,,,,,,,,,,,,,,,,,,,,,,,,,,,,,,,,,,,,,,,,,,,,,,,CS1_USneg,None,1,,,,,,,,,,,,,,,,,,21,f,165,n,2019_Dec_04_1757,ec_RRR,3.0.4,59.80190530338482,
Vadillo,"Para esta tarea, el personaje clave es Bergmite:","De modo que siempre que veas a Bergmite (su nombre o su imagen) en la pantalla, pulsa la barra espaciadora tan rápido como sea posible. Pulsa la barra espaciadora cuando veas una imagen de Bergmite o la palabra BERGMITE. 

Pulsa la barra espaciadora para comenzar la tarea.",target3,stimuli/t3.jpg,165,23,stimuli/filler4.jpg,filler,False,None,,,,,,,,,,,,,,0,0,0,0,,,,,0,0,0,2,0,22,22,22,,,,,,,,,,,,,,,,,,,,,,,,,,,,,,,,,,,,,,,,,,,,,,,,,,,,,CS1_USneg,None,1,,,,,,,,,,,,,,,,,,21,f,165,n,2019_Dec_04_1757,ec_RRR,3.0.4,59.80190530338482,
Vadillo,"Para esta tarea, el personaje clave es Bergmite:","De modo que siempre que veas a Bergmite (su nombre o su imagen) en la pantalla, pulsa la barra espaciadora tan rápido como sea posible. Pulsa la barra espaciadora cuando veas una imagen de Bergmite o la palabra BERGMITE. 

Pulsa la barra espaciadora para comenzar la tarea.",target3,stimuli/t3.jpg,165,24,stimuli/filler8.jpg,filler,False,None,,,,,,,,,,,,,,0,0,0,0,,,,,0,0,0,2,0,23,23,23,,,,,,,,,,,,,,,,,,,,,,,,,,,,,,,,,,,,,,,,,,,,,,,,,,,,,CS1_USneg,None,1,,,,,,,,,,,,,,,,,,21,f,165,n,2019_Dec_04_1757,ec_RRR,3.0.4,59.80190530338482,
Vadillo,"Para esta tarea, el personaje clave es Bergmite:","De modo que siempre que veas a Bergmite (su nombre o su imagen) en la pantalla, pulsa la barra espaciadora tan rápido como sea posible. Pulsa la barra espaciadora cuando veas una imagen de Bergmite o la palabra BERGMITE. 

Pulsa la barra espaciadora para comenzar la tarea.",target3,stimuli/t3.jpg,165,25,stimuli/filler9.jpg,filler,False,None,,,,,,,,,,,,,,0,0,0,0,,,,,0,0,0,2,0,24,24,24,,,,,,,,,,,,,,,,,,,,,,,,,,,,,,,,,,,,,,,,,,,,,,,,,,,,,CS1_USneg,None,1,,,,,,,,,,,,,,,,,,21,f,165,n,2019_Dec_04_1757,ec_RRR,3.0.4,59.80190530338482,
Vadillo,"Para esta tarea, el personaje clave es Bergmite:","De modo que siempre que veas a Bergmite (su nombre o su imagen) en la pantalla, pulsa la barra espaciadora tan rápido como sea posible. Pulsa la barra espaciadora cuando veas una imagen de Bergmite o la palabra BERGMITE. 

Pulsa la barra espaciadora para comenzar la tarea.",target3,stimuli/t3.jpg,165,26,stimuli/target3_4.jpg,target,True,space,,,,,,,,,,,,,,0,0,0,0,,,,,0,0,0,2,0,25,25,25,,,,,,,,,,,,,,,,,,,,,,,,,,,,,,,,,,,,,,,,,,,,,,,,,,,,,CS1_USneg,space,1,0.80368941577035,,,,,,,,,,,,,,,,,21,f,165,n,2019_Dec_04_1757,ec_RRR,3.0.4,59.80190530338482,
Vadillo,"Para esta tarea, el personaje clave es Bergmite:","De modo que siempre que veas a Bergmite (su nombre o su imagen) en la pantalla, pulsa la barra espaciadora tan rápido como sea posible. Pulsa la barra espaciadora cuando veas una imagen de Bergmite o la palabra BERGMITE. 

Pulsa la barra espaciadora para comenzar la tarea.",target3,stimuli/t3.jpg,165,27,stimuli/filler30.jpg,filler,False,None,,,,,,,,,,,,,,0,0,0,0,,,,,0,0,0,2,0,26,26,26,,,,,,,,,,,,,,,,,,,,,,,,,,,,,,,,,,,,,,,,,,,,,,,,,,,,,CS1_USneg,None,1,,,,,,,,,,,,,,,,,,21,f,165,n,2019_Dec_04_1757,ec_RRR,3.0.4,59.80190530338482,
Vadillo,"Para esta tarea, el personaje clave es Bergmite:","De modo que siempre que veas a Bergmite (su nombre o su imagen) en la pantalla, pulsa la barra espaciadora tan rápido como sea posible. Pulsa la barra espaciadora cuando veas una imagen de Bergmite o la palabra BERGMITE. 

Pulsa la barra espaciadora para comenzar la tarea.",target3,stimuli/t3.jpg,165,28,stimuli/filler50.jpg,filler,False,None,,,,,,,,,,,,,,0,0,0,0,,,,,0,0,0,2,0,27,27,27,,,,,,,,,,,,,,,,,,,,,,,,,,,,,,,,,,,,,,,,,,,,,,,,,,,,,CS1_USneg,None,1,,,,,,,,,,,,,,,,,,21,f,165,n,2019_Dec_04_1757,ec_RRR,3.0.4,59.80190530338482,
Vadillo,"Para esta tarea, el personaje clave es Bergmite:","De modo que siempre que veas a Bergmite (su nombre o su imagen) en la pantalla, pulsa la barra espaciadora tan rápido como sea posible. Pulsa la barra espaciadora cuando veas una imagen de Bergmite o la palabra BERGMITE. 

Pulsa la barra espaciadora para comenzar la tarea.",target3,stimuli/t3.jpg,165,29,stimuli/target3_9.jpg,target,True,space,,,,,,,,,,,,,,0,0,0,0,,,,,0,0,0,2,0,28,28,28,,,,,,,,,,,,,,,,,,,,,,,,,,,,,,,,,,,,,,,,,,,,,,,,,,,,,CS1_USneg,space,1,0.8369055606599431,,,,,,,,,,,,,,,,,21,f,165,n,2019_Dec_04_1757,ec_RRR,3.0.4,59.80190530338482,
Vadillo,"Para esta tarea, el personaje clave es Bergmite:","De modo que siempre que veas a Bergmite (su nombre o su imagen) en la pantalla, pulsa la barra espaciadora tan rápido como sea posible. Pulsa la barra espaciadora cuando veas una imagen de Bergmite o la palabra BERGMITE. 

Pulsa la barra espaciadora para comenzar la tarea.",target3,stimuli/t3.jpg,165,30,stimuli/blank.jpg,blank,False,None,,,,,,,,,,,,,,0,0,0,0,,,,,0,0,0,2,0,29,29,29,,,,,,,,,,,,,,,,,,,,,,,,,,,,,,,,,,,,,,,,,,,,,,,,,,,,,CS1_USneg,None,1,,,,,,,,,,,,,,,,,,21,f,165,n,2019_Dec_04_1757,ec_RRR,3.0.4,59.80190530338482,
Vadillo,"Para esta tarea, el personaje clave es Bergmite:","De modo que siempre que veas a Bergmite (su nombre o su imagen) en la pantalla, pulsa la barra espaciadora tan rápido como sea posible. Pulsa la barra espaciadora cuando veas una imagen de Bergmite o la palabra BERGMITE. 

Pulsa la barra espaciadora para comenzar la tarea.",target3,stimuli/t3.jpg,165,31,stimuli/cs1_neg6.jpg,CSUS,False,None,,,,,,,,,,,,,,0,0,0,0,,,,,0,0,0,2,0,30,30,30,,,,,,,,,,,,,,,,,,,,,,,,,,,,,,,,,,,,,,,,,,,,,,,,,,,,,CS1_USneg,None,1,,,,,,,,,,,,,,,,,,21,f,165,n,2019_Dec_04_1757,ec_RRR,3.0.4,59.80190530338482,
Vadillo,"Para esta tarea, el personaje clave es Bergmite:","De modo que siempre que veas a Bergmite (su nombre o su imagen) en la pantalla, pulsa la barra espaciadora tan rápido como sea posible. Pulsa la barra espaciadora cuando veas una imagen de Bergmite o la palabra BERGMITE. 

Pulsa la barra espaciadora para comenzar la tarea.",target3,stimuli/t3.jpg,165,32,stimuli/blank.jpg,blank,False,None,,,,,,,,,,,,,,0,0,0,0,,,,,0,0,0,2,0,31,31,31,,,,,,,,,,,,,,,,,,,,,,,,,,,,,,,,,,,,,,,,,,,,,,,,,,,,,CS1_USneg,None,1,,,,,,,,,,,,,,,,,,21,f,165,n,2019_Dec_04_1757,ec_RRR,3.0.4,59.80190530338482,
Vadillo,"Para esta tarea, el personaje clave es Bergmite:","De modo que siempre que veas a Bergmite (su nombre o su imagen) en la pantalla, pulsa la barra espaciadora tan rápido como sea posible. Pulsa la barra espaciadora cuando veas una imagen de Bergmite o la palabra BERGMITE. 

Pulsa la barra espaciadora para comenzar la tarea.",target3,stimuli/t3.jpg,165,33,stimuli/target3_10.jpg,target,True,space,,,,,,,,,,,,,,0,0,0,0,,,,,0,0,0,2,0,32,32,32,,,,,,,,,,,,,,,,,,,,,,,,,,,,,,,,,,,,,,,,,,,,,,,,,,,,,CS1_USneg,space,1,0.619272998708766,,,,,,,,,,,,,,,,,21,f,165,n,2019_Dec_04_1757,ec_RRR,3.0.4,59.80190530338482,
Vadillo,"Para esta tarea, el personaje clave es Bergmite:","De modo que siempre que veas a Bergmite (su nombre o su imagen) en la pantalla, pulsa la barra espaciadora tan rápido como sea posible. Pulsa la barra espaciadora cuando veas una imagen de Bergmite o la palabra BERGMITE. 

Pulsa la barra espaciadora para comenzar la tarea.",target3,stimuli/t3.jpg,165,34,stimuli/filler51.jpg,filler,False,None,,,,,,,,,,,,,,0,0,0,0,,,,,0,0,0,2,0,33,33,33,,,,,,,,,,,,,,,,,,,,,,,,,,,,,,,,,,,,,,,,,,,,,,,,,,,,,CS1_USneg,None,1,,,,,,,,,,,,,,,,,,21,f,165,n,2019_Dec_04_1757,ec_RRR,3.0.4,59.80190530338482,
Vadillo,"Para esta tarea, el personaje clave es Bergmite:","De modo que siempre que veas a Bergmite (su nombre o su imagen) en la pantalla, pulsa la barra espaciadora tan rápido como sea posible. Pulsa la barra espaciadora cuando veas una imagen de Bergmite o la palabra BERGMITE. 

Pulsa la barra espaciadora para comenzar la tarea.",target3,stimuli/t3.jpg,165,35,stimuli/filler3.jpg,filler,False,None,,,,,,,,,,,,,,0,0,0,0,,,,,0,0,0,2,0,34,34,34,,,,,,,,,,,,,,,,,,,,,,,,,,,,,,,,,,,,,,,,,,,,,,,,,,,,,CS1_USneg,None,1,,,,,,,,,,,,,,,,,,21,f,165,n,2019_Dec_04_1757,ec_RRR,3.0.4,59.80190530338482,
Vadillo,"Para esta tarea, el personaje clave es Bergmite:","De modo que siempre que veas a Bergmite (su nombre o su imagen) en la pantalla, pulsa la barra espaciadora tan rápido como sea posible. Pulsa la barra espaciadora cuando veas una imagen de Bergmite o la palabra BERGMITE. 

Pulsa la barra espaciadora para comenzar la tarea.",target3,stimuli/t3.jpg,165,36,stimuli/filler13.jpg,filler,False,None,,,,,,,,,,,,,,0,0,0,0,,,,,0,0,0,2,0,35,35,35,,,,,,,,,,,,,,,,,,,,,,,,,,,,,,,,,,,,,,,,,,,,,,,,,,,,,CS1_USneg,None,1,,,,,,,,,,,,,,,,,,21,f,165,n,2019_Dec_04_1757,ec_RRR,3.0.4,59.80190530338482,
Vadillo,"Para esta tarea, el personaje clave es Bergmite:","De modo que siempre que veas a Bergmite (su nombre o su imagen) en la pantalla, pulsa la barra espaciadora tan rápido como sea posible. Pulsa la barra espaciadora cuando veas una imagen de Bergmite o la palabra BERGMITE. 

Pulsa la barra espaciadora para comenzar la tarea.",target3,stimuli/t3.jpg,165,37,stimuli/target3_6.jpg,target,True,space,,,,,,,,,,,,,,0,0,0,0,,,,,0,0,0,2,0,36,36,36,,,,,,,,,,,,,,,,,,,,,,,,,,,,,,,,,,,,,,,,,,,,,,,,,,,,,CS1_USneg,None,0,,,,,,,,,,,,,,,,,,21,f,165,n,2019_Dec_04_1757,ec_RRR,3.0.4,59.80190530338482,
Vadillo,"Para esta tarea, el personaje clave es Bergmite:","De modo que siempre que veas a Bergmite (su nombre o su imagen) en la pantalla, pulsa la barra espaciadora tan rápido como sea posible. Pulsa la barra espaciadora cuando veas una imagen de Bergmite o la palabra BERGMITE. 

Pulsa la barra espaciadora para comenzar la tarea.",target3,stimuli/t3.jpg,165,38,stimuli/filler47.jpg,filler,False,None,,,,,,,,,,,,,,0,0,0,0,,,,,0,0,0,2,0,37,37,37,,,,,,,,,,,,,,,,,,,,,,,,,,,,,,,,,,,,,,,,,,,,,,,,,,,,,CS1_USneg,None,1,,,,,,,,,,,,,,,,,,21,f,165,n,2019_Dec_04_1757,ec_RRR,3.0.4,59.80190530338482,
Vadillo,"Para esta tarea, el personaje clave es Bergmite:","De modo que siempre que veas a Bergmite (su nombre o su imagen) en la pantalla, pulsa la barra espaciadora tan rápido como sea posible. Pulsa la barra espaciadora cuando veas una imagen de Bergmite o la palabra BERGMITE. 

Pulsa la barra espaciadora para comenzar la tarea.",target3,stimuli/t3.jpg,165,39,stimuli/filler5.jpg,filler,False,None,,,,,,,,,,,,,,0,0,0,0,,,,,0,0,0,2,0,38,38,38,,,,,,,,,,,,,,,,,,,,,,,,,,,,,,,,,,,,,,,,,,,,,,,,,,,,,CS1_USneg,None,1,,,,,,,,,,,,,,,,,,21,f,165,n,2019_Dec_04_1757,ec_RRR,3.0.4,59.80190530338482,
Vadillo,"Para esta tarea, el personaje clave es Bergmite:","De modo que siempre que veas a Bergmite (su nombre o su imagen) en la pantalla, pulsa la barra espaciadora tan rápido como sea posible. Pulsa la barra espaciadora cuando veas una imagen de Bergmite o la palabra BERGMITE. 

Pulsa la barra espaciadora para comenzar la tarea.",target3,stimuli/t3.jpg,165,40,stimuli/blank.jpg,blank,False,None,,,,,,,,,,,,,,0,0,0,0,,,,,0,0,0,2,0,39,39,39,,,,,,,,,,,,,,,,,,,,,,,,,,,,,,,,,,,,,,,,,,,,,,,,,,,,,CS1_USneg,None,1,,,,,,,,,,,,,,,,,,21,f,165,n,2019_Dec_04_1757,ec_RRR,3.0.4,59.80190530338482,
Vadillo,"Para esta tarea, el personaje clave es Bergmite:","De modo que siempre que veas a Bergmite (su nombre o su imagen) en la pantalla, pulsa la barra espaciadora tan rápido como sea posible. Pulsa la barra espaciadora cuando veas una imagen de Bergmite o la palabra BERGMITE. 

Pulsa la barra espaciadora para comenzar la tarea.",target3,stimuli/t3.jpg,165,41,stimuli/cs2_pos1.jpg,CSUS,False,None,,,,,,,,,,,,,,0,0,0,0,,,,,0,0,0,2,0,40,40,40,,,,,,,,,,,,,,,,,,,,,,,,,,,,,,,,,,,,,,,,,,,,,,,,,,,,,CS1_USneg,None,1,,,,,,,,,,,,,,,,,,21,f,165,n,2019_Dec_04_1757,ec_RRR,3.0.4,59.80190530338482,
Vadillo,"Para esta tarea, el personaje clave es Bergmite:","De modo que siempre que veas a Bergmite (su nombre o su imagen) en la pantalla, pulsa la barra espaciadora tan rápido como sea posible. Pulsa la barra espaciadora cuando veas una imagen de Bergmite o la palabra BERGMITE. 

Pulsa la barra espaciadora para comenzar la tarea.",target3,stimuli/t3.jpg,165,42,stimuli/blank.jpg,blank,False,None,,,,,,,,,,,,,,0,0,0,0,,,,,0,0,0,2,0,41,41,41,,,,,,,,,,,,,,,,,,,,,,,,,,,,,,,,,,,,,,,,,,,,,,,,,,,,,CS1_USneg,None,1,,,,,,,,,,,,,,,,,,21,f,165,n,2019_Dec_04_1757,ec_RRR,3.0.4,59.80190530338482,
Vadillo,"Para esta tarea, el personaje clave es Bergmite:","De modo que siempre que veas a Bergmite (su nombre o su imagen) en la pantalla, pulsa la barra espaciadora tan rápido como sea posible. Pulsa la barra espaciadora cuando veas una imagen de Bergmite o la palabra BERGMITE. 

Pulsa la barra espaciadora para comenzar la tarea.",target3,stimuli/t3.jpg,165,43,stimuli/filler10.jpg,filler,False,None,,,,,,,,,,,,,,0,0,0,0,,,,,0,0,0,2,0,42,42,42,,,,,,,,,,,,,,,,,,,,,,,,,,,,,,,,,,,,,,,,,,,,,,,,,,,,,CS1_USneg,None,1,,,,,,,,,,,,,,,,,,21,f,165,n,2019_Dec_04_1757,ec_RRR,3.0.4,59.80190530338482,
Vadillo,"Para esta tarea, el personaje clave es Bergmite:","De modo que siempre que veas a Bergmite (su nombre o su imagen) en la pantalla, pulsa la barra espaciadora tan rápido como sea posible. Pulsa la barra espaciadora cuando veas una imagen de Bergmite o la palabra BERGMITE. 

Pulsa la barra espaciadora para comenzar la tarea.",target3,stimuli/t3.jpg,165,44,stimuli/filler14.jpg,filler,False,None,,,,,,,,,,,,,,0,0,0,0,,,,,0,0,0,2,0,43,43,43,,,,,,,,,,,,,,,,,,,,,,,,,,,,,,,,,,,,,,,,,,,,,,,,,,,,,CS1_USneg,None,1,,,,,,,,,,,,,,,,,,21,f,165,n,2019_Dec_04_1757,ec_RRR,3.0.4,59.80190530338482,
Vadillo,"Para esta tarea, el personaje clave es Bergmite:","De modo que siempre que veas a Bergmite (su nombre o su imagen) en la pantalla, pulsa la barra espaciadora tan rápido como sea posible. Pulsa la barra espaciadora cuando veas una imagen de Bergmite o la palabra BERGMITE. 

Pulsa la barra espaciadora para comenzar la tarea.",target3,stimuli/t3.jpg,165,45,stimuli/filler34.jpg,filler,False,None,,,,,,,,,,,,,,0,0,0,0,,,,,0,0,0,2,0,44,44,44,,,,,,,,,,,,,,,,,,,,,,,,,,,,,,,,,,,,,,,,,,,,,,,,,,,,,CS1_USneg,None,1,,,,,,,,,,,,,,,,,,21,f,165,n,2019_Dec_04_1757,ec_RRR,3.0.4,59.80190530338482,
Vadillo,"Para esta tarea, el personaje clave es Bergmite:","De modo que siempre que veas a Bergmite (su nombre o su imagen) en la pantalla, pulsa la barra espaciadora tan rápido como sea posible. Pulsa la barra espaciadora cuando veas una imagen de Bergmite o la palabra BERGMITE. 

Pulsa la barra espaciadora para comenzar la tarea.",target3,stimuli/t3.jpg,165,46,stimuli/filler21.jpg,filler,False,None,,,,,,,,,,,,,,0,0,0,0,,,,,0,0,0,2,0,45,45,45,,,,,,,,,,,,,,,,,,,,,,,,,,,,,,,,,,,,,,,,,,,,,,,,,,,,,CS1_USneg,None,1,,,,,,,,,,,,,,,,,,21,f,165,n,2019_Dec_04_1757,ec_RRR,3.0.4,59.80190530338482,
Vadillo,"Para esta tarea, el personaje clave es Bergmite:","De modo que siempre que veas a Bergmite (su nombre o su imagen) en la pantalla, pulsa la barra espaciadora tan rápido como sea posible. Pulsa la barra espaciadora cuando veas una imagen de Bergmite o la palabra BERGMITE. 

Pulsa la barra espaciadora para comenzar la tarea.",target3,stimuli/t3.jpg,165,47,stimuli/filler15.jpg,filler,False,None,,,,,,,,,,,,,,0,0,0,0,,,,,0,0,0,2,0,46,46,46,,,,,,,,,,,,,,,,,,,,,,,,,,,,,,,,,,,,,,,,,,,,,,,,,,,,,CS1_USneg,None,1,,,,,,,,,,,,,,,,,,21,f,165,n,2019_Dec_04_1757,ec_RRR,3.0.4,59.80190530338482,
Vadillo,"Para esta tarea, el personaje clave es Bergmite:","De modo que siempre que veas a Bergmite (su nombre o su imagen) en la pantalla, pulsa la barra espaciadora tan rápido como sea posible. Pulsa la barra espaciadora cuando veas una imagen de Bergmite o la palabra BERGMITE. 

Pulsa la barra espaciadora para comenzar la tarea.",target3,stimuli/t3.jpg,165,48,stimuli/filler37.jpg,filler,False,None,,,,,,,,,,,,,,0,0,0,0,,,,,0,0,0,2,0,47,47,47,,,,,,,,,,,,,,,,,,,,,,,,,,,,,,,,,,,,,,,,,,,,,,,,,,,,,CS1_USneg,None,1,,,,,,,,,,,,,,,,,,21,f,165,n,2019_Dec_04_1757,ec_RRR,3.0.4,59.80190530338482,
Vadillo,"Para esta tarea, el personaje clave es Bergmite:","De modo que siempre que veas a Bergmite (su nombre o su imagen) en la pantalla, pulsa la barra espaciadora tan rápido como sea posible. Pulsa la barra espaciadora cuando veas una imagen de Bergmite o la palabra BERGMITE. 

Pulsa la barra espaciadora para comenzar la tarea.",target3,stimuli/t3.jpg,165,49,stimuli/filler19.jpg,filler,False,None,,,,,,,,,,,,,,0,0,0,0,,,,,0,0,0,2,0,48,48,48,,,,,,,,,,,,,,,,,,,,,,,,,,,,,,,,,,,,,,,,,,,,,,,,,,,,,CS1_USneg,None,1,,,,,,,,,,,,,,,,,,21,f,165,n,2019_Dec_04_1757,ec_RRR,3.0.4,59.80190530338482,
Vadillo,"Para esta tarea, el personaje clave es Bergmite:","De modo que siempre que veas a Bergmite (su nombre o su imagen) en la pantalla, pulsa la barra espaciadora tan rápido como sea posible. Pulsa la barra espaciadora cuando veas una imagen de Bergmite o la palabra BERGMITE. 

Pulsa la barra espaciadora para comenzar la tarea.",target3,stimuli/t3.jpg,165,50,stimuli/blank.jpg,blank,False,None,,,,,,,,,,,,,,0,0,0,0,,,,,0,0,0,2,0,49,49,49,,,,,,,,,,,,,,,,,,,,,,,,,,,,,,,,,,,,,,,,,,,,,,,,,,,,,CS1_USneg,None,1,,,,,,,,,,,,,,,,,,21,f,165,n,2019_Dec_04_1757,ec_RRR,3.0.4,59.80190530338482,
Vadillo,"Para esta tarea, el personaje clave es Bergmite:","De modo que siempre que veas a Bergmite (su nombre o su imagen) en la pantalla, pulsa la barra espaciadora tan rápido como sea posible. Pulsa la barra espaciadora cuando veas una imagen de Bergmite o la palabra BERGMITE. 

Pulsa la barra espaciadora para comenzar la tarea.",target3,stimuli/t3.jpg,165,51,stimuli/cs1_neg11.jpg,CSUS,False,None,,,,,,,,,,,,,,0,0,0,0,,,,,0,0,0,2,0,50,50,50,,,,,,,,,,,,,,,,,,,,,,,,,,,,,,,,,,,,,,,,,,,,,,,,,,,,,CS1_USneg,None,1,,,,,,,,,,,,,,,,,,21,f,165,n,2019_Dec_04_1757,ec_RRR,3.0.4,59.80190530338482,
Vadillo,"Para esta tarea, el personaje clave es Bergmite:","De modo que siempre que veas a Bergmite (su nombre o su imagen) en la pantalla, pulsa la barra espaciadora tan rápido como sea posible. Pulsa la barra espaciadora cuando veas una imagen de Bergmite o la palabra BERGMITE. 

Pulsa la barra espaciadora para comenzar la tarea.",target3,stimuli/t3.jpg,165,52,stimuli/blank.jpg,blank,False,None,,,,,,,,,,,,,,0,0,0,0,,,,,0,0,0,2,0,51,51,51,,,,,,,,,,,,,,,,,,,,,,,,,,,,,,,,,,,,,,,,,,,,,,,,,,,,,CS1_USneg,None,1,,,,,,,,,,,,,,,,,,21,f,165,n,2019_Dec_04_1757,ec_RRR,3.0.4,59.80190530338482,
Vadillo,"Para esta tarea, el personaje clave es Bergmite:","De modo que siempre que veas a Bergmite (su nombre o su imagen) en la pantalla, pulsa la barra espaciadora tan rápido como sea posible. Pulsa la barra espaciadora cuando veas una imagen de Bergmite o la palabra BERGMITE. 

Pulsa la barra espaciadora para comenzar la tarea.",target3,stimuli/t3.jpg,165,53,stimuli/target3_5.jpg,target,True,space,,,,,,,,,,,,,,0,0,0,0,,,,,0,0,0,2,0,52,52,52,,,,,,,,,,,,,,,,,,,,,,,,,,,,,,,,,,,,,,,,,,,,,,,,,,,,,CS1_USneg,space,1,0.5853821172495373,,,,,,,,,,,,,,,,,21,f,165,n,2019_Dec_04_1757,ec_RRR,3.0.4,59.80190530338482,
Vadillo,"Para esta tarea, el personaje clave es Bergmite:","De modo que siempre que veas a Bergmite (su nombre o su imagen) en la pantalla, pulsa la barra espaciadora tan rápido como sea posible. Pulsa la barra espaciadora cuando veas una imagen de Bergmite o la palabra BERGMITE. 

Pulsa la barra espaciadora para comenzar la tarea.",target3,stimuli/t3.jpg,165,54,stimuli/filler29.jpg,filler,False,None,,,,,,,,,,,,,,0,0,0,0,,,,,0,0,0,2,0,53,53,53,,,,,,,,,,,,,,,,,,,,,,,,,,,,,,,,,,,,,,,,,,,,,,,,,,,,,CS1_USneg,None,1,,,,,,,,,,,,,,,,,,21,f,165,n,2019_Dec_04_1757,ec_RRR,3.0.4,59.80190530338482,
Vadillo,"Para esta tarea, el personaje clave es Bergmite:","De modo que siempre que veas a Bergmite (su nombre o su imagen) en la pantalla, pulsa la barra espaciadora tan rápido como sea posible. Pulsa la barra espaciadora cuando veas una imagen de Bergmite o la palabra BERGMITE. 

Pulsa la barra espaciadora para comenzar la tarea.",target3,stimuli/t3.jpg,165,55,stimuli/filler40.jpg,filler,False,None,,,,,,,,,,,,,,0,0,0,0,,,,,0,0,0,2,0,54,54,54,,,,,,,,,,,,,,,,,,,,,,,,,,,,,,,,,,,,,,,,,,,,,,,,,,,,,CS1_USneg,None,1,,,,,,,,,,,,,,,,,,21,f,165,n,2019_Dec_04_1757,ec_RRR,3.0.4,59.80190530338482,
Vadillo,"Para esta tarea, el personaje clave es Bergmite:","De modo que siempre que veas a Bergmite (su nombre o su imagen) en la pantalla, pulsa la barra espaciadora tan rápido como sea posible. Pulsa la barra espaciadora cuando veas una imagen de Bergmite o la palabra BERGMITE. 

Pulsa la barra espaciadora para comenzar la tarea.",target3,stimuli/t3.jpg,165,56,stimuli/filler39.jpg,filler,False,None,,,,,,,,,,,,,,0,0,0,0,,,,,0,0,0,2,0,55,55,55,,,,,,,,,,,,,,,,,,,,,,,,,,,,,,,,,,,,,,,,,,,,,,,,,,,,,CS1_USneg,None,1,,,,,,,,,,,,,,,,,,21,f,165,n,2019_Dec_04_1757,ec_RRR,3.0.4,59.80190530338482,
Vadillo,"Para esta tarea, el personaje clave es Bergmite:","De modo que siempre que veas a Bergmite (su nombre o su imagen) en la pantalla, pulsa la barra espaciadora tan rápido como sea posible. Pulsa la barra espaciadora cuando veas una imagen de Bergmite o la palabra BERGMITE. 

Pulsa la barra espaciadora para comenzar la tarea.",target3,stimuli/t3.jpg,165,57,stimuli/target3_8.jpg,target,True,space,,,,,,,,,,,,,,0,0,0,0,,,,,0,0,0,2,0,56,56,56,,,,,,,,,,,,,,,,,,,,,,,,,,,,,,,,,,,,,,,,,,,,,,,,,,,,,CS1_USneg,space,1,0.5352526259666774,,,,,,,,,,,,,,,,,21,f,165,n,2019_Dec_04_1757,ec_RRR,3.0.4,59.80190530338482,
Vadillo,"Para esta tarea, el personaje clave es Bergmite:","De modo que siempre que veas a Bergmite (su nombre o su imagen) en la pantalla, pulsa la barra espaciadora tan rápido como sea posible. Pulsa la barra espaciadora cuando veas una imagen de Bergmite o la palabra BERGMITE. 

Pulsa la barra espaciadora para comenzar la tarea.",target3,stimuli/t3.jpg,165,58,stimuli/filler52.jpg,filler,False,None,,,,,,,,,,,,,,0,0,0,0,,,,,0,0,0,2,0,57,57,57,,,,,,,,,,,,,,,,,,,,,,,,,,,,,,,,,,,,,,,,,,,,,,,,,,,,,CS1_USneg,None,1,,,,,,,,,,,,,,,,,,21,f,165,n,2019_Dec_04_1757,ec_RRR,3.0.4,59.80190530338482,
Vadillo,"Para esta tarea, el personaje clave es Bergmite:","De modo que siempre que veas a Bergmite (su nombre o su imagen) en la pantalla, pulsa la barra espaciadora tan rápido como sea posible. Pulsa la barra espaciadora cuando veas una imagen de Bergmite o la palabra BERGMITE. 

Pulsa la barra espaciadora para comenzar la tarea.",target3,stimuli/t3.jpg,165,59,stimuli/filler27.jpg,filler,False,None,,,,,,,,,,,,,,0,0,0,0,,,,,0,0,0,2,0,58,58,58,,,,,,,,,,,,,,,,,,,,,,,,,,,,,,,,,,,,,,,,,,,,,,,,,,,,,CS1_USneg,None,1,,,,,,,,,,,,,,,,,,21,f,165,n,2019_Dec_04_1757,ec_RRR,3.0.4,59.80190530338482,
Vadillo,"Para esta tarea, el personaje clave es Bergmite:","De modo que siempre que veas a Bergmite (su nombre o su imagen) en la pantalla, pulsa la barra espaciadora tan rápido como sea posible. Pulsa la barra espaciadora cuando veas una imagen de Bergmite o la palabra BERGMITE. 

Pulsa la barra espaciadora para comenzar la tarea.",target3,stimuli/t3.jpg,165,60,stimuli/blank.jpg,blank,False,None,,,,,,,,,,,,,,0,0,0,0,,,,,0,0,0,2,0,59,59,59,,,,,,,,,,,,,,,,,,,,,,,,,,,,,,,,,,,,,,,,,,,,,,,,,,,,,CS1_USneg,None,1,,,,,,,,,,,,,,,,,,21,f,165,n,2019_Dec_04_1757,ec_RRR,3.0.4,59.80190530338482,
Vadillo,"Para esta tarea, el personaje clave es Bergmite:","De modo que siempre que veas a Bergmite (su nombre o su imagen) en la pantalla, pulsa la barra espaciadora tan rápido como sea posible. Pulsa la barra espaciadora cuando veas una imagen de Bergmite o la palabra BERGMITE. 

Pulsa la barra espaciadora para comenzar la tarea.",target3,stimuli/t3.jpg,165,61,stimuli/cs2_pos15.jpg,CSUS,False,None,,,,,,,,,,,,,,0,0,0,0,,,,,0,0,0,2,0,60,60,60,,,,,,,,,,,,,,,,,,,,,,,,,,,,,,,,,,,,,,,,,,,,,,,,,,,,,CS1_USneg,None,1,,,,,,,,,,,,,,,,,,21,f,165,n,2019_Dec_04_1757,ec_RRR,3.0.4,59.80190530338482,
Vadillo,"Para esta tarea, el personaje clave es Bergmite:","De modo que siempre que veas a Bergmite (su nombre o su imagen) en la pantalla, pulsa la barra espaciadora tan rápido como sea posible. Pulsa la barra espaciadora cuando veas una imagen de Bergmite o la palabra BERGMITE. 

Pulsa la barra espaciadora para comenzar la tarea.",target3,stimuli/t3.jpg,165,62,stimuli/blank.jpg,blank,False,None,,,,,,,,,,,,,,0,0,0,0,,,,,0,0,0,2,0,61,61,61,,,,,,,,,,,,,,,,,,,,,,,,,,,,,,,,,,,,,,,,,,,,,,,,,,,,,CS1_USneg,None,1,,,,,,,,,,,,,,,,,,21,f,165,n,2019_Dec_04_1757,ec_RRR,3.0.4,59.80190530338482,
Vadillo,"Para esta tarea, el personaje clave es Bergmite:","De modo que siempre que veas a Bergmite (su nombre o su imagen) en la pantalla, pulsa la barra espaciadora tan rápido como sea posible. Pulsa la barra espaciadora cuando veas una imagen de Bergmite o la palabra BERGMITE. 

Pulsa la barra espaciadora para comenzar la tarea.",target3,stimuli/t3.jpg,165,63,stimuli/filler25.jpg,filler,False,None,,,,,,,,,,,,,,0,0,0,0,,,,,0,0,0,2,0,62,62,62,,,,,,,,,,,,,,,,,,,,,,,,,,,,,,,,,,,,,,,,,,,,,,,,,,,,,CS1_USneg,None,1,,,,,,,,,,,,,,,,,,21,f,165,n,2019_Dec_04_1757,ec_RRR,3.0.4,59.80190530338482,
Vadillo,"Para esta tarea, el personaje clave es Bergmite:","De modo que siempre que veas a Bergmite (su nombre o su imagen) en la pantalla, pulsa la barra espaciadora tan rápido como sea posible. Pulsa la barra espaciadora cuando veas una imagen de Bergmite o la palabra BERGMITE. 

Pulsa la barra espaciadora para comenzar la tarea.",target3,stimuli/t3.jpg,165,64,stimuli/filler49.jpg,filler,False,None,,,,,,,,,,,,,,0,0,0,0,,,,,0,0,0,2,0,63,63,63,,,,,,,,,,,,,,,,,,,,,,,,,,,,,,,,,,,,,,,,,,,,,,,,,,,,,CS1_USneg,None,1,,,,,,,,,,,,,,,,,,21,f,165,n,2019_Dec_04_1757,ec_RRR,3.0.4,59.80190530338482,
Vadillo,"Para esta tarea, el personaje clave es Bergmite:","De modo que siempre que veas a Bergmite (su nombre o su imagen) en la pantalla, pulsa la barra espaciadora tan rápido como sea posible. Pulsa la barra espaciadora cuando veas una imagen de Bergmite o la palabra BERGMITE. 

Pulsa la barra espaciadora para comenzar la tarea.",target3,stimuli/t3.jpg,165,65,stimuli/target3_2.jpg,target,True,space,,,,,,,,,,,,,,0,0,0,0,,,,,0,0,0,2,0,64,64,64,,,,,,,,,,,,,,,,,,,,,,,,,,,,,,,,,,,,,,,,,,,,,,,,,,,,,CS1_USneg,space,1,0.45211465915781446,,,,,,,,,,,,,,,,,21,f,165,n,2019_Dec_04_1757,ec_RRR,3.0.4,59.80190530338482,
Vadillo,"Para esta tarea, el personaje clave es Bergmite:","De modo que siempre que veas a Bergmite (su nombre o su imagen) en la pantalla, pulsa la barra espaciadora tan rápido como sea posible. Pulsa la barra espaciadora cuando veas una imagen de Bergmite o la palabra BERGMITE. 

Pulsa la barra espaciadora para comenzar la tarea.",target3,stimuli/t3.jpg,165,66,stimuli/filler1.jpg,filler,False,None,,,,,,,,,,,,,,0,0,0,0,,,,,0,0,0,2,0,65,65,65,,,,,,,,,,,,,,,,,,,,,,,,,,,,,,,,,,,,,,,,,,,,,,,,,,,,,CS1_USneg,None,1,,,,,,,,,,,,,,,,,,21,f,165,n,2019_Dec_04_1757,ec_RRR,3.0.4,59.80190530338482,
Vadillo,"Para esta tarea, el personaje clave es Bergmite:","De modo que siempre que veas a Bergmite (su nombre o su imagen) en la pantalla, pulsa la barra espaciadora tan rápido como sea posible. Pulsa la barra espaciadora cuando veas una imagen de Bergmite o la palabra BERGMITE. 

Pulsa la barra espaciadora para comenzar la tarea.",target3,stimuli/t3.jpg,165,67,stimuli/filler46.jpg,filler,False,None,,,,,,,,,,,,,,0,0,0,0,,,,,0,0,0,2,0,66,66,66,,,,,,,,,,,,,,,,,,,,,,,,,,,,,,,,,,,,,,,,,,,,,,,,,,,,,CS1_USneg,None,1,,,,,,,,,,,,,,,,,,21,f,165,n,2019_Dec_04_1757,ec_RRR,3.0.4,59.80190530338482,
Vadillo,"Para esta tarea, el personaje clave es Bergmite:","De modo que siempre que veas a Bergmite (su nombre o su imagen) en la pantalla, pulsa la barra espaciadora tan rápido como sea posible. Pulsa la barra espaciadora cuando veas una imagen de Bergmite o la palabra BERGMITE. 

Pulsa la barra espaciadora para comenzar la tarea.",target3,stimuli/t3.jpg,165,68,stimuli/filler28.jpg,filler,False,None,,,,,,,,,,,,,,0,0,0,0,,,,,0,0,0,2,0,67,67,67,,,,,,,,,,,,,,,,,,,,,,,,,,,,,,,,,,,,,,,,,,,,,,,,,,,,,CS1_USneg,None,1,,,,,,,,,,,,,,,,,,21,f,165,n,2019_Dec_04_1757,ec_RRR,3.0.4,59.80190530338482,
Vadillo,"Para esta tarea, el personaje clave es Bergmite:","De modo que siempre que veas a Bergmite (su nombre o su imagen) en la pantalla, pulsa la barra espaciadora tan rápido como sea posible. Pulsa la barra espaciadora cuando veas una imagen de Bergmite o la palabra BERGMITE. 

Pulsa la barra espaciadora para comenzar la tarea.",target3,stimuli/t3.jpg,165,69,stimuli/filler20.jpg,filler,False,None,,,,,,,,,,,,,,0,0,0,0,,,,,0,0,0,2,0,68,68,68,,,,,,,,,,,,,,,,,,,,,,,,,,,,,,,,,,,,,,,,,,,,,,,,,,,,,CS1_USneg,None,1,,,,,,,,,,,,,,,,,,21,f,165,n,2019_Dec_04_1757,ec_RRR,3.0.4,59.80190530338482,
Vadillo,"Para esta tarea, el personaje clave es Bergmite:","De modo que siempre que veas a Bergmite (su nombre o su imagen) en la pantalla, pulsa la barra espaciadora tan rápido como sea posible. Pulsa la barra espaciadora cuando veas una imagen de Bergmite o la palabra BERGMITE. 

Pulsa la barra espaciadora para comenzar la tarea.",target3,stimuli/t3.jpg,165,70,stimuli/blank.jpg,blank,False,None,,,,,,,,,,,,,,0,0,0,0,,,,,0,0,0,2,0,69,69,69,,,,,,,,,,,,,,,,,,,,,,,,,,,,,,,,,,,,,,,,,,,,,,,,,,,,,CS1_USneg,None,1,,,,,,,,,,,,,,,,,,21,f,165,n,2019_Dec_04_1757,ec_RRR,3.0.4,59.80190530338482,
Vadillo,"Para esta tarea, el personaje clave es Bergmite:","De modo que siempre que veas a Bergmite (su nombre o su imagen) en la pantalla, pulsa la barra espaciadora tan rápido como sea posible. Pulsa la barra espaciadora cuando veas una imagen de Bergmite o la palabra BERGMITE. 

Pulsa la barra espaciadora para comenzar la tarea.",target3,stimuli/t3.jpg,165,71,stimuli/cs1_neg17.jpg,CSUS,False,None,,,,,,,,,,,,,,0,0,0,0,,,,,0,0,0,2,0,70,70,70,,,,,,,,,,,,,,,,,,,,,,,,,,,,,,,,,,,,,,,,,,,,,,,,,,,,,CS1_USneg,None,1,,,,,,,,,,,,,,,,,,21,f,165,n,2019_Dec_04_1757,ec_RRR,3.0.4,59.80190530338482,
Vadillo,"Para esta tarea, el personaje clave es Bergmite:","De modo que siempre que veas a Bergmite (su nombre o su imagen) en la pantalla, pulsa la barra espaciadora tan rápido como sea posible. Pulsa la barra espaciadora cuando veas una imagen de Bergmite o la palabra BERGMITE. 

Pulsa la barra espaciadora para comenzar la tarea.",target3,stimuli/t3.jpg,165,72,stimuli/blank.jpg,blank,False,None,,,,,,,,,,,,,,0,0,0,0,,,,,0,0,0,2,0,71,71,71,,,,,,,,,,,,,,,,,,,,,,,,,,,,,,,,,,,,,,,,,,,,,,,,,,,,,CS1_USneg,None,1,,,,,,,,,,,,,,,,,,21,f,165,n,2019_Dec_04_1757,ec_RRR,3.0.4,59.80190530338482,
Vadillo,"Para esta tarea, el personaje clave es Bergmite:","De modo que siempre que veas a Bergmite (su nombre o su imagen) en la pantalla, pulsa la barra espaciadora tan rápido como sea posible. Pulsa la barra espaciadora cuando veas una imagen de Bergmite o la palabra BERGMITE. 

Pulsa la barra espaciadora para comenzar la tarea.",target3,stimuli/t3.jpg,165,73,stimuli/filler38.jpg,filler,False,None,,,,,,,,,,,,,,0,0,0,0,,,,,0,0,0,2,0,72,72,72,,,,,,,,,,,,,,,,,,,,,,,,,,,,,,,,,,,,,,,,,,,,,,,,,,,,,CS1_USneg,None,1,,,,,,,,,,,,,,,,,,21,f,165,n,2019_Dec_04_1757,ec_RRR,3.0.4,59.80190530338482,
Vadillo,"Para esta tarea, el personaje clave es Bergmite:","De modo que siempre que veas a Bergmite (su nombre o su imagen) en la pantalla, pulsa la barra espaciadora tan rápido como sea posible. Pulsa la barra espaciadora cuando veas una imagen de Bergmite o la palabra BERGMITE. 

Pulsa la barra espaciadora para comenzar la tarea.",target3,stimuli/t3.jpg,165,74,stimuli/filler12.jpg,filler,False,None,,,,,,,,,,,,,,0,0,0,0,,,,,0,0,0,2,0,73,73,73,,,,,,,,,,,,,,,,,,,,,,,,,,,,,,,,,,,,,,,,,,,,,,,,,,,,,CS1_USneg,None,1,,,,,,,,,,,,,,,,,,21,f,165,n,2019_Dec_04_1757,ec_RRR,3.0.4,59.80190530338482,
Vadillo,"Para esta tarea, el personaje clave es Bergmite:","De modo que siempre que veas a Bergmite (su nombre o su imagen) en la pantalla, pulsa la barra espaciadora tan rápido como sea posible. Pulsa la barra espaciadora cuando veas una imagen de Bergmite o la palabra BERGMITE. 

Pulsa la barra espaciadora para comenzar la tarea.",target3,stimuli/t3.jpg,165,75,stimuli/filler17.jpg,filler,False,None,,,,,,,,,,,,,,0,0,0,0,,,,,0,0,0,2,0,74,74,74,,,,,,,,,,,,,,,,,,,,,,,,,,,,,,,,,,,,,,,,,,,,,,,,,,,,,CS1_USneg,None,1,,,,,,,,,,,,,,,,,,21,f,165,n,2019_Dec_04_1757,ec_RRR,3.0.4,59.80190530338482,
Vadillo,"Para esta tarea, el personaje clave es Bergmite:","De modo que siempre que veas a Bergmite (su nombre o su imagen) en la pantalla, pulsa la barra espaciadora tan rápido como sea posible. Pulsa la barra espaciadora cuando veas una imagen de Bergmite o la palabra BERGMITE. 

Pulsa la barra espaciadora para comenzar la tarea.",target3,stimuli/t3.jpg,165,76,stimuli/filler7.jpg,filler,False,None,,,,,,,,,,,,,,0,0,0,0,,,,,0,0,0,2,0,75,75,75,,,,,,,,,,,,,,,,,,,,,,,,,,,,,,,,,,,,,,,,,,,,,,,,,,,,,CS1_USneg,None,1,,,,,,,,,,,,,,,,,,21,f,165,n,2019_Dec_04_1757,ec_RRR,3.0.4,59.80190530338482,
Vadillo,"Para esta tarea, el personaje clave es Bergmite:","De modo que siempre que veas a Bergmite (su nombre o su imagen) en la pantalla, pulsa la barra espaciadora tan rápido como sea posible. Pulsa la barra espaciadora cuando veas una imagen de Bergmite o la palabra BERGMITE. 

Pulsa la barra espaciadora para comenzar la tarea.",target3,stimuli/t3.jpg,165,77,stimuli/filler18.jpg,filler,False,None,,,,,,,,,,,,,,0,0,0,0,,,,,0,0,0,2,0,76,76,76,,,,,,,,,,,,,,,,,,,,,,,,,,,,,,,,,,,,,,,,,,,,,,,,,,,,,CS1_USneg,None,1,,,,,,,,,,,,,,,,,,21,f,165,n,2019_Dec_04_1757,ec_RRR,3.0.4,59.80190530338482,
Vadillo,"Para esta tarea, el personaje clave es Bergmite:","De modo que siempre que veas a Bergmite (su nombre o su imagen) en la pantalla, pulsa la barra espaciadora tan rápido como sea posible. Pulsa la barra espaciadora cuando veas una imagen de Bergmite o la palabra BERGMITE. 

Pulsa la barra espaciadora para comenzar la tarea.",target3,stimuli/t3.jpg,165,78,stimuli/filler36.jpg,filler,False,None,,,,,,,,,,,,,,0,0,0,0,,,,,0,0,0,2,0,77,77,77,,,,,,,,,,,,,,,,,,,,,,,,,,,,,,,,,,,,,,,,,,,,,,,,,,,,,CS1_USneg,None,1,,,,,,,,,,,,,,,,,,21,f,165,n,2019_Dec_04_1757,ec_RRR,3.0.4,59.80190530338482,
Vadillo,"Para esta tarea, el personaje clave es Bergmite:","De modo que siempre que veas a Bergmite (su nombre o su imagen) en la pantalla, pulsa la barra espaciadora tan rápido como sea posible. Pulsa la barra espaciadora cuando veas una imagen de Bergmite o la palabra BERGMITE. 

Pulsa la barra espaciadora para comenzar la tarea.",target3,stimuli/t3.jpg,165,79,stimuli/filler16.jpg,filler,False,None,,,,,,,,,,,,,,0,0,0,0,,,,,0,0,0,2,0,78,78,78,,,,,,,,,,,,,,,,,,,,,,,,,,,,,,,,,,,,,,,,,,,,,,,,,,,,,CS1_USneg,None,1,,,,,,,,,,,,,,,,,,21,f,165,n,2019_Dec_04_1757,ec_RRR,3.0.4,59.80190530338482,
Vadillo,"Para esta tarea, el personaje clave es Bergmite:","De modo que siempre que veas a Bergmite (su nombre o su imagen) en la pantalla, pulsa la barra espaciadora tan rápido como sea posible. Pulsa la barra espaciadora cuando veas una imagen de Bergmite o la palabra BERGMITE. 

Pulsa la barra espaciadora para comenzar la tarea.",target3,stimuli/t3.jpg,165,80,stimuli/blank.jpg,blank,False,None,,,,,,,,,,,,,,0,0,0,0,,,,,0,0,0,2,0,79,79,79,,,,,,,,,,,,,,,,,,,,,,,,,,,,,,,,,,,,,,,,,,,,,,,,,,,,,CS1_USneg,None,1,,,,,,,,,,,,,,,,,,21,f,165,n,2019_Dec_04_1757,ec_RRR,3.0.4,59.80190530338482,
Vadillo,"Para esta tarea, el personaje clave es Bergmite:","De modo que siempre que veas a Bergmite (su nombre o su imagen) en la pantalla, pulsa la barra espaciadora tan rápido como sea posible. Pulsa la barra espaciadora cuando veas una imagen de Bergmite o la palabra BERGMITE. 

Pulsa la barra espaciadora para comenzar la tarea.",target3,stimuli/t3.jpg,165,81,stimuli/cs2_pos9.jpg,CSUS,False,None,,,,,,,,,,,,,,0,0,0,0,,,,,0,0,0,2,0,80,80,80,,,,,,,,,,,,,,,,,,,,,,,,,,,,,,,,,,,,,,,,,,,,,,,,,,,,,CS1_USneg,None,1,,,,,,,,,,,,,,,,,,21,f,165,n,2019_Dec_04_1757,ec_RRR,3.0.4,59.80190530338482,
Vadillo,"Para esta tarea, el personaje clave es Bergmite:","De modo que siempre que veas a Bergmite (su nombre o su imagen) en la pantalla, pulsa la barra espaciadora tan rápido como sea posible. Pulsa la barra espaciadora cuando veas una imagen de Bergmite o la palabra BERGMITE. 

Pulsa la barra espaciadora para comenzar la tarea.",target3,stimuli/t3.jpg,165,82,stimuli/blank.jpg,blank,False,None,,,,,,,,,,,,,,0,0,0,0,,,,,0,0,0,2,0,81,81,81,,,,,,,,,,,,,,,,,,,,,,,,,,,,,,,,,,,,,,,,,,,,,,,,,,,,,CS1_USneg,None,1,,,,,,,,,,,,,,,,,,21,f,165,n,2019_Dec_04_1757,ec_RRR,3.0.4,59.80190530338482,
Vadillo,"Para esta tarea, el personaje clave es Bergmite:","De modo que siempre que veas a Bergmite (su nombre o su imagen) en la pantalla, pulsa la barra espaciadora tan rápido como sea posible. Pulsa la barra espaciadora cuando veas una imagen de Bergmite o la palabra BERGMITE. 

Pulsa la barra espaciadora para comenzar la tarea.",target3,stimuli/t3.jpg,165,83,stimuli/filler44.jpg,filler,False,None,,,,,,,,,,,,,,0,0,0,0,,,,,0,0,0,2,0,82,82,82,,,,,,,,,,,,,,,,,,,,,,,,,,,,,,,,,,,,,,,,,,,,,,,,,,,,,CS1_USneg,None,1,,,,,,,,,,,,,,,,,,21,f,165,n,2019_Dec_04_1757,ec_RRR,3.0.4,59.80190530338482,
Vadillo,"Para esta tarea, el personaje clave es Bergmite:","De modo que siempre que veas a Bergmite (su nombre o su imagen) en la pantalla, pulsa la barra espaciadora tan rápido como sea posible. Pulsa la barra espaciadora cuando veas una imagen de Bergmite o la palabra BERGMITE. 

Pulsa la barra espaciadora para comenzar la tarea.",target3,stimuli/t3.jpg,165,84,stimuli/filler42.jpg,filler,False,None,,,,,,,,,,,,,,0,0,0,0,,,,,0,0,0,2,0,83,83,83,,,,,,,,,,,,,,,,,,,,,,,,,,,,,,,,,,,,,,,,,,,,,,,,,,,,,CS1_USneg,None,1,,,,,,,,,,,,,,,,,,21,f,165,n,2019_Dec_04_1757,ec_RRR,3.0.4,59.80190530338482,
Vadillo,"Para esta tarea, el personaje clave es Bergmite:","De modo que siempre que veas a Bergmite (su nombre o su imagen) en la pantalla, pulsa la barra espaciadora tan rápido como sea posible. Pulsa la barra espaciadora cuando veas una imagen de Bergmite o la palabra BERGMITE. 

Pulsa la barra espaciadora para comenzar la tarea.",target3,stimuli/t3.jpg,165,85,stimuli/filler35.jpg,filler,False,None,,,,,,,,,,,,,,0,0,0,0,,,,,0,0,0,2,0,84,84,84,,,,,,,,,,,,,,,,,,,,,,,,,,,,,,,,,,,,,,,,,,,,,,,,,,,,,CS1_USneg,None,1,,,,,,,,,,,,,,,,,,21,f,165,n,2019_Dec_04_1757,ec_RRR,3.0.4,59.80190530338482,
Vadillo,"Para esta tarea, el personaje clave es Bergmite:","De modo que siempre que veas a Bergmite (su nombre o su imagen) en la pantalla, pulsa la barra espaciadora tan rápido como sea posible. Pulsa la barra espaciadora cuando veas una imagen de Bergmite o la palabra BERGMITE. 

Pulsa la barra espaciadora para comenzar la tarea.",target3,stimuli/t3.jpg,165,86,stimuli/filler41.jpg,filler,False,None,,,,,,,,,,,,,,0,0,0,0,,,,,0,0,0,2,0,85,85,85,,,,,,,,,,,,,,,,,,,,,,,,,,,,,,,,,,,,,,,,,,,,,,,,,,,,,CS1_USneg,None,1,,,,,,,,,,,,,,,,,,21,f,165,n,2019_Dec_04_1757,ec_RRR,3.0.4,59.80190530338482,
Vadillo,"Para esta tarea, el personaje clave es Magearna:","De modo que siempre que veas a Magearna (su nombre o su imagen) en la pantalla, pulsa la barra espaciadora tan rápido como sea posible. Pulsa la barra espaciadora cuando veas una imagen de Magearna o la palabra MAGEARNA. 

Pulsa la barra espaciadora para comenzar la tarea.",target1,stimuli/t1.jpg,165,1,stimuli/filler37.jpg,filler,False,None,,,,,,,,,,,,,,0,0,0,0,,,,,0,1,1,0,0,0,0,0,,,,,,,,,,,,,,,,,,,,,,,,,,,,,,,,,,,,,,,,,,,,,,,,,,,,,CS1_USneg,None,1,,,,,,,,,,,,,,,,,,21,f,165,n,2019_Dec_04_1757,ec_RRR,3.0.4,59.80190530338482,
Vadillo,"Para esta tarea, el personaje clave es Magearna:","De modo que siempre que veas a Magearna (su nombre o su imagen) en la pantalla, pulsa la barra espaciadora tan rápido como sea posible. Pulsa la barra espaciadora cuando veas una imagen de Magearna o la palabra MAGEARNA. 

Pulsa la barra espaciadora para comenzar la tarea.",target1,stimuli/t1.jpg,165,2,stimuli/filler25.jpg,filler,False,None,,,,,,,,,,,,,,0,0,0,0,,,,,0,1,1,0,0,1,1,1,,,,,,,,,,,,,,,,,,,,,,,,,,,,,,,,,,,,,,,,,,,,,,,,,,,,,CS1_USneg,None,1,,,,,,,,,,,,,,,,,,21,f,165,n,2019_Dec_04_1757,ec_RRR,3.0.4,59.80190530338482,
Vadillo,"Para esta tarea, el personaje clave es Magearna:","De modo que siempre que veas a Magearna (su nombre o su imagen) en la pantalla, pulsa la barra espaciadora tan rápido como sea posible. Pulsa la barra espaciadora cuando veas una imagen de Magearna o la palabra MAGEARNA. 

Pulsa la barra espaciadora para comenzar la tarea.",target1,stimuli/t1.jpg,165,3,stimuli/filler19.jpg,filler,False,None,,,,,,,,,,,,,,0,0,0,0,,,,,0,1,1,0,0,2,2,2,,,,,,,,,,,,,,,,,,,,,,,,,,,,,,,,,,,,,,,,,,,,,,,,,,,,,CS1_USneg,None,1,,,,,,,,,,,,,,,,,,21,f,165,n,2019_Dec_04_1757,ec_RRR,3.0.4,59.80190530338482,
Vadillo,"Para esta tarea, el personaje clave es Magearna:","De modo que siempre que veas a Magearna (su nombre o su imagen) en la pantalla, pulsa la barra espaciadora tan rápido como sea posible. Pulsa la barra espaciadora cuando veas una imagen de Magearna o la palabra MAGEARNA. 

Pulsa la barra espaciadora para comenzar la tarea.",target1,stimuli/t1.jpg,165,4,stimuli/filler42.jpg,filler,False,None,,,,,,,,,,,,,,0,0,0,0,,,,,0,1,1,0,0,3,3,3,,,,,,,,,,,,,,,,,,,,,,,,,,,,,,,,,,,,,,,,,,,,,,,,,,,,,CS1_USneg,None,1,,,,,,,,,,,,,,,,,,21,f,165,n,2019_Dec_04_1757,ec_RRR,3.0.4,59.80190530338482,
Vadillo,"Para esta tarea, el personaje clave es Magearna:","De modo que siempre que veas a Magearna (su nombre o su imagen) en la pantalla, pulsa la barra espaciadora tan rápido como sea posible. Pulsa la barra espaciadora cuando veas una imagen de Magearna o la palabra MAGEARNA. 

Pulsa la barra espaciadora para comenzar la tarea.",target1,stimuli/t1.jpg,165,5,stimuli/filler9.jpg,filler,False,None,,,,,,,,,,,,,,0,0,0,0,,,,,0,1,1,0,0,4,4,4,,,,,,,,,,,,,,,,,,,,,,,,,,,,,,,,,,,,,,,,,,,,,,,,,,,,,CS1_USneg,None,1,,,,,,,,,,,,,,,,,,21,f,165,n,2019_Dec_04_1757,ec_RRR,3.0.4,59.80190530338482,
Vadillo,"Para esta tarea, el personaje clave es Magearna:","De modo que siempre que veas a Magearna (su nombre o su imagen) en la pantalla, pulsa la barra espaciadora tan rápido como sea posible. Pulsa la barra espaciadora cuando veas una imagen de Magearna o la palabra MAGEARNA. 

Pulsa la barra espaciadora para comenzar la tarea.",target1,stimuli/t1.jpg,165,6,stimuli/filler12.jpg,filler,False,None,,,,,,,,,,,,,,0,0,0,0,,,,,0,1,1,0,0,5,5,5,,,,,,,,,,,,,,,,,,,,,,,,,,,,,,,,,,,,,,,,,,,,,,,,,,,,,CS1_USneg,None,1,,,,,,,,,,,,,,,,,,21,f,165,n,2019_Dec_04_1757,ec_RRR,3.0.4,59.80190530338482,
Vadillo,"Para esta tarea, el personaje clave es Magearna:","De modo que siempre que veas a Magearna (su nombre o su imagen) en la pantalla, pulsa la barra espaciadora tan rápido como sea posible. Pulsa la barra espaciadora cuando veas una imagen de Magearna o la palabra MAGEARNA. 

Pulsa la barra espaciadora para comenzar la tarea.",target1,stimuli/t1.jpg,165,7,stimuli/filler6.jpg,filler,False,None,,,,,,,,,,,,,,0,0,0,0,,,,,0,1,1,0,0,6,6,6,,,,,,,,,,,,,,,,,,,,,,,,,,,,,,,,,,,,,,,,,,,,,,,,,,,,,CS1_USneg,None,1,,,,,,,,,,,,,,,,,,21,f,165,n,2019_Dec_04_1757,ec_RRR,3.0.4,59.80190530338482,
Vadillo,"Para esta tarea, el personaje clave es Magearna:","De modo que siempre que veas a Magearna (su nombre o su imagen) en la pantalla, pulsa la barra espaciadora tan rápido como sea posible. Pulsa la barra espaciadora cuando veas una imagen de Magearna o la palabra MAGEARNA. 

Pulsa la barra espaciadora para comenzar la tarea.",target1,stimuli/t1.jpg,165,8,stimuli/target1_10.jpg,target,True,space,,,,,,,,,,,,,,0,0,0,0,,,,,0,1,1,0,0,7,7,7,,,,,,,,,,,,,,,,,,,,,,,,,,,,,,,,,,,,,,,,,,,,,,,,,,,,,CS1_USneg,space,1,0.7178222961956635,,,,,,,,,,,,,,,,,21,f,165,n,2019_Dec_04_1757,ec_RRR,3.0.4,59.80190530338482,
Vadillo,"Para esta tarea, el personaje clave es Magearna:","De modo que siempre que veas a Magearna (su nombre o su imagen) en la pantalla, pulsa la barra espaciadora tan rápido como sea posible. Pulsa la barra espaciadora cuando veas una imagen de Magearna o la palabra MAGEARNA. 

Pulsa la barra espaciadora para comenzar la tarea.",target1,stimuli/t1.jpg,165,9,stimuli/filler46.jpg,filler,False,None,,,,,,,,,,,,,,0,0,0,0,,,,,0,1,1,0,0,8,8,8,,,,,,,,,,,,,,,,,,,,,,,,,,,,,,,,,,,,,,,,,,,,,,,,,,,,,CS1_USneg,None,1,,,,,,,,,,,,,,,,,,21,f,165,n,2019_Dec_04_1757,ec_RRR,3.0.4,59.80190530338482,
Vadillo,"Para esta tarea, el personaje clave es Magearna:","De modo que siempre que veas a Magearna (su nombre o su imagen) en la pantalla, pulsa la barra espaciadora tan rápido como sea posible. Pulsa la barra espaciadora cuando veas una imagen de Magearna o la palabra MAGEARNA. 

Pulsa la barra espaciadora para comenzar la tarea.",target1,stimuli/t1.jpg,165,10,stimuli/blank.jpg,blank,False,None,,,,,,,,,,,,,,0,0,0,0,,,,,0,1,1,0,0,9,9,9,,,,,,,,,,,,,,,,,,,,,,,,,,,,,,,,,,,,,,,,,,,,,,,,,,,,,CS1_USneg,None,1,,,,,,,,,,,,,,,,,,21,f,165,n,2019_Dec_04_1757,ec_RRR,3.0.4,59.80190530338482,
Vadillo,"Para esta tarea, el personaje clave es Magearna:","De modo que siempre que veas a Magearna (su nombre o su imagen) en la pantalla, pulsa la barra espaciadora tan rápido como sea posible. Pulsa la barra espaciadora cuando veas una imagen de Magearna o la palabra MAGEARNA. 

Pulsa la barra espaciadora para comenzar la tarea.",target1,stimuli/t1.jpg,165,11,stimuli/cs1_neg8.jpg,CSUS,False,None,,,,,,,,,,,,,,0,0,0,0,,,,,0,1,1,0,0,10,10,10,,,,,,,,,,,,,,,,,,,,,,,,,,,,,,,,,,,,,,,,,,,,,,,,,,,,,CS1_USneg,None,1,,,,,,,,,,,,,,,,,,21,f,165,n,2019_Dec_04_1757,ec_RRR,3.0.4,59.80190530338482,
Vadillo,"Para esta tarea, el personaje clave es Magearna:","De modo que siempre que veas a Magearna (su nombre o su imagen) en la pantalla, pulsa la barra espaciadora tan rápido como sea posible. Pulsa la barra espaciadora cuando veas una imagen de Magearna o la palabra MAGEARNA. 

Pulsa la barra espaciadora para comenzar la tarea.",target1,stimuli/t1.jpg,165,12,stimuli/blank.jpg,blank,False,None,,,,,,,,,,,,,,0,0,0,0,,,,,0,1,1,0,0,11,11,11,,,,,,,,,,,,,,,,,,,,,,,,,,,,,,,,,,,,,,,,,,,,,,,,,,,,,CS1_USneg,None,1,,,,,,,,,,,,,,,,,,21,f,165,n,2019_Dec_04_1757,ec_RRR,3.0.4,59.80190530338482,
Vadillo,"Para esta tarea, el personaje clave es Magearna:","De modo que siempre que veas a Magearna (su nombre o su imagen) en la pantalla, pulsa la barra espaciadora tan rápido como sea posible. Pulsa la barra espaciadora cuando veas una imagen de Magearna o la palabra MAGEARNA. 

Pulsa la barra espaciadora para comenzar la tarea.",target1,stimuli/t1.jpg,165,13,stimuli/filler20.jpg,filler,False,None,,,,,,,,,,,,,,0,0,0,0,,,,,0,1,1,0,0,12,12,12,,,,,,,,,,,,,,,,,,,,,,,,,,,,,,,,,,,,,,,,,,,,,,,,,,,,,CS1_USneg,None,1,,,,,,,,,,,,,,,,,,21,f,165,n,2019_Dec_04_1757,ec_RRR,3.0.4,59.80190530338482,
Vadillo,"Para esta tarea, el personaje clave es Magearna:","De modo que siempre que veas a Magearna (su nombre o su imagen) en la pantalla, pulsa la barra espaciadora tan rápido como sea posible. Pulsa la barra espaciadora cuando veas una imagen de Magearna o la palabra MAGEARNA. 

Pulsa la barra espaciadora para comenzar la tarea.",target1,stimuli/t1.jpg,165,14,stimuli/target1_4.jpg,target,True,space,,,,,,,,,,,,,,0,0,0,0,,,,,0,1,1,0,0,13,13,13,,,,,,,,,,,,,,,,,,,,,,,,,,,,,,,,,,,,,,,,,,,,,,,,,,,,,CS1_USneg,space,1,0.7186446668056305,,,,,,,,,,,,,,,,,21,f,165,n,2019_Dec_04_1757,ec_RRR,3.0.4,59.80190530338482,
Vadillo,"Para esta tarea, el personaje clave es Magearna:","De modo que siempre que veas a Magearna (su nombre o su imagen) en la pantalla, pulsa la barra espaciadora tan rápido como sea posible. Pulsa la barra espaciadora cuando veas una imagen de Magearna o la palabra MAGEARNA. 

Pulsa la barra espaciadora para comenzar la tarea.",target1,stimuli/t1.jpg,165,15,stimuli/target1_2.jpg,target,True,space,,,,,,,,,,,,,,0,0,0,0,,,,,0,1,1,0,0,14,14,14,,,,,,,,,,,,,,,,,,,,,,,,,,,,,,,,,,,,,,,,,,,,,,,,,,,,,CS1_USneg,space,1,0.6844872134388424,,,,,,,,,,,,,,,,,21,f,165,n,2019_Dec_04_1757,ec_RRR,3.0.4,59.80190530338482,
Vadillo,"Para esta tarea, el personaje clave es Magearna:","De modo que siempre que veas a Magearna (su nombre o su imagen) en la pantalla, pulsa la barra espaciadora tan rápido como sea posible. Pulsa la barra espaciadora cuando veas una imagen de Magearna o la palabra MAGEARNA. 

Pulsa la barra espaciadora para comenzar la tarea.",target1,stimuli/t1.jpg,165,16,stimuli/filler49.jpg,filler,False,None,,,,,,,,,,,,,,0,0,0,0,,,,,0,1,1,0,0,15,15,15,,,,,,,,,,,,,,,,,,,,,,,,,,,,,,,,,,,,,,,,,,,,,,,,,,,,,CS1_USneg,None,1,,,,,,,,,,,,,,,,,,21,f,165,n,2019_Dec_04_1757,ec_RRR,3.0.4,59.80190530338482,
Vadillo,"Para esta tarea, el personaje clave es Magearna:","De modo que siempre que veas a Magearna (su nombre o su imagen) en la pantalla, pulsa la barra espaciadora tan rápido como sea posible. Pulsa la barra espaciadora cuando veas una imagen de Magearna o la palabra MAGEARNA. 

Pulsa la barra espaciadora para comenzar la tarea.",target1,stimuli/t1.jpg,165,17,stimuli/filler40.jpg,filler,False,None,,,,,,,,,,,,,,0,0,0,0,,,,,0,1,1,0,0,16,16,16,,,,,,,,,,,,,,,,,,,,,,,,,,,,,,,,,,,,,,,,,,,,,,,,,,,,,CS1_USneg,None,1,,,,,,,,,,,,,,,,,,21,f,165,n,2019_Dec_04_1757,ec_RRR,3.0.4,59.80190530338482,
Vadillo,"Para esta tarea, el personaje clave es Magearna:","De modo que siempre que veas a Magearna (su nombre o su imagen) en la pantalla, pulsa la barra espaciadora tan rápido como sea posible. Pulsa la barra espaciadora cuando veas una imagen de Magearna o la palabra MAGEARNA. 

Pulsa la barra espaciadora para comenzar la tarea.",target1,stimuli/t1.jpg,165,18,stimuli/target1_3.jpg,target,True,space,,,,,,,,,,,,,,0,0,0,0,,,,,0,1,1,0,0,17,17,17,,,,,,,,,,,,,,,,,,,,,,,,,,,,,,,,,,,,,,,,,,,,,,,,,,,,,CS1_USneg,space,1,0.5514919909473974,,,,,,,,,,,,,,,,,21,f,165,n,2019_Dec_04_1757,ec_RRR,3.0.4,59.80190530338482,
Vadillo,"Para esta tarea, el personaje clave es Magearna:","De modo que siempre que veas a Magearna (su nombre o su imagen) en la pantalla, pulsa la barra espaciadora tan rápido como sea posible. Pulsa la barra espaciadora cuando veas una imagen de Magearna o la palabra MAGEARNA. 

Pulsa la barra espaciadora para comenzar la tarea.",target1,stimuli/t1.jpg,165,19,stimuli/filler2.jpg,filler,False,None,,,,,,,,,,,,,,0,0,0,0,,,,,0,1,1,0,0,18,18,18,,,,,,,,,,,,,,,,,,,,,,,,,,,,,,,,,,,,,,,,,,,,,,,,,,,,,CS1_USneg,None,1,,,,,,,,,,,,,,,,,,21,f,165,n,2019_Dec_04_1757,ec_RRR,3.0.4,59.80190530338482,
Vadillo,"Para esta tarea, el personaje clave es Magearna:","De modo que siempre que veas a Magearna (su nombre o su imagen) en la pantalla, pulsa la barra espaciadora tan rápido como sea posible. Pulsa la barra espaciadora cuando veas una imagen de Magearna o la palabra MAGEARNA. 

Pulsa la barra espaciadora para comenzar la tarea.",target1,stimuli/t1.jpg,165,20,stimuli/blank.jpg,blank,False,None,,,,,,,,,,,,,,0,0,0,0,,,,,0,1,1,0,0,19,19,19,,,,,,,,,,,,,,,,,,,,,,,,,,,,,,,,,,,,,,,,,,,,,,,,,,,,,CS1_USneg,None,1,,,,,,,,,,,,,,,,,,21,f,165,n,2019_Dec_04_1757,ec_RRR,3.0.4,59.80190530338482,
Vadillo,"Para esta tarea, el personaje clave es Magearna:","De modo que siempre que veas a Magearna (su nombre o su imagen) en la pantalla, pulsa la barra espaciadora tan rápido como sea posible. Pulsa la barra espaciadora cuando veas una imagen de Magearna o la palabra MAGEARNA. 

Pulsa la barra espaciadora para comenzar la tarea.",target1,stimuli/t1.jpg,165,21,stimuli/cs2_pos10.jpg,CSUS,False,None,,,,,,,,,,,,,,0,0,0,0,,,,,0,1,1,0,0,20,20,20,,,,,,,,,,,,,,,,,,,,,,,,,,,,,,,,,,,,,,,,,,,,,,,,,,,,,CS1_USneg,None,1,,,,,,,,,,,,,,,,,,21,f,165,n,2019_Dec_04_1757,ec_RRR,3.0.4,59.80190530338482,
Vadillo,"Para esta tarea, el personaje clave es Magearna:","De modo que siempre que veas a Magearna (su nombre o su imagen) en la pantalla, pulsa la barra espaciadora tan rápido como sea posible. Pulsa la barra espaciadora cuando veas una imagen de Magearna o la palabra MAGEARNA. 

Pulsa la barra espaciadora para comenzar la tarea.",target1,stimuli/t1.jpg,165,22,stimuli/blank.jpg,blank,False,None,,,,,,,,,,,,,,0,0,0,0,,,,,0,1,1,0,0,21,21,21,,,,,,,,,,,,,,,,,,,,,,,,,,,,,,,,,,,,,,,,,,,,,,,,,,,,,CS1_USneg,None,1,,,,,,,,,,,,,,,,,,21,f,165,n,2019_Dec_04_1757,ec_RRR,3.0.4,59.80190530338482,
Vadillo,"Para esta tarea, el personaje clave es Magearna:","De modo que siempre que veas a Magearna (su nombre o su imagen) en la pantalla, pulsa la barra espaciadora tan rápido como sea posible. Pulsa la barra espaciadora cuando veas una imagen de Magearna o la palabra MAGEARNA. 

Pulsa la barra espaciadora para comenzar la tarea.",target1,stimuli/t1.jpg,165,23,stimuli/filler18.jpg,filler,False,None,,,,,,,,,,,,,,0,0,0,0,,,,,0,1,1,0,0,22,22,22,,,,,,,,,,,,,,,,,,,,,,,,,,,,,,,,,,,,,,,,,,,,,,,,,,,,,CS1_USneg,None,1,,,,,,,,,,,,,,,,,,21,f,165,n,2019_Dec_04_1757,ec_RRR,3.0.4,59.80190530338482,
Vadillo,"Para esta tarea, el personaje clave es Magearna:","De modo que siempre que veas a Magearna (su nombre o su imagen) en la pantalla, pulsa la barra espaciadora tan rápido como sea posible. Pulsa la barra espaciadora cuando veas una imagen de Magearna o la palabra MAGEARNA. 

Pulsa la barra espaciadora para comenzar la tarea.",target1,stimuli/t1.jpg,165,24,stimuli/filler26.jpg,filler,False,None,,,,,,,,,,,,,,0,0,0,0,,,,,0,1,1,0,0,23,23,23,,,,,,,,,,,,,,,,,,,,,,,,,,,,,,,,,,,,,,,,,,,,,,,,,,,,,CS1_USneg,None,1,,,,,,,,,,,,,,,,,,21,f,165,n,2019_Dec_04_1757,ec_RRR,3.0.4,59.80190530338482,
Vadillo,"Para esta tarea, el personaje clave es Magearna:","De modo que siempre que veas a Magearna (su nombre o su imagen) en la pantalla, pulsa la barra espaciadora tan rápido como sea posible. Pulsa la barra espaciadora cuando veas una imagen de Magearna o la palabra MAGEARNA. 

Pulsa la barra espaciadora para comenzar la tarea.",target1,stimuli/t1.jpg,165,25,stimuli/filler10.jpg,filler,False,None,,,,,,,,,,,,,,0,0,0,0,,,,,0,1,1,0,0,24,24,24,,,,,,,,,,,,,,,,,,,,,,,,,,,,,,,,,,,,,,,,,,,,,,,,,,,,,CS1_USneg,None,1,,,,,,,,,,,,,,,,,,21,f,165,n,2019_Dec_04_1757,ec_RRR,3.0.4,59.80190530338482,
Vadillo,"Para esta tarea, el personaje clave es Magearna:","De modo que siempre que veas a Magearna (su nombre o su imagen) en la pantalla, pulsa la barra espaciadora tan rápido como sea posible. Pulsa la barra espaciadora cuando veas una imagen de Magearna o la palabra MAGEARNA. 

Pulsa la barra espaciadora para comenzar la tarea.",target1,stimuli/t1.jpg,165,26,stimuli/target1_7.jpg,target,True,space,,,,,,,,,,,,,,0,0,0,0,,,,,0,1,1,0,0,25,25,25,,,,,,,,,,,,,,,,,,,,,,,,,,,,,,,,,,,,,,,,,,,,,,,,,,,,,CS1_USneg,space,1,0.5999431363597978,,,,,,,,,,,,,,,,,21,f,165,n,2019_Dec_04_1757,ec_RRR,3.0.4,59.80190530338482,
Vadillo,"Para esta tarea, el personaje clave es Magearna:","De modo que siempre que veas a Magearna (su nombre o su imagen) en la pantalla, pulsa la barra espaciadora tan rápido como sea posible. Pulsa la barra espaciadora cuando veas una imagen de Magearna o la palabra MAGEARNA. 

Pulsa la barra espaciadora para comenzar la tarea.",target1,stimuli/t1.jpg,165,27,stimuli/filler28.jpg,filler,False,None,,,,,,,,,,,,,,0,0,0,0,,,,,0,1,1,0,0,26,26,26,,,,,,,,,,,,,,,,,,,,,,,,,,,,,,,,,,,,,,,,,,,,,,,,,,,,,CS1_USneg,None,1,,,,,,,,,,,,,,,,,,21,f,165,n,2019_Dec_04_1757,ec_RRR,3.0.4,59.80190530338482,
Vadillo,"Para esta tarea, el personaje clave es Magearna:","De modo que siempre que veas a Magearna (su nombre o su imagen) en la pantalla, pulsa la barra espaciadora tan rápido como sea posible. Pulsa la barra espaciadora cuando veas una imagen de Magearna o la palabra MAGEARNA. 

Pulsa la barra espaciadora para comenzar la tarea.",target1,stimuli/t1.jpg,165,28,stimuli/filler38.jpg,filler,False,None,,,,,,,,,,,,,,0,0,0,0,,,,,0,1,1,0,0,27,27,27,,,,,,,,,,,,,,,,,,,,,,,,,,,,,,,,,,,,,,,,,,,,,,,,,,,,,CS1_USneg,None,1,,,,,,,,,,,,,,,,,,21,f,165,n,2019_Dec_04_1757,ec_RRR,3.0.4,59.80190530338482,
Vadillo,"Para esta tarea, el personaje clave es Magearna:","De modo que siempre que veas a Magearna (su nombre o su imagen) en la pantalla, pulsa la barra espaciadora tan rápido como sea posible. Pulsa la barra espaciadora cuando veas una imagen de Magearna o la palabra MAGEARNA. 

Pulsa la barra espaciadora para comenzar la tarea.",target1,stimuli/t1.jpg,165,29,stimuli/filler33.jpg,filler,False,None,,,,,,,,,,,,,,0,0,0,0,,,,,0,1,1,0,0,28,28,28,,,,,,,,,,,,,,,,,,,,,,,,,,,,,,,,,,,,,,,,,,,,,,,,,,,,,CS1_USneg,None,1,,,,,,,,,,,,,,,,,,21,f,165,n,2019_Dec_04_1757,ec_RRR,3.0.4,59.80190530338482,
Vadillo,"Para esta tarea, el personaje clave es Magearna:","De modo que siempre que veas a Magearna (su nombre o su imagen) en la pantalla, pulsa la barra espaciadora tan rápido como sea posible. Pulsa la barra espaciadora cuando veas una imagen de Magearna o la palabra MAGEARNA. 

Pulsa la barra espaciadora para comenzar la tarea.",target1,stimuli/t1.jpg,165,30,stimuli/blank.jpg,blank,False,None,,,,,,,,,,,,,,0,0,0,0,,,,,0,1,1,0,0,29,29,29,,,,,,,,,,,,,,,,,,,,,,,,,,,,,,,,,,,,,,,,,,,,,,,,,,,,,CS1_USneg,None,1,,,,,,,,,,,,,,,,,,21,f,165,n,2019_Dec_04_1757,ec_RRR,3.0.4,59.80190530338482,
Vadillo,"Para esta tarea, el personaje clave es Magearna:","De modo que siempre que veas a Magearna (su nombre o su imagen) en la pantalla, pulsa la barra espaciadora tan rápido como sea posible. Pulsa la barra espaciadora cuando veas una imagen de Magearna o la palabra MAGEARNA. 

Pulsa la barra espaciadora para comenzar la tarea.",target1,stimuli/t1.jpg,165,31,stimuli/cs1_neg16.jpg,CSUS,False,None,,,,,,,,,,,,,,0,0,0,0,,,,,0,1,1,0,0,30,30,30,,,,,,,,,,,,,,,,,,,,,,,,,,,,,,,,,,,,,,,,,,,,,,,,,,,,,CS1_USneg,None,1,,,,,,,,,,,,,,,,,,21,f,165,n,2019_Dec_04_1757,ec_RRR,3.0.4,59.80190530338482,
Vadillo,"Para esta tarea, el personaje clave es Magearna:","De modo que siempre que veas a Magearna (su nombre o su imagen) en la pantalla, pulsa la barra espaciadora tan rápido como sea posible. Pulsa la barra espaciadora cuando veas una imagen de Magearna o la palabra MAGEARNA. 

Pulsa la barra espaciadora para comenzar la tarea.",target1,stimuli/t1.jpg,165,32,stimuli/blank.jpg,blank,False,None,,,,,,,,,,,,,,0,0,0,0,,,,,0,1,1,0,0,31,31,31,,,,,,,,,,,,,,,,,,,,,,,,,,,,,,,,,,,,,,,,,,,,,,,,,,,,,CS1_USneg,None,1,,,,,,,,,,,,,,,,,,21,f,165,n,2019_Dec_04_1757,ec_RRR,3.0.4,59.80190530338482,
Vadillo,"Para esta tarea, el personaje clave es Magearna:","De modo que siempre que veas a Magearna (su nombre o su imagen) en la pantalla, pulsa la barra espaciadora tan rápido como sea posible. Pulsa la barra espaciadora cuando veas una imagen de Magearna o la palabra MAGEARNA. 

Pulsa la barra espaciadora para comenzar la tarea.",target1,stimuli/t1.jpg,165,33,stimuli/filler1.jpg,filler,False,None,,,,,,,,,,,,,,0,0,0,0,,,,,0,1,1,0,0,32,32,32,,,,,,,,,,,,,,,,,,,,,,,,,,,,,,,,,,,,,,,,,,,,,,,,,,,,,CS1_USneg,None,1,,,,,,,,,,,,,,,,,,21,f,165,n,2019_Dec_04_1757,ec_RRR,3.0.4,59.80190530338482,
Vadillo,"Para esta tarea, el personaje clave es Magearna:","De modo que siempre que veas a Magearna (su nombre o su imagen) en la pantalla, pulsa la barra espaciadora tan rápido como sea posible. Pulsa la barra espaciadora cuando veas una imagen de Magearna o la palabra MAGEARNA. 

Pulsa la barra espaciadora para comenzar la tarea.",target1,stimuli/t1.jpg,165,34,stimuli/filler21.jpg,filler,False,None,,,,,,,,,,,,,,0,0,0,0,,,,,0,1,1,0,0,33,33,33,,,,,,,,,,,,,,,,,,,,,,,,,,,,,,,,,,,,,,,,,,,,,,,,,,,,,CS1_USneg,None,1,,,,,,,,,,,,,,,,,,21,f,165,n,2019_Dec_04_1757,ec_RRR,3.0.4,59.80190530338482,
Vadillo,"Para esta tarea, el personaje clave es Magearna:","De modo que siempre que veas a Magearna (su nombre o su imagen) en la pantalla, pulsa la barra espaciadora tan rápido como sea posible. Pulsa la barra espaciadora cuando veas una imagen de Magearna o la palabra MAGEARNA. 

Pulsa la barra espaciadora para comenzar la tarea.",target1,stimuli/t1.jpg,165,35,stimuli/filler30.jpg,filler,False,None,,,,,,,,,,,,,,0,0,0,0,,,,,0,1,1,0,0,34,34,34,,,,,,,,,,,,,,,,,,,,,,,,,,,,,,,,,,,,,,,,,,,,,,,,,,,,,CS1_USneg,None,1,,,,,,,,,,,,,,,,,,21,f,165,n,2019_Dec_04_1757,ec_RRR,3.0.4,59.80190530338482,
Vadillo,"Para esta tarea, el personaje clave es Magearna:","De modo que siempre que veas a Magearna (su nombre o su imagen) en la pantalla, pulsa la barra espaciadora tan rápido como sea posible. Pulsa la barra espaciadora cuando veas una imagen de Magearna o la palabra MAGEARNA. 

Pulsa la barra espaciadora para comenzar la tarea.",target1,stimuli/t1.jpg,165,36,stimuli/filler27.jpg,filler,False,None,,,,,,,,,,,,,,0,0,0,0,,,,,0,1,1,0,0,35,35,35,,,,,,,,,,,,,,,,,,,,,,,,,,,,,,,,,,,,,,,,,,,,,,,,,,,,,CS1_USneg,None,1,,,,,,,,,,,,,,,,,,21,f,165,n,2019_Dec_04_1757,ec_RRR,3.0.4,59.80190530338482,
Vadillo,"Para esta tarea, el personaje clave es Magearna:","De modo que siempre que veas a Magearna (su nombre o su imagen) en la pantalla, pulsa la barra espaciadora tan rápido como sea posible. Pulsa la barra espaciadora cuando veas una imagen de Magearna o la palabra MAGEARNA. 

Pulsa la barra espaciadora para comenzar la tarea.",target1,stimuli/t1.jpg,165,37,stimuli/filler17.jpg,filler,False,None,,,,,,,,,,,,,,0,0,0,0,,,,,0,1,1,0,0,36,36,36,,,,,,,,,,,,,,,,,,,,,,,,,,,,,,,,,,,,,,,,,,,,,,,,,,,,,CS1_USneg,None,1,,,,,,,,,,,,,,,,,,21,f,165,n,2019_Dec_04_1757,ec_RRR,3.0.4,59.80190530338482,
Vadillo,"Para esta tarea, el personaje clave es Magearna:","De modo que siempre que veas a Magearna (su nombre o su imagen) en la pantalla, pulsa la barra espaciadora tan rápido como sea posible. Pulsa la barra espaciadora cuando veas una imagen de Magearna o la palabra MAGEARNA. 

Pulsa la barra espaciadora para comenzar la tarea.",target1,stimuli/t1.jpg,165,38,stimuli/filler47.jpg,filler,False,None,,,,,,,,,,,,,,0,0,0,0,,,,,0,1,1,0,0,37,37,37,,,,,,,,,,,,,,,,,,,,,,,,,,,,,,,,,,,,,,,,,,,,,,,,,,,,,CS1_USneg,None,1,,,,,,,,,,,,,,,,,,21,f,165,n,2019_Dec_04_1757,ec_RRR,3.0.4,59.80190530338482,
Vadillo,"Para esta tarea, el personaje clave es Magearna:","De modo que siempre que veas a Magearna (su nombre o su imagen) en la pantalla, pulsa la barra espaciadora tan rápido como sea posible. Pulsa la barra espaciadora cuando veas una imagen de Magearna o la palabra MAGEARNA. 

Pulsa la barra espaciadora para comenzar la tarea.",target1,stimuli/t1.jpg,165,39,stimuli/filler36.jpg,filler,False,None,,,,,,,,,,,,,,0,0,0,0,,,,,0,1,1,0,0,38,38,38,,,,,,,,,,,,,,,,,,,,,,,,,,,,,,,,,,,,,,,,,,,,,,,,,,,,,CS1_USneg,None,1,,,,,,,,,,,,,,,,,,21,f,165,n,2019_Dec_04_1757,ec_RRR,3.0.4,59.80190530338482,
Vadillo,"Para esta tarea, el personaje clave es Magearna:","De modo que siempre que veas a Magearna (su nombre o su imagen) en la pantalla, pulsa la barra espaciadora tan rápido como sea posible. Pulsa la barra espaciadora cuando veas una imagen de Magearna o la palabra MAGEARNA. 

Pulsa la barra espaciadora para comenzar la tarea.",target1,stimuli/t1.jpg,165,40,stimuli/blank.jpg,blank,False,None,,,,,,,,,,,,,,0,0,0,0,,,,,0,1,1,0,0,39,39,39,,,,,,,,,,,,,,,,,,,,,,,,,,,,,,,,,,,,,,,,,,,,,,,,,,,,,CS1_USneg,None,1,,,,,,,,,,,,,,,,,,21,f,165,n,2019_Dec_04_1757,ec_RRR,3.0.4,59.80190530338482,
Vadillo,"Para esta tarea, el personaje clave es Magearna:","De modo que siempre que veas a Magearna (su nombre o su imagen) en la pantalla, pulsa la barra espaciadora tan rápido como sea posible. Pulsa la barra espaciadora cuando veas una imagen de Magearna o la palabra MAGEARNA. 

Pulsa la barra espaciadora para comenzar la tarea.",target1,stimuli/t1.jpg,165,41,stimuli/cs2_pos3.jpg,CSUS,False,None,,,,,,,,,,,,,,0,0,0,0,,,,,0,1,1,0,0,40,40,40,,,,,,,,,,,,,,,,,,,,,,,,,,,,,,,,,,,,,,,,,,,,,,,,,,,,,CS1_USneg,None,1,,,,,,,,,,,,,,,,,,21,f,165,n,2019_Dec_04_1757,ec_RRR,3.0.4,59.80190530338482,
Vadillo,"Para esta tarea, el personaje clave es Magearna:","De modo que siempre que veas a Magearna (su nombre o su imagen) en la pantalla, pulsa la barra espaciadora tan rápido como sea posible. Pulsa la barra espaciadora cuando veas una imagen de Magearna o la palabra MAGEARNA. 

Pulsa la barra espaciadora para comenzar la tarea.",target1,stimuli/t1.jpg,165,42,stimuli/blank.jpg,blank,False,None,,,,,,,,,,,,,,0,0,0,0,,,,,0,1,1,0,0,41,41,41,,,,,,,,,,,,,,,,,,,,,,,,,,,,,,,,,,,,,,,,,,,,,,,,,,,,,CS1_USneg,None,1,,,,,,,,,,,,,,,,,,21,f,165,n,2019_Dec_04_1757,ec_RRR,3.0.4,59.80190530338482,
Vadillo,"Para esta tarea, el personaje clave es Magearna:","De modo que siempre que veas a Magearna (su nombre o su imagen) en la pantalla, pulsa la barra espaciadora tan rápido como sea posible. Pulsa la barra espaciadora cuando veas una imagen de Magearna o la palabra MAGEARNA. 

Pulsa la barra espaciadora para comenzar la tarea.",target1,stimuli/t1.jpg,165,43,stimuli/filler43.jpg,filler,False,None,,,,,,,,,,,,,,0,0,0,0,,,,,0,1,1,0,0,42,42,42,,,,,,,,,,,,,,,,,,,,,,,,,,,,,,,,,,,,,,,,,,,,,,,,,,,,,CS1_USneg,None,1,,,,,,,,,,,,,,,,,,21,f,165,n,2019_Dec_04_1757,ec_RRR,3.0.4,59.80190530338482,
Vadillo,"Para esta tarea, el personaje clave es Magearna:","De modo que siempre que veas a Magearna (su nombre o su imagen) en la pantalla, pulsa la barra espaciadora tan rápido como sea posible. Pulsa la barra espaciadora cuando veas una imagen de Magearna o la palabra MAGEARNA. 

Pulsa la barra espaciadora para comenzar la tarea.",target1,stimuli/t1.jpg,165,44,stimuli/filler4.jpg,filler,False,None,,,,,,,,,,,,,,0,0,0,0,,,,,0,1,1,0,0,43,43,43,,,,,,,,,,,,,,,,,,,,,,,,,,,,,,,,,,,,,,,,,,,,,,,,,,,,,CS1_USneg,None,1,,,,,,,,,,,,,,,,,,21,f,165,n,2019_Dec_04_1757,ec_RRR,3.0.4,59.80190530338482,
Vadillo,"Para esta tarea, el personaje clave es Magearna:","De modo que siempre que veas a Magearna (su nombre o su imagen) en la pantalla, pulsa la barra espaciadora tan rápido como sea posible. Pulsa la barra espaciadora cuando veas una imagen de Magearna o la palabra MAGEARNA. 

Pulsa la barra espaciadora para comenzar la tarea.",target1,stimuli/t1.jpg,165,45,stimuli/filler5.jpg,filler,False,None,,,,,,,,,,,,,,0,0,0,0,,,,,0,1,1,0,0,44,44,44,,,,,,,,,,,,,,,,,,,,,,,,,,,,,,,,,,,,,,,,,,,,,,,,,,,,,CS1_USneg,None,1,,,,,,,,,,,,,,,,,,21,f,165,n,2019_Dec_04_1757,ec_RRR,3.0.4,59.80190530338482,
Vadillo,"Para esta tarea, el personaje clave es Magearna:","De modo que siempre que veas a Magearna (su nombre o su imagen) en la pantalla, pulsa la barra espaciadora tan rápido como sea posible. Pulsa la barra espaciadora cuando veas una imagen de Magearna o la palabra MAGEARNA. 

Pulsa la barra espaciadora para comenzar la tarea.",target1,stimuli/t1.jpg,165,46,stimuli/filler51.jpg,filler,False,None,,,,,,,,,,,,,,0,0,0,0,,,,,0,1,1,0,0,45,45,45,,,,,,,,,,,,,,,,,,,,,,,,,,,,,,,,,,,,,,,,,,,,,,,,,,,,,CS1_USneg,None,1,,,,,,,,,,,,,,,,,,21,f,165,n,2019_Dec_04_1757,ec_RRR,3.0.4,59.80190530338482,
Vadillo,"Para esta tarea, el personaje clave es Magearna:","De modo que siempre que veas a Magearna (su nombre o su imagen) en la pantalla, pulsa la barra espaciadora tan rápido como sea posible. Pulsa la barra espaciadora cuando veas una imagen de Magearna o la palabra MAGEARNA. 

Pulsa la barra espaciadora para comenzar la tarea.",target1,stimuli/t1.jpg,165,47,stimuli/filler8.jpg,filler,False,None,,,,,,,,,,,,,,0,0,0,0,,,,,0,1,1,0,0,46,46,46,,,,,,,,,,,,,,,,,,,,,,,,,,,,,,,,,,,,,,,,,,,,,,,,,,,,,CS1_USneg,None,1,,,,,,,,,,,,,,,,,,21,f,165,n,2019_Dec_04_1757,ec_RRR,3.0.4,59.80190530338482,
Vadillo,"Para esta tarea, el personaje clave es Magearna:","De modo que siempre que veas a Magearna (su nombre o su imagen) en la pantalla, pulsa la barra espaciadora tan rápido como sea posible. Pulsa la barra espaciadora cuando veas una imagen de Magearna o la palabra MAGEARNA. 

Pulsa la barra espaciadora para comenzar la tarea.",target1,stimuli/t1.jpg,165,48,stimuli/filler13.jpg,filler,False,None,,,,,,,,,,,,,,0,0,0,0,,,,,0,1,1,0,0,47,47,47,,,,,,,,,,,,,,,,,,,,,,,,,,,,,,,,,,,,,,,,,,,,,,,,,,,,,CS1_USneg,None,1,,,,,,,,,,,,,,,,,,21,f,165,n,2019_Dec_04_1757,ec_RRR,3.0.4,59.80190530338482,
Vadillo,"Para esta tarea, el personaje clave es Magearna:","De modo que siempre que veas a Magearna (su nombre o su imagen) en la pantalla, pulsa la barra espaciadora tan rápido como sea posible. Pulsa la barra espaciadora cuando veas una imagen de Magearna o la palabra MAGEARNA. 

Pulsa la barra espaciadora para comenzar la tarea.",target1,stimuli/t1.jpg,165,49,stimuli/filler32.jpg,filler,False,None,,,,,,,,,,,,,,0,0,0,0,,,,,0,1,1,0,0,48,48,48,,,,,,,,,,,,,,,,,,,,,,,,,,,,,,,,,,,,,,,,,,,,,,,,,,,,,CS1_USneg,None,1,,,,,,,,,,,,,,,,,,21,f,165,n,2019_Dec_04_1757,ec_RRR,3.0.4,59.80190530338482,
Vadillo,"Para esta tarea, el personaje clave es Magearna:","De modo que siempre que veas a Magearna (su nombre o su imagen) en la pantalla, pulsa la barra espaciadora tan rápido como sea posible. Pulsa la barra espaciadora cuando veas una imagen de Magearna o la palabra MAGEARNA. 

Pulsa la barra espaciadora para comenzar la tarea.",target1,stimuli/t1.jpg,165,50,stimuli/blank.jpg,blank,False,None,,,,,,,,,,,,,,0,0,0,0,,,,,0,1,1,0,0,49,49,49,,,,,,,,,,,,,,,,,,,,,,,,,,,,,,,,,,,,,,,,,,,,,,,,,,,,,CS1_USneg,None,1,,,,,,,,,,,,,,,,,,21,f,165,n,2019_Dec_04_1757,ec_RRR,3.0.4,59.80190530338482,
Vadillo,"Para esta tarea, el personaje clave es Magearna:","De modo que siempre que veas a Magearna (su nombre o su imagen) en la pantalla, pulsa la barra espaciadora tan rápido como sea posible. Pulsa la barra espaciadora cuando veas una imagen de Magearna o la palabra MAGEARNA. 

Pulsa la barra espaciadora para comenzar la tarea.",target1,stimuli/t1.jpg,165,51,stimuli/cs1_neg2.jpg,CSUS,False,None,,,,,,,,,,,,,,0,0,0,0,,,,,0,1,1,0,0,50,50,50,,,,,,,,,,,,,,,,,,,,,,,,,,,,,,,,,,,,,,,,,,,,,,,,,,,,,CS1_USneg,None,1,,,,,,,,,,,,,,,,,,21,f,165,n,2019_Dec_04_1757,ec_RRR,3.0.4,59.80190530338482,
Vadillo,"Para esta tarea, el personaje clave es Magearna:","De modo que siempre que veas a Magearna (su nombre o su imagen) en la pantalla, pulsa la barra espaciadora tan rápido como sea posible. Pulsa la barra espaciadora cuando veas una imagen de Magearna o la palabra MAGEARNA. 

Pulsa la barra espaciadora para comenzar la tarea.",target1,stimuli/t1.jpg,165,52,stimuli/blank.jpg,blank,False,None,,,,,,,,,,,,,,0,0,0,0,,,,,0,1,1,0,0,51,51,51,,,,,,,,,,,,,,,,,,,,,,,,,,,,,,,,,,,,,,,,,,,,,,,,,,,,,CS1_USneg,None,1,,,,,,,,,,,,,,,,,,21,f,165,n,2019_Dec_04_1757,ec_RRR,3.0.4,59.80190530338482,
Vadillo,"Para esta tarea, el personaje clave es Magearna:","De modo que siempre que veas a Magearna (su nombre o su imagen) en la pantalla, pulsa la barra espaciadora tan rápido como sea posible. Pulsa la barra espaciadora cuando veas una imagen de Magearna o la palabra MAGEARNA. 

Pulsa la barra espaciadora para comenzar la tarea.",target1,stimuli/t1.jpg,165,53,stimuli/filler44.jpg,filler,False,None,,,,,,,,,,,,,,0,0,0,0,,,,,0,1,1,0,0,52,52,52,,,,,,,,,,,,,,,,,,,,,,,,,,,,,,,,,,,,,,,,,,,,,,,,,,,,,CS1_USneg,None,1,,,,,,,,,,,,,,,,,,21,f,165,n,2019_Dec_04_1757,ec_RRR,3.0.4,59.80190530338482,
Vadillo,"Para esta tarea, el personaje clave es Magearna:","De modo que siempre que veas a Magearna (su nombre o su imagen) en la pantalla, pulsa la barra espaciadora tan rápido como sea posible. Pulsa la barra espaciadora cuando veas una imagen de Magearna o la palabra MAGEARNA. 

Pulsa la barra espaciadora para comenzar la tarea.",target1,stimuli/t1.jpg,165,54,stimuli/filler50.jpg,filler,False,None,,,,,,,,,,,,,,0,0,0,0,,,,,0,1,1,0,0,53,53,53,,,,,,,,,,,,,,,,,,,,,,,,,,,,,,,,,,,,,,,,,,,,,,,,,,,,,CS1_USneg,None,1,,,,,,,,,,,,,,,,,,21,f,165,n,2019_Dec_04_1757,ec_RRR,3.0.4,59.80190530338482,
Vadillo,"Para esta tarea, el personaje clave es Magearna:","De modo que siempre que veas a Magearna (su nombre o su imagen) en la pantalla, pulsa la barra espaciadora tan rápido como sea posible. Pulsa la barra espaciadora cuando veas una imagen de Magearna o la palabra MAGEARNA. 

Pulsa la barra espaciadora para comenzar la tarea.",target1,stimuli/t1.jpg,165,55,stimuli/filler41.jpg,filler,False,None,,,,,,,,,,,,,,0,0,0,0,,,,,0,1,1,0,0,54,54,54,,,,,,,,,,,,,,,,,,,,,,,,,,,,,,,,,,,,,,,,,,,,,,,,,,,,,CS1_USneg,None,1,,,,,,,,,,,,,,,,,,21,f,165,n,2019_Dec_04_1757,ec_RRR,3.0.4,59.80190530338482,
Vadillo,"Para esta tarea, el personaje clave es Magearna:","De modo que siempre que veas a Magearna (su nombre o su imagen) en la pantalla, pulsa la barra espaciadora tan rápido como sea posible. Pulsa la barra espaciadora cuando veas una imagen de Magearna o la palabra MAGEARNA. 

Pulsa la barra espaciadora para comenzar la tarea.",target1,stimuli/t1.jpg,165,56,stimuli/filler39.jpg,filler,False,None,,,,,,,,,,,,,,0,0,0,0,,,,,0,1,1,0,0,55,55,55,,,,,,,,,,,,,,,,,,,,,,,,,,,,,,,,,,,,,,,,,,,,,,,,,,,,,CS1_USneg,None,1,,,,,,,,,,,,,,,,,,21,f,165,n,2019_Dec_04_1757,ec_RRR,3.0.4,59.80190530338482,
Vadillo,"Para esta tarea, el personaje clave es Magearna:","De modo que siempre que veas a Magearna (su nombre o su imagen) en la pantalla, pulsa la barra espaciadora tan rápido como sea posible. Pulsa la barra espaciadora cuando veas una imagen de Magearna o la palabra MAGEARNA. 

Pulsa la barra espaciadora para comenzar la tarea.",target1,stimuli/t1.jpg,165,57,stimuli/filler34.jpg,filler,False,None,,,,,,,,,,,,,,0,0,0,0,,,,,0,1,1,0,0,56,56,56,,,,,,,,,,,,,,,,,,,,,,,,,,,,,,,,,,,,,,,,,,,,,,,,,,,,,CS1_USneg,None,1,,,,,,,,,,,,,,,,,,21,f,165,n,2019_Dec_04_1757,ec_RRR,3.0.4,59.80190530338482,
Vadillo,"Para esta tarea, el personaje clave es Magearna:","De modo que siempre que veas a Magearna (su nombre o su imagen) en la pantalla, pulsa la barra espaciadora tan rápido como sea posible. Pulsa la barra espaciadora cuando veas una imagen de Magearna o la palabra MAGEARNA. 

Pulsa la barra espaciadora para comenzar la tarea.",target1,stimuli/t1.jpg,165,58,stimuli/filler3.jpg,filler,False,None,,,,,,,,,,,,,,0,0,0,0,,,,,0,1,1,0,0,57,57,57,,,,,,,,,,,,,,,,,,,,,,,,,,,,,,,,,,,,,,,,,,,,,,,,,,,,,CS1_USneg,None,1,,,,,,,,,,,,,,,,,,21,f,165,n,2019_Dec_04_1757,ec_RRR,3.0.4,59.80190530338482,
Vadillo,"Para esta tarea, el personaje clave es Magearna:","De modo que siempre que veas a Magearna (su nombre o su imagen) en la pantalla, pulsa la barra espaciadora tan rápido como sea posible. Pulsa la barra espaciadora cuando veas una imagen de Magearna o la palabra MAGEARNA. 

Pulsa la barra espaciadora para comenzar la tarea.",target1,stimuli/t1.jpg,165,59,stimuli/filler14.jpg,filler,False,None,,,,,,,,,,,,,,0,0,0,0,,,,,0,1,1,0,0,58,58,58,,,,,,,,,,,,,,,,,,,,,,,,,,,,,,,,,,,,,,,,,,,,,,,,,,,,,CS1_USneg,None,1,,,,,,,,,,,,,,,,,,21,f,165,n,2019_Dec_04_1757,ec_RRR,3.0.4,59.80190530338482,
Vadillo,"Para esta tarea, el personaje clave es Magearna:","De modo que siempre que veas a Magearna (su nombre o su imagen) en la pantalla, pulsa la barra espaciadora tan rápido como sea posible. Pulsa la barra espaciadora cuando veas una imagen de Magearna o la palabra MAGEARNA. 

Pulsa la barra espaciadora para comenzar la tarea.",target1,stimuli/t1.jpg,165,60,stimuli/blank.jpg,blank,False,None,,,,,,,,,,,,,,0,0,0,0,,,,,0,1,1,0,0,59,59,59,,,,,,,,,,,,,,,,,,,,,,,,,,,,,,,,,,,,,,,,,,,,,,,,,,,,,CS1_USneg,None,1,,,,,,,,,,,,,,,,,,21,f,165,n,2019_Dec_04_1757,ec_RRR,3.0.4,59.80190530338482,
Vadillo,"Para esta tarea, el personaje clave es Magearna:","De modo que siempre que veas a Magearna (su nombre o su imagen) en la pantalla, pulsa la barra espaciadora tan rápido como sea posible. Pulsa la barra espaciadora cuando veas una imagen de Magearna o la palabra MAGEARNA. 

Pulsa la barra espaciadora para comenzar la tarea.",target1,stimuli/t1.jpg,165,61,stimuli/cs2_pos6.jpg,CSUS,False,None,,,,,,,,,,,,,,0,0,0,0,,,,,0,1,1,0,0,60,60,60,,,,,,,,,,,,,,,,,,,,,,,,,,,,,,,,,,,,,,,,,,,,,,,,,,,,,CS1_USneg,None,1,,,,,,,,,,,,,,,,,,21,f,165,n,2019_Dec_04_1757,ec_RRR,3.0.4,59.80190530338482,
Vadillo,"Para esta tarea, el personaje clave es Magearna:","De modo que siempre que veas a Magearna (su nombre o su imagen) en la pantalla, pulsa la barra espaciadora tan rápido como sea posible. Pulsa la barra espaciadora cuando veas una imagen de Magearna o la palabra MAGEARNA. 

Pulsa la barra espaciadora para comenzar la tarea.",target1,stimuli/t1.jpg,165,62,stimuli/blank.jpg,blank,False,None,,,,,,,,,,,,,,0,0,0,0,,,,,0,1,1,0,0,61,61,61,,,,,,,,,,,,,,,,,,,,,,,,,,,,,,,,,,,,,,,,,,,,,,,,,,,,,CS1_USneg,None,1,,,,,,,,,,,,,,,,,,21,f,165,n,2019_Dec_04_1757,ec_RRR,3.0.4,59.80190530338482,
Vadillo,"Para esta tarea, el personaje clave es Magearna:","De modo que siempre que veas a Magearna (su nombre o su imagen) en la pantalla, pulsa la barra espaciadora tan rápido como sea posible. Pulsa la barra espaciadora cuando veas una imagen de Magearna o la palabra MAGEARNA. 

Pulsa la barra espaciadora para comenzar la tarea.",target1,stimuli/t1.jpg,165,63,stimuli/filler11.jpg,filler,False,None,,,,,,,,,,,,,,0,0,0,0,,,,,0,1,1,0,0,62,62,62,,,,,,,,,,,,,,,,,,,,,,,,,,,,,,,,,,,,,,,,,,,,,,,,,,,,,CS1_USneg,None,1,,,,,,,,,,,,,,,,,,21,f,165,n,2019_Dec_04_1757,ec_RRR,3.0.4,59.80190530338482,
Vadillo,"Para esta tarea, el personaje clave es Magearna:","De modo que siempre que veas a Magearna (su nombre o su imagen) en la pantalla, pulsa la barra espaciadora tan rápido como sea posible. Pulsa la barra espaciadora cuando veas una imagen de Magearna o la palabra MAGEARNA. 

Pulsa la barra espaciadora para comenzar la tarea.",target1,stimuli/t1.jpg,165,64,stimuli/target1_6.jpg,target,True,space,,,,,,,,,,,,,,0,0,0,0,,,,,0,1,1,0,0,63,63,63,,,,,,,,,,,,,,,,,,,,,,,,,,,,,,,,,,,,,,,,,,,,,,,,,,,,,CS1_USneg,None,0,,,,,,,,,,,,,,,,,,21,f,165,n,2019_Dec_04_1757,ec_RRR,3.0.4,59.80190530338482,
Vadillo,"Para esta tarea, el personaje clave es Magearna:","De modo que siempre que veas a Magearna (su nombre o su imagen) en la pantalla, pulsa la barra espaciadora tan rápido como sea posible. Pulsa la barra espaciadora cuando veas una imagen de Magearna o la palabra MAGEARNA. 

Pulsa la barra espaciadora para comenzar la tarea.",target1,stimuli/t1.jpg,165,65,stimuli/filler52.jpg,filler,False,None,,,,,,,,,,,,,,0,0,0,0,,,,,0,1,1,0,0,64,64,64,,,,,,,,,,,,,,,,,,,,,,,,,,,,,,,,,,,,,,,,,,,,,,,,,,,,,CS1_USneg,space,0,0.41919642535503954,,,,,,,,,,,,,,,,,21,f,165,n,2019_Dec_04_1757,ec_RRR,3.0.4,59.80190530338482,
Vadillo,"Para esta tarea, el personaje clave es Magearna:","De modo que siempre que veas a Magearna (su nombre o su imagen) en la pantalla, pulsa la barra espaciadora tan rápido como sea posible. Pulsa la barra espaciadora cuando veas una imagen de Magearna o la palabra MAGEARNA. 

Pulsa la barra espaciadora para comenzar la tarea.",target1,stimuli/t1.jpg,165,66,stimuli/target1_5.jpg,target,True,space,,,,,,,,,,,,,,0,0,0,0,,,,,0,1,1,0,0,65,65,65,,,,,,,,,,,,,,,,,,,,,,,,,,,,,,,,,,,,,,,,,,,,,,,,,,,,,CS1_USneg,space,1,0.8171233567409217,,,,,,,,,,,,,,,,,21,f,165,n,2019_Dec_04_1757,ec_RRR,3.0.4,59.80190530338482,
Vadillo,"Para esta tarea, el personaje clave es Magearna:","De modo que siempre que veas a Magearna (su nombre o su imagen) en la pantalla, pulsa la barra espaciadora tan rápido como sea posible. Pulsa la barra espaciadora cuando veas una imagen de Magearna o la palabra MAGEARNA. 

Pulsa la barra espaciadora para comenzar la tarea.",target1,stimuli/t1.jpg,165,67,stimuli/filler23.jpg,filler,False,None,,,,,,,,,,,,,,0,0,0,0,,,,,0,1,1,0,0,66,66,66,,,,,,,,,,,,,,,,,,,,,,,,,,,,,,,,,,,,,,,,,,,,,,,,,,,,,CS1_USneg,None,1,,,,,,,,,,,,,,,,,,21,f,165,n,2019_Dec_04_1757,ec_RRR,3.0.4,59.80190530338482,
Vadillo,"Para esta tarea, el personaje clave es Magearna:","De modo que siempre que veas a Magearna (su nombre o su imagen) en la pantalla, pulsa la barra espaciadora tan rápido como sea posible. Pulsa la barra espaciadora cuando veas una imagen de Magearna o la palabra MAGEARNA. 

Pulsa la barra espaciadora para comenzar la tarea.",target1,stimuli/t1.jpg,165,68,stimuli/filler31.jpg,filler,False,None,,,,,,,,,,,,,,0,0,0,0,,,,,0,1,1,0,0,67,67,67,,,,,,,,,,,,,,,,,,,,,,,,,,,,,,,,,,,,,,,,,,,,,,,,,,,,,CS1_USneg,None,1,,,,,,,,,,,,,,,,,,21,f,165,n,2019_Dec_04_1757,ec_RRR,3.0.4,59.80190530338482,
Vadillo,"Para esta tarea, el personaje clave es Magearna:","De modo que siempre que veas a Magearna (su nombre o su imagen) en la pantalla, pulsa la barra espaciadora tan rápido como sea posible. Pulsa la barra espaciadora cuando veas una imagen de Magearna o la palabra MAGEARNA. 

Pulsa la barra espaciadora para comenzar la tarea.",target1,stimuli/t1.jpg,165,69,stimuli/target1_9.jpg,target,True,space,,,,,,,,,,,,,,0,0,0,0,,,,,0,1,1,0,0,68,68,68,,,,,,,,,,,,,,,,,,,,,,,,,,,,,,,,,,,,,,,,,,,,,,,,,,,,,CS1_USneg,space,1,0.7691759038716555,,,,,,,,,,,,,,,,,21,f,165,n,2019_Dec_04_1757,ec_RRR,3.0.4,59.80190530338482,
Vadillo,"Para esta tarea, el personaje clave es Magearna:","De modo que siempre que veas a Magearna (su nombre o su imagen) en la pantalla, pulsa la barra espaciadora tan rápido como sea posible. Pulsa la barra espaciadora cuando veas una imagen de Magearna o la palabra MAGEARNA. 

Pulsa la barra espaciadora para comenzar la tarea.",target1,stimuli/t1.jpg,165,70,stimuli/blank.jpg,blank,False,None,,,,,,,,,,,,,,0,0,0,0,,,,,0,1,1,0,0,69,69,69,,,,,,,,,,,,,,,,,,,,,,,,,,,,,,,,,,,,,,,,,,,,,,,,,,,,,CS1_USneg,None,1,,,,,,,,,,,,,,,,,,21,f,165,n,2019_Dec_04_1757,ec_RRR,3.0.4,59.80190530338482,
Vadillo,"Para esta tarea, el personaje clave es Magearna:","De modo que siempre que veas a Magearna (su nombre o su imagen) en la pantalla, pulsa la barra espaciadora tan rápido como sea posible. Pulsa la barra espaciadora cuando veas una imagen de Magearna o la palabra MAGEARNA. 

Pulsa la barra espaciadora para comenzar la tarea.",target1,stimuli/t1.jpg,165,71,stimuli/cs1_neg14.jpg,CSUS,False,None,,,,,,,,,,,,,,0,0,0,0,,,,,0,1,1,0,0,70,70,70,,,,,,,,,,,,,,,,,,,,,,,,,,,,,,,,,,,,,,,,,,,,,,,,,,,,,CS1_USneg,None,1,,,,,,,,,,,,,,,,,,21,f,165,n,2019_Dec_04_1757,ec_RRR,3.0.4,59.80190530338482,
Vadillo,"Para esta tarea, el personaje clave es Magearna:","De modo que siempre que veas a Magearna (su nombre o su imagen) en la pantalla, pulsa la barra espaciadora tan rápido como sea posible. Pulsa la barra espaciadora cuando veas una imagen de Magearna o la palabra MAGEARNA. 

Pulsa la barra espaciadora para comenzar la tarea.",target1,stimuli/t1.jpg,165,72,stimuli/blank.jpg,blank,False,None,,,,,,,,,,,,,,0,0,0,0,,,,,0,1,1,0,0,71,71,71,,,,,,,,,,,,,,,,,,,,,,,,,,,,,,,,,,,,,,,,,,,,,,,,,,,,,CS1_USneg,None,1,,,,,,,,,,,,,,,,,,21,f,165,n,2019_Dec_04_1757,ec_RRR,3.0.4,59.80190530338482,
Vadillo,"Para esta tarea, el personaje clave es Magearna:","De modo que siempre que veas a Magearna (su nombre o su imagen) en la pantalla, pulsa la barra espaciadora tan rápido como sea posible. Pulsa la barra espaciadora cuando veas una imagen de Magearna o la palabra MAGEARNA. 

Pulsa la barra espaciadora para comenzar la tarea.",target1,stimuli/t1.jpg,165,73,stimuli/target1_8.jpg,target,True,space,,,,,,,,,,,,,,0,0,0,0,,,,,0,1,1,0,0,72,72,72,,,,,,,,,,,,,,,,,,,,,,,,,,,,,,,,,,,,,,,,,,,,,,,,,,,,,CS1_USneg,space,1,0.5512333482329268,,,,,,,,,,,,,,,,,21,f,165,n,2019_Dec_04_1757,ec_RRR,3.0.4,59.80190530338482,
Vadillo,"Para esta tarea, el personaje clave es Magearna:","De modo que siempre que veas a Magearna (su nombre o su imagen) en la pantalla, pulsa la barra espaciadora tan rápido como sea posible. Pulsa la barra espaciadora cuando veas una imagen de Magearna o la palabra MAGEARNA. 

Pulsa la barra espaciadora para comenzar la tarea.",target1,stimuli/t1.jpg,165,74,stimuli/filler22.jpg,filler,False,None,,,,,,,,,,,,,,0,0,0,0,,,,,0,1,1,0,0,73,73,73,,,,,,,,,,,,,,,,,,,,,,,,,,,,,,,,,,,,,,,,,,,,,,,,,,,,,CS1_USneg,None,1,,,,,,,,,,,,,,,,,,21,f,165,n,2019_Dec_04_1757,ec_RRR,3.0.4,59.80190530338482,
Vadillo,"Para esta tarea, el personaje clave es Magearna:","De modo que siempre que veas a Magearna (su nombre o su imagen) en la pantalla, pulsa la barra espaciadora tan rápido como sea posible. Pulsa la barra espaciadora cuando veas una imagen de Magearna o la palabra MAGEARNA. 

Pulsa la barra espaciadora para comenzar la tarea.",target1,stimuli/t1.jpg,165,75,stimuli/filler16.jpg,filler,False,None,,,,,,,,,,,,,,0,0,0,0,,,,,0,1,1,0,0,74,74,74,,,,,,,,,,,,,,,,,,,,,,,,,,,,,,,,,,,,,,,,,,,,,,,,,,,,,CS1_USneg,None,1,,,,,,,,,,,,,,,,,,21,f,165,n,2019_Dec_04_1757,ec_RRR,3.0.4,59.80190530338482,
Vadillo,"Para esta tarea, el personaje clave es Magearna:","De modo que siempre que veas a Magearna (su nombre o su imagen) en la pantalla, pulsa la barra espaciadora tan rápido como sea posible. Pulsa la barra espaciadora cuando veas una imagen de Magearna o la palabra MAGEARNA. 

Pulsa la barra espaciadora para comenzar la tarea.",target1,stimuli/t1.jpg,165,76,stimuli/filler48.jpg,filler,False,None,,,,,,,,,,,,,,0,0,0,0,,,,,0,1,1,0,0,75,75,75,,,,,,,,,,,,,,,,,,,,,,,,,,,,,,,,,,,,,,,,,,,,,,,,,,,,,CS1_USneg,None,1,,,,,,,,,,,,,,,,,,21,f,165,n,2019_Dec_04_1757,ec_RRR,3.0.4,59.80190530338482,
Vadillo,"Para esta tarea, el personaje clave es Magearna:","De modo que siempre que veas a Magearna (su nombre o su imagen) en la pantalla, pulsa la barra espaciadora tan rápido como sea posible. Pulsa la barra espaciadora cuando veas una imagen de Magearna o la palabra MAGEARNA. 

