data_collection_site,instructions_text_top,instructions_text_bottom,block_id,example_image,participant,trial_number,stimulus,trial_type,target_trial,surveillance_correct_response,filler_1_items,filler_2_items,middle_text,left_text,right_text,evaluation_stimulus,left_stimulus,right_stimulus,evaluation_response_indicating_CS1_preferred,awareness_1_question_text,awareness_2a_question_text,awareness_2b_question_text,awareness_2_question_text,record_data_collection_site_variable.thisRepN,record_data_collection_site_variable.thisTrialN,record_data_collection_site_variable.thisN,record_data_collection_site_variable.thisIndex,surveillance_instructions_loop.thisRepN,surveillance_instructions_loop.thisTrialN,surveillance_instructions_loop.thisN,surveillance_instructions_loop.thisIndex,surveillance_blocks_loop.thisRepN,surveillance_blocks_loop.thisTrialN,surveillance_blocks_loop.thisN,surveillance_blocks_loop.thisIndex,surveillance_trials_loop.thisRepN,surveillance_trials_loop.thisTrialN,surveillance_trials_loop.thisN,surveillance_trials_loop.thisIndex,filler_1_instructions_loop.thisRepN,filler_1_instructions_loop.thisTrialN,filler_1_instructions_loop.thisN,filler_1_instructions_loop.thisIndex,filler_1_loop.thisRepN,filler_1_loop.thisTrialN,filler_1_loop.thisN,filler_1_loop.thisIndex,filler_2_instructions_loop.thisRepN,filler_2_instructions_loop.thisTrialN,filler_2_instructions_loop.thisN,filler_2_instructions_loop.thisIndex,filler_2_loop.thisRepN,filler_2_loop.thisTrialN,filler_2_loop.thisN,filler_2_loop.thisIndex,evaluation_instructions_loop.thisRepN,evaluation_instructions_loop.thisTrialN,evaluation_instructions_loop.thisN,evaluation_instructions_loop.thisIndex,evaluation_loop.thisRepN,evaluation_loop.thisTrialN,evaluation_loop.thisN,evaluation_loop.thisIndex,evaluation_trials.thisRepN,evaluation_trials.thisTrialN,evaluation_trials.thisN,evaluation_trials.thisIndex,awareness_instructions_loop.thisRepN,awareness_instructions_loop.thisTrialN,awareness_instructions_loop.thisN,awareness_instructions_loop.thisIndex,awareness_1_trials_loop.thisRepN,awareness_1_trials_loop.thisTrialN,awareness_1_trials_loop.thisN,awareness_1_trials_loop.thisIndex,awareness_2a_trials_loop.thisRepN,awareness_2a_trials_loop.thisTrialN,awareness_2a_trials_loop.thisN,awareness_2a_trials_loop.thisIndex,awareness_2b_trials_loop.thisRepN,awareness_2b_trials_loop.thisTrialN,awareness_2b_trials_loop.thisN,awareness_2b_trials_loop.thisIndex,awareness_2c_trials_loop.thisRepN,awareness_2c_trials_loop.thisTrialN,awareness_2c_trials_loop.thisN,awareness_2c_trials_loop.thisIndex,end_message_loop.thisRepN,end_message_loop.thisTrialN,end_message_loop.thisN,end_message_loop.thisIndex,condition,surveillance_response.keys,surveillance_response.corr,surveillance_response.rt,filler_1_rating.response,filler_1_rating.rt,filler_2_rating.response,filler_2_rating.rt,evaluation_response.keys,evaluation_response.corr,evaluation_response.rt,inputText,awareness_1_response.keys,awareness_1_response.rt,awareness_type_2a_rating.response,awareness_type_2a_rating.rt,awareness_type_2b_rating.response,awareness_type_2b_rating.rt,awareness_type_2c_rating.response,awareness_type_2c_rating.rt,age,gender,participant,UseMonkey,date,expName,psychopyVersion,frameRate,
Corneille and Mierop,"Dans cette tâche, la créature ciblée est Zorua:","Ainsi, chaque fois que Zorua (son nom ou sa photo) apparaît à l'écran, appuyez sur la barre d'espace le plus rapidement possible. Appuyez sur la barre d'espace chaque fois que vous voyez une image de Zorua ou le mot ZORUA.

Appuyez sur la barre d'espace pour démarrer la tâche.",target4,stimuli/t4.jpg,64,1,stimuli/filler4.jpg,filler,False,None,,,,,,,,,,,,,,0,0,0,0,,,,,0,0,0,3,0,0,0,0,,,,,,,,,,,,,,,,,,,,,,,,,,,,,,,,,,,,,,,,,,,,,,,,,,,,,CS1_USpos,None,1,,,,,,,,,,,,,,,,,,20,male,64,n,2019_Dec_18_1412,ec_RRR,3.0.4,59.72802247664614,
Corneille and Mierop,"Dans cette tâche, la créature ciblée est Zorua:","Ainsi, chaque fois que Zorua (son nom ou sa photo) apparaît à l'écran, appuyez sur la barre d'espace le plus rapidement possible. Appuyez sur la barre d'espace chaque fois que vous voyez une image de Zorua ou le mot ZORUA.

Appuyez sur la barre d'espace pour démarrer la tâche.",target4,stimuli/t4.jpg,64,2,stimuli/filler34.jpg,filler,False,None,,,,,,,,,,,,,,0,0,0,0,,,,,0,0,0,3,0,1,1,1,,,,,,,,,,,,,,,,,,,,,,,,,,,,,,,,,,,,,,,,,,,,,,,,,,,,,CS1_USpos,None,1,,,,,,,,,,,,,,,,,,20,male,64,n,2019_Dec_18_1412,ec_RRR,3.0.4,59.72802247664614,
Corneille and Mierop,"Dans cette tâche, la créature ciblée est Zorua:","Ainsi, chaque fois que Zorua (son nom ou sa photo) apparaît à l'écran, appuyez sur la barre d'espace le plus rapidement possible. Appuyez sur la barre d'espace chaque fois que vous voyez une image de Zorua ou le mot ZORUA.

Appuyez sur la barre d'espace pour démarrer la tâche.",target4,stimuli/t4.jpg,64,3,stimuli/filler26.jpg,filler,False,None,,,,,,,,,,,,,,0,0,0,0,,,,,0,0,0,3,0,2,2,2,,,,,,,,,,,,,,,,,,,,,,,,,,,,,,,,,,,,,,,,,,,,,,,,,,,,,CS1_USpos,None,1,,,,,,,,,,,,,,,,,,20,male,64,n,2019_Dec_18_1412,ec_RRR,3.0.4,59.72802247664614,
Corneille and Mierop,"Dans cette tâche, la créature ciblée est Zorua:","Ainsi, chaque fois que Zorua (son nom ou sa photo) apparaît à l'écran, appuyez sur la barre d'espace le plus rapidement possible. Appuyez sur la barre d'espace chaque fois que vous voyez une image de Zorua ou le mot ZORUA.

Appuyez sur la barre d'espace pour démarrer la tâche.",target4,stimuli/t4.jpg,64,4,stimuli/target4_9.jpg,target,True,space,,,,,,,,,,,,,,0,0,0,0,,,,,0,0,0,3,0,3,3,3,,,,,,,,,,,,,,,,,,,,,,,,,,,,,,,,,,,,,,,,,,,,,,,,,,,,,CS1_USpos,space,1,0.7657910000016273,,,,,,,,,,,,,,,,,20,male,64,n,2019_Dec_18_1412,ec_RRR,3.0.4,59.72802247664614,
Corneille and Mierop,"Dans cette tâche, la créature ciblée est Zorua:","Ainsi, chaque fois que Zorua (son nom ou sa photo) apparaît à l'écran, appuyez sur la barre d'espace le plus rapidement possible. Appuyez sur la barre d'espace chaque fois que vous voyez une image de Zorua ou le mot ZORUA.

Appuyez sur la barre d'espace pour démarrer la tâche.",target4,stimuli/t4.jpg,64,5,stimuli/filler48.jpg,filler,False,None,,,,,,,,,,,,,,0,0,0,0,,,,,0,0,0,3,0,4,4,4,,,,,,,,,,,,,,,,,,,,,,,,,,,,,,,,,,,,,,,,,,,,,,,,,,,,,CS1_USpos,None,1,,,,,,,,,,,,,,,,,,20,male,64,n,2019_Dec_18_1412,ec_RRR,3.0.4,59.72802247664614,
Corneille and Mierop,"Dans cette tâche, la créature ciblée est Zorua:","Ainsi, chaque fois que Zorua (son nom ou sa photo) apparaît à l'écran, appuyez sur la barre d'espace le plus rapidement possible. Appuyez sur la barre d'espace chaque fois que vous voyez une image de Zorua ou le mot ZORUA.

Appuyez sur la barre d'espace pour démarrer la tâche.",target4,stimuli/t4.jpg,64,6,stimuli/filler32.jpg,filler,False,None,,,,,,,,,,,,,,0,0,0,0,,,,,0,0,0,3,0,5,5,5,,,,,,,,,,,,,,,,,,,,,,,,,,,,,,,,,,,,,,,,,,,,,,,,,,,,,CS1_USpos,None,1,,,,,,,,,,,,,,,,,,20,male,64,n,2019_Dec_18_1412,ec_RRR,3.0.4,59.72802247664614,
Corneille and Mierop,"Dans cette tâche, la créature ciblée est Zorua:","Ainsi, chaque fois que Zorua (son nom ou sa photo) apparaît à l'écran, appuyez sur la barre d'espace le plus rapidement possible. Appuyez sur la barre d'espace chaque fois que vous voyez une image de Zorua ou le mot ZORUA.

Appuyez sur la barre d'espace pour démarrer la tâche.",target4,stimuli/t4.jpg,64,7,stimuli/target4_1.jpg,target,True,space,,,,,,,,,,,,,,0,0,0,0,,,,,0,0,0,3,0,6,6,6,,,,,,,,,,,,,,,,,,,,,,,,,,,,,,,,,,,,,,,,,,,,,,,,,,,,,CS1_USpos,space,1,0.6417868999997154,,,,,,,,,,,,,,,,,20,male,64,n,2019_Dec_18_1412,ec_RRR,3.0.4,59.72802247664614,
Corneille and Mierop,"Dans cette tâche, la créature ciblée est Zorua:","Ainsi, chaque fois que Zorua (son nom ou sa photo) apparaît à l'écran, appuyez sur la barre d'espace le plus rapidement possible. Appuyez sur la barre d'espace chaque fois que vous voyez une image de Zorua ou le mot ZORUA.

Appuyez sur la barre d'espace pour démarrer la tâche.",target4,stimuli/t4.jpg,64,8,stimuli/filler12.jpg,filler,False,None,,,,,,,,,,,,,,0,0,0,0,,,,,0,0,0,3,0,7,7,7,,,,,,,,,,,,,,,,,,,,,,,,,,,,,,,,,,,,,,,,,,,,,,,,,,,,,CS1_USpos,None,1,,,,,,,,,,,,,,,,,,20,male,64,n,2019_Dec_18_1412,ec_RRR,3.0.4,59.72802247664614,
Corneille and Mierop,"Dans cette tâche, la créature ciblée est Zorua:","Ainsi, chaque fois que Zorua (son nom ou sa photo) apparaît à l'écran, appuyez sur la barre d'espace le plus rapidement possible. Appuyez sur la barre d'espace chaque fois que vous voyez une image de Zorua ou le mot ZORUA.

Appuyez sur la barre d'espace pour démarrer la tâche.",target4,stimuli/t4.jpg,64,9,stimuli/filler13.jpg,filler,False,None,,,,,,,,,,,,,,0,0,0,0,,,,,0,0,0,3,0,8,8,8,,,,,,,,,,,,,,,,,,,,,,,,,,,,,,,,,,,,,,,,,,,,,,,,,,,,,CS1_USpos,None,1,,,,,,,,,,,,,,,,,,20,male,64,n,2019_Dec_18_1412,ec_RRR,3.0.4,59.72802247664614,
Corneille and Mierop,"Dans cette tâche, la créature ciblée est Zorua:","Ainsi, chaque fois que Zorua (son nom ou sa photo) apparaît à l'écran, appuyez sur la barre d'espace le plus rapidement possible. Appuyez sur la barre d'espace chaque fois que vous voyez une image de Zorua ou le mot ZORUA.

Appuyez sur la barre d'espace pour démarrer la tâche.",target4,stimuli/t4.jpg,64,10,stimuli/blank.jpg,blank,False,None,,,,,,,,,,,,,,0,0,0,0,,,,,0,0,0,3,0,9,9,9,,,,,,,,,,,,,,,,,,,,,,,,,,,,,,,,,,,,,,,,,,,,,,,,,,,,,CS1_USpos,None,1,,,,,,,,,,,,,,,,,,20,male,64,n,2019_Dec_18_1412,ec_RRR,3.0.4,59.72802247664614,
Corneille and Mierop,"Dans cette tâche, la créature ciblée est Zorua:","Ainsi, chaque fois que Zorua (son nom ou sa photo) apparaît à l'écran, appuyez sur la barre d'espace le plus rapidement possible. Appuyez sur la barre d'espace chaque fois que vous voyez une image de Zorua ou le mot ZORUA.

Appuyez sur la barre d'espace pour démarrer la tâche.",target4,stimuli/t4.jpg,64,11,stimuli/cs1_pos14.jpg,CSUS,False,None,,,,,,,,,,,,,,0,0,0,0,,,,,0,0,0,3,0,10,10,10,,,,,,,,,,,,,,,,,,,,,,,,,,,,,,,,,,,,,,,,,,,,,,,,,,,,,CS1_USpos,None,1,,,,,,,,,,,,,,,,,,20,male,64,n,2019_Dec_18_1412,ec_RRR,3.0.4,59.72802247664614,
Corneille and Mierop,"Dans cette tâche, la créature ciblée est Zorua:","Ainsi, chaque fois que Zorua (son nom ou sa photo) apparaît à l'écran, appuyez sur la barre d'espace le plus rapidement possible. Appuyez sur la barre d'espace chaque fois que vous voyez une image de Zorua ou le mot ZORUA.

Appuyez sur la barre d'espace pour démarrer la tâche.",target4,stimuli/t4.jpg,64,12,stimuli/blank.jpg,blank,False,None,,,,,,,,,,,,,,0,0,0,0,,,,,0,0,0,3,0,11,11,11,,,,,,,,,,,,,,,,,,,,,,,,,,,,,,,,,,,,,,,,,,,,,,,,,,,,,CS1_USpos,None,1,,,,,,,,,,,,,,,,,,20,male,64,n,2019_Dec_18_1412,ec_RRR,3.0.4,59.72802247664614,
Corneille and Mierop,"Dans cette tâche, la créature ciblée est Zorua:","Ainsi, chaque fois que Zorua (son nom ou sa photo) apparaît à l'écran, appuyez sur la barre d'espace le plus rapidement possible. Appuyez sur la barre d'espace chaque fois que vous voyez une image de Zorua ou le mot ZORUA.

Appuyez sur la barre d'espace pour démarrer la tâche.",target4,stimuli/t4.jpg,64,13,stimuli/filler25.jpg,filler,False,None,,,,,,,,,,,,,,0,0,0,0,,,,,0,0,0,3,0,12,12,12,,,,,,,,,,,,,,,,,,,,,,,,,,,,,,,,,,,,,,,,,,,,,,,,,,,,,CS1_USpos,None,1,,,,,,,,,,,,,,,,,,20,male,64,n,2019_Dec_18_1412,ec_RRR,3.0.4,59.72802247664614,
Corneille and Mierop,"Dans cette tâche, la créature ciblée est Zorua:","Ainsi, chaque fois que Zorua (son nom ou sa photo) apparaît à l'écran, appuyez sur la barre d'espace le plus rapidement possible. Appuyez sur la barre d'espace chaque fois que vous voyez une image de Zorua ou le mot ZORUA.

Appuyez sur la barre d'espace pour démarrer la tâche.",target4,stimuli/t4.jpg,64,14,stimuli/filler40.jpg,filler,False,None,,,,,,,,,,,,,,0,0,0,0,,,,,0,0,0,3,0,13,13,13,,,,,,,,,,,,,,,,,,,,,,,,,,,,,,,,,,,,,,,,,,,,,,,,,,,,,CS1_USpos,None,1,,,,,,,,,,,,,,,,,,20,male,64,n,2019_Dec_18_1412,ec_RRR,3.0.4,59.72802247664614,
Corneille and Mierop,"Dans cette tâche, la créature ciblée est Zorua:","Ainsi, chaque fois que Zorua (son nom ou sa photo) apparaît à l'écran, appuyez sur la barre d'espace le plus rapidement possible. Appuyez sur la barre d'espace chaque fois que vous voyez une image de Zorua ou le mot ZORUA.

Appuyez sur la barre d'espace pour démarrer la tâche.",target4,stimuli/t4.jpg,64,15,stimuli/filler20.jpg,filler,False,None,,,,,,,,,,,,,,0,0,0,0,,,,,0,0,0,3,0,14,14,14,,,,,,,,,,,,,,,,,,,,,,,,,,,,,,,,,,,,,,,,,,,,,,,,,,,,,CS1_USpos,None,1,,,,,,,,,,,,,,,,,,20,male,64,n,2019_Dec_18_1412,ec_RRR,3.0.4,59.72802247664614,
Corneille and Mierop,"Dans cette tâche, la créature ciblée est Zorua:","Ainsi, chaque fois que Zorua (son nom ou sa photo) apparaît à l'écran, appuyez sur la barre d'espace le plus rapidement possible. Appuyez sur la barre d'espace chaque fois que vous voyez une image de Zorua ou le mot ZORUA.

Appuyez sur la barre d'espace pour démarrer la tâche.",target4,stimuli/t4.jpg,64,16,stimuli/filler17.jpg,filler,False,None,,,,,,,,,,,,,,0,0,0,0,,,,,0,0,0,3,0,15,15,15,,,,,,,,,,,,,,,,,,,,,,,,,,,,,,,,,,,,,,,,,,,,,,,,,,,,,CS1_USpos,None,1,,,,,,,,,,,,,,,,,,20,male,64,n,2019_Dec_18_1412,ec_RRR,3.0.4,59.72802247664614,
Corneille and Mierop,"Dans cette tâche, la créature ciblée est Zorua:","Ainsi, chaque fois que Zorua (son nom ou sa photo) apparaît à l'écran, appuyez sur la barre d'espace le plus rapidement possible. Appuyez sur la barre d'espace chaque fois que vous voyez une image de Zorua ou le mot ZORUA.

Appuyez sur la barre d'espace pour démarrer la tâche.",target4,stimuli/t4.jpg,64,17,stimuli/filler44.jpg,filler,False,None,,,,,,,,,,,,,,0,0,0,0,,,,,0,0,0,3,0,16,16,16,,,,,,,,,,,,,,,,,,,,,,,,,,,,,,,,,,,,,,,,,,,,,,,,,,,,,CS1_USpos,None,1,,,,,,,,,,,,,,,,,,20,male,64,n,2019_Dec_18_1412,ec_RRR,3.0.4,59.72802247664614,
Corneille and Mierop,"Dans cette tâche, la créature ciblée est Zorua:","Ainsi, chaque fois que Zorua (son nom ou sa photo) apparaît à l'écran, appuyez sur la barre d'espace le plus rapidement possible. Appuyez sur la barre d'espace chaque fois que vous voyez une image de Zorua ou le mot ZORUA.

Appuyez sur la barre d'espace pour démarrer la tâche.",target4,stimuli/t4.jpg,64,18,stimuli/filler50.jpg,filler,False,None,,,,,,,,,,,,,,0,0,0,0,,,,,0,0,0,3,0,17,17,17,,,,,,,,,,,,,,,,,,,,,,,,,,,,,,,,,,,,,,,,,,,,,,,,,,,,,CS1_USpos,None,1,,,,,,,,,,,,,,,,,,20,male,64,n,2019_Dec_18_1412,ec_RRR,3.0.4,59.72802247664614,
Corneille and Mierop,"Dans cette tâche, la créature ciblée est Zorua:","Ainsi, chaque fois que Zorua (son nom ou sa photo) apparaît à l'écran, appuyez sur la barre d'espace le plus rapidement possible. Appuyez sur la barre d'espace chaque fois que vous voyez une image de Zorua ou le mot ZORUA.

Appuyez sur la barre d'espace pour démarrer la tâche.",target4,stimuli/t4.jpg,64,19,stimuli/filler42.jpg,filler,False,None,,,,,,,,,,,,,,0,0,0,0,,,,,0,0,0,3,0,18,18,18,,,,,,,,,,,,,,,,,,,,,,,,,,,,,,,,,,,,,,,,,,,,,,,,,,,,,CS1_USpos,None,1,,,,,,,,,,,,,,,,,,20,male,64,n,2019_Dec_18_1412,ec_RRR,3.0.4,59.72802247664614,
Corneille and Mierop,"Dans cette tâche, la créature ciblée est Zorua:","Ainsi, chaque fois que Zorua (son nom ou sa photo) apparaît à l'écran, appuyez sur la barre d'espace le plus rapidement possible. Appuyez sur la barre d'espace chaque fois que vous voyez une image de Zorua ou le mot ZORUA.

Appuyez sur la barre d'espace pour démarrer la tâche.",target4,stimuli/t4.jpg,64,20,stimuli/blank.jpg,blank,False,None,,,,,,,,,,,,,,0,0,0,0,,,,,0,0,0,3,0,19,19,19,,,,,,,,,,,,,,,,,,,,,,,,,,,,,,,,,,,,,,,,,,,,,,,,,,,,,CS1_USpos,None,1,,,,,,,,,,,,,,,,,,20,male,64,n,2019_Dec_18_1412,ec_RRR,3.0.4,59.72802247664614,
Corneille and Mierop,"Dans cette tâche, la créature ciblée est Zorua:","Ainsi, chaque fois que Zorua (son nom ou sa photo) apparaît à l'écran, appuyez sur la barre d'espace le plus rapidement possible. Appuyez sur la barre d'espace chaque fois que vous voyez une image de Zorua ou le mot ZORUA.

Appuyez sur la barre d'espace pour démarrer la tâche.",target4,stimuli/t4.jpg,64,21,stimuli/cs2_neg18.jpg,CSUS,False,None,,,,,,,,,,,,,,0,0,0,0,,,,,0,0,0,3,0,20,20,20,,,,,,,,,,,,,,,,,,,,,,,,,,,,,,,,,,,,,,,,,,,,,,,,,,,,,CS1_USpos,None,1,,,,,,,,,,,,,,,,,,20,male,64,n,2019_Dec_18_1412,ec_RRR,3.0.4,59.72802247664614,
Corneille and Mierop,"Dans cette tâche, la créature ciblée est Zorua:","Ainsi, chaque fois que Zorua (son nom ou sa photo) apparaît à l'écran, appuyez sur la barre d'espace le plus rapidement possible. Appuyez sur la barre d'espace chaque fois que vous voyez une image de Zorua ou le mot ZORUA.

Appuyez sur la barre d'espace pour démarrer la tâche.",target4,stimuli/t4.jpg,64,22,stimuli/blank.jpg,blank,False,None,,,,,,,,,,,,,,0,0,0,0,,,,,0,0,0,3,0,21,21,21,,,,,,,,,,,,,,,,,,,,,,,,,,,,,,,,,,,,,,,,,,,,,,,,,,,,,CS1_USpos,None,1,,,,,,,,,,,,,,,,,,20,male,64,n,2019_Dec_18_1412,ec_RRR,3.0.4,59.72802247664614,
Corneille and Mierop,"Dans cette tâche, la créature ciblée est Zorua:","Ainsi, chaque fois que Zorua (son nom ou sa photo) apparaît à l'écran, appuyez sur la barre d'espace le plus rapidement possible. Appuyez sur la barre d'espace chaque fois que vous voyez une image de Zorua ou le mot ZORUA.

Appuyez sur la barre d'espace pour démarrer la tâche.",target4,stimuli/t4.jpg,64,23,stimuli/filler7.jpg,filler,False,None,,,,,,,,,,,,,,0,0,0,0,,,,,0,0,0,3,0,22,22,22,,,,,,,,,,,,,,,,,,,,,,,,,,,,,,,,,,,,,,,,,,,,,,,,,,,,,CS1_USpos,None,1,,,,,,,,,,,,,,,,,,20,male,64,n,2019_Dec_18_1412,ec_RRR,3.0.4,59.72802247664614,
Corneille and Mierop,"Dans cette tâche, la créature ciblée est Zorua:","Ainsi, chaque fois que Zorua (son nom ou sa photo) apparaît à l'écran, appuyez sur la barre d'espace le plus rapidement possible. Appuyez sur la barre d'espace chaque fois que vous voyez une image de Zorua ou le mot ZORUA.

Appuyez sur la barre d'espace pour démarrer la tâche.",target4,stimuli/t4.jpg,64,24,stimuli/filler29.jpg,filler,False,None,,,,,,,,,,,,,,0,0,0,0,,,,,0,0,0,3,0,23,23,23,,,,,,,,,,,,,,,,,,,,,,,,,,,,,,,,,,,,,,,,,,,,,,,,,,,,,CS1_USpos,None,1,,,,,,,,,,,,,,,,,,20,male,64,n,2019_Dec_18_1412,ec_RRR,3.0.4,59.72802247664614,
Corneille and Mierop,"Dans cette tâche, la créature ciblée est Zorua:","Ainsi, chaque fois que Zorua (son nom ou sa photo) apparaît à l'écran, appuyez sur la barre d'espace le plus rapidement possible. Appuyez sur la barre d'espace chaque fois que vous voyez une image de Zorua ou le mot ZORUA.

Appuyez sur la barre d'espace pour démarrer la tâche.",target4,stimuli/t4.jpg,64,25,stimuli/filler39.jpg,filler,False,None,,,,,,,,,,,,,,0,0,0,0,,,,,0,0,0,3,0,24,24,24,,,,,,,,,,,,,,,,,,,,,,,,,,,,,,,,,,,,,,,,,,,,,,,,,,,,,CS1_USpos,None,1,,,,,,,,,,,,,,,,,,20,male,64,n,2019_Dec_18_1412,ec_RRR,3.0.4,59.72802247664614,
Corneille and Mierop,"Dans cette tâche, la créature ciblée est Zorua:","Ainsi, chaque fois que Zorua (son nom ou sa photo) apparaît à l'écran, appuyez sur la barre d'espace le plus rapidement possible. Appuyez sur la barre d'espace chaque fois que vous voyez une image de Zorua ou le mot ZORUA.

Appuyez sur la barre d'espace pour démarrer la tâche.",target4,stimuli/t4.jpg,64,26,stimuli/filler38.jpg,filler,False,None,,,,,,,,,,,,,,0,0,0,0,,,,,0,0,0,3,0,25,25,25,,,,,,,,,,,,,,,,,,,,,,,,,,,,,,,,,,,,,,,,,,,,,,,,,,,,,CS1_USpos,None,1,,,,,,,,,,,,,,,,,,20,male,64,n,2019_Dec_18_1412,ec_RRR,3.0.4,59.72802247664614,
Corneille and Mierop,"Dans cette tâche, la créature ciblée est Zorua:","Ainsi, chaque fois que Zorua (son nom ou sa photo) apparaît à l'écran, appuyez sur la barre d'espace le plus rapidement possible. Appuyez sur la barre d'espace chaque fois que vous voyez une image de Zorua ou le mot ZORUA.

Appuyez sur la barre d'espace pour démarrer la tâche.",target4,stimuli/t4.jpg,64,27,stimuli/filler3.jpg,filler,False,None,,,,,,,,,,,,,,0,0,0,0,,,,,0,0,0,3,0,26,26,26,,,,,,,,,,,,,,,,,,,,,,,,,,,,,,,,,,,,,,,,,,,,,,,,,,,,,CS1_USpos,None,1,,,,,,,,,,,,,,,,,,20,male,64,n,2019_Dec_18_1412,ec_RRR,3.0.4,59.72802247664614,
Corneille and Mierop,"Dans cette tâche, la créature ciblée est Zorua:","Ainsi, chaque fois que Zorua (son nom ou sa photo) apparaît à l'écran, appuyez sur la barre d'espace le plus rapidement possible. Appuyez sur la barre d'espace chaque fois que vous voyez une image de Zorua ou le mot ZORUA.

Appuyez sur la barre d'espace pour démarrer la tâche.",target4,stimuli/t4.jpg,64,28,stimuli/filler18.jpg,filler,False,None,,,,,,,,,,,,,,0,0,0,0,,,,,0,0,0,3,0,27,27,27,,,,,,,,,,,,,,,,,,,,,,,,,,,,,,,,,,,,,,,,,,,,,,,,,,,,,CS1_USpos,None,1,,,,,,,,,,,,,,,,,,20,male,64,n,2019_Dec_18_1412,ec_RRR,3.0.4,59.72802247664614,
Corneille and Mierop,"Dans cette tâche, la créature ciblée est Zorua:","Ainsi, chaque fois que Zorua (son nom ou sa photo) apparaît à l'écran, appuyez sur la barre d'espace le plus rapidement possible. Appuyez sur la barre d'espace chaque fois que vous voyez une image de Zorua ou le mot ZORUA.

Appuyez sur la barre d'espace pour démarrer la tâche.",target4,stimuli/t4.jpg,64,29,stimuli/filler46.jpg,filler,False,None,,,,,,,,,,,,,,0,0,0,0,,,,,0,0,0,3,0,28,28,28,,,,,,,,,,,,,,,,,,,,,,,,,,,,,,,,,,,,,,,,,,,,,,,,,,,,,CS1_USpos,None,1,,,,,,,,,,,,,,,,,,20,male,64,n,2019_Dec_18_1412,ec_RRR,3.0.4,59.72802247664614,
Corneille and Mierop,"Dans cette tâche, la créature ciblée est Zorua:","Ainsi, chaque fois que Zorua (son nom ou sa photo) apparaît à l'écran, appuyez sur la barre d'espace le plus rapidement possible. Appuyez sur la barre d'espace chaque fois que vous voyez une image de Zorua ou le mot ZORUA.

Appuyez sur la barre d'espace pour démarrer la tâche.",target4,stimuli/t4.jpg,64,30,stimuli/blank.jpg,blank,False,None,,,,,,,,,,,,,,0,0,0,0,,,,,0,0,0,3,0,29,29,29,,,,,,,,,,,,,,,,,,,,,,,,,,,,,,,,,,,,,,,,,,,,,,,,,,,,,CS1_USpos,None,1,,,,,,,,,,,,,,,,,,20,male,64,n,2019_Dec_18_1412,ec_RRR,3.0.4,59.72802247664614,
Corneille and Mierop,"Dans cette tâche, la créature ciblée est Zorua:","Ainsi, chaque fois que Zorua (son nom ou sa photo) apparaît à l'écran, appuyez sur la barre d'espace le plus rapidement possible. Appuyez sur la barre d'espace chaque fois que vous voyez une image de Zorua ou le mot ZORUA.

Appuyez sur la barre d'espace pour démarrer la tâche.",target4,stimuli/t4.jpg,64,31,stimuli/cs1_pos7.jpg,CSUS,False,None,,,,,,,,,,,,,,0,0,0,0,,,,,0,0,0,3,0,30,30,30,,,,,,,,,,,,,,,,,,,,,,,,,,,,,,,,,,,,,,,,,,,,,,,,,,,,,CS1_USpos,None,1,,,,,,,,,,,,,,,,,,20,male,64,n,2019_Dec_18_1412,ec_RRR,3.0.4,59.72802247664614,
Corneille and Mierop,"Dans cette tâche, la créature ciblée est Zorua:","Ainsi, chaque fois que Zorua (son nom ou sa photo) apparaît à l'écran, appuyez sur la barre d'espace le plus rapidement possible. Appuyez sur la barre d'espace chaque fois que vous voyez une image de Zorua ou le mot ZORUA.

Appuyez sur la barre d'espace pour démarrer la tâche.",target4,stimuli/t4.jpg,64,32,stimuli/blank.jpg,blank,False,None,,,,,,,,,,,,,,0,0,0,0,,,,,0,0,0,3,0,31,31,31,,,,,,,,,,,,,,,,,,,,,,,,,,,,,,,,,,,,,,,,,,,,,,,,,,,,,CS1_USpos,None,1,,,,,,,,,,,,,,,,,,20,male,64,n,2019_Dec_18_1412,ec_RRR,3.0.4,59.72802247664614,
Corneille and Mierop,"Dans cette tâche, la créature ciblée est Zorua:","Ainsi, chaque fois que Zorua (son nom ou sa photo) apparaît à l'écran, appuyez sur la barre d'espace le plus rapidement possible. Appuyez sur la barre d'espace chaque fois que vous voyez une image de Zorua ou le mot ZORUA.

Appuyez sur la barre d'espace pour démarrer la tâche.",target4,stimuli/t4.jpg,64,33,stimuli/filler2.jpg,filler,False,None,,,,,,,,,,,,,,0,0,0,0,,,,,0,0,0,3,0,32,32,32,,,,,,,,,,,,,,,,,,,,,,,,,,,,,,,,,,,,,,,,,,,,,,,,,,,,,CS1_USpos,None,1,,,,,,,,,,,,,,,,,,20,male,64,n,2019_Dec_18_1412,ec_RRR,3.0.4,59.72802247664614,
Corneille and Mierop,"Dans cette tâche, la créature ciblée est Zorua:","Ainsi, chaque fois que Zorua (son nom ou sa photo) apparaît à l'écran, appuyez sur la barre d'espace le plus rapidement possible. Appuyez sur la barre d'espace chaque fois que vous voyez une image de Zorua ou le mot ZORUA.

Appuyez sur la barre d'espace pour démarrer la tâche.",target4,stimuli/t4.jpg,64,34,stimuli/target4_7.jpg,target,True,space,,,,,,,,,,,,,,0,0,0,0,,,,,0,0,0,3,0,33,33,33,,,,,,,,,,,,,,,,,,,,,,,,,,,,,,,,,,,,,,,,,,,,,,,,,,,,,CS1_USpos,space,1,0.975475400002324,,,,,,,,,,,,,,,,,20,male,64,n,2019_Dec_18_1412,ec_RRR,3.0.4,59.72802247664614,
Corneille and Mierop,"Dans cette tâche, la créature ciblée est Zorua:","Ainsi, chaque fois que Zorua (son nom ou sa photo) apparaît à l'écran, appuyez sur la barre d'espace le plus rapidement possible. Appuyez sur la barre d'espace chaque fois que vous voyez une image de Zorua ou le mot ZORUA.

Appuyez sur la barre d'espace pour démarrer la tâche.",target4,stimuli/t4.jpg,64,35,stimuli/filler21.jpg,filler,False,None,,,,,,,,,,,,,,0,0,0,0,,,,,0,0,0,3,0,34,34,34,,,,,,,,,,,,,,,,,,,,,,,,,,,,,,,,,,,,,,,,,,,,,,,,,,,,,CS1_USpos,None,1,,,,,,,,,,,,,,,,,,20,male,64,n,2019_Dec_18_1412,ec_RRR,3.0.4,59.72802247664614,
Corneille and Mierop,"Dans cette tâche, la créature ciblée est Zorua:","Ainsi, chaque fois que Zorua (son nom ou sa photo) apparaît à l'écran, appuyez sur la barre d'espace le plus rapidement possible. Appuyez sur la barre d'espace chaque fois que vous voyez une image de Zorua ou le mot ZORUA.

Appuyez sur la barre d'espace pour démarrer la tâche.",target4,stimuli/t4.jpg,64,36,stimuli/filler24.jpg,filler,False,None,,,,,,,,,,,,,,0,0,0,0,,,,,0,0,0,3,0,35,35,35,,,,,,,,,,,,,,,,,,,,,,,,,,,,,,,,,,,,,,,,,,,,,,,,,,,,,CS1_USpos,None,1,,,,,,,,,,,,,,,,,,20,male,64,n,2019_Dec_18_1412,ec_RRR,3.0.4,59.72802247664614,
Corneille and Mierop,"Dans cette tâche, la créature ciblée est Zorua:","Ainsi, chaque fois que Zorua (son nom ou sa photo) apparaît à l'écran, appuyez sur la barre d'espace le plus rapidement possible. Appuyez sur la barre d'espace chaque fois que vous voyez une image de Zorua ou le mot ZORUA.

Appuyez sur la barre d'espace pour démarrer la tâche.",target4,stimuli/t4.jpg,64,37,stimuli/filler31.jpg,filler,False,None,,,,,,,,,,,,,,0,0,0,0,,,,,0,0,0,3,0,36,36,36,,,,,,,,,,,,,,,,,,,,,,,,,,,,,,,,,,,,,,,,,,,,,,,,,,,,,CS1_USpos,None,1,,,,,,,,,,,,,,,,,,20,male,64,n,2019_Dec_18_1412,ec_RRR,3.0.4,59.72802247664614,
Corneille and Mierop,"Dans cette tâche, la créature ciblée est Zorua:","Ainsi, chaque fois que Zorua (son nom ou sa photo) apparaît à l'écran, appuyez sur la barre d'espace le plus rapidement possible. Appuyez sur la barre d'espace chaque fois que vous voyez une image de Zorua ou le mot ZORUA.

Appuyez sur la barre d'espace pour démarrer la tâche.",target4,stimuli/t4.jpg,64,38,stimuli/filler27.jpg,filler,False,None,,,,,,,,,,,,,,0,0,0,0,,,,,0,0,0,3,0,37,37,37,,,,,,,,,,,,,,,,,,,,,,,,,,,,,,,,,,,,,,,,,,,,,,,,,,,,,CS1_USpos,None,1,,,,,,,,,,,,,,,,,,20,male,64,n,2019_Dec_18_1412,ec_RRR,3.0.4,59.72802247664614,
Corneille and Mierop,"Dans cette tâche, la créature ciblée est Zorua:","Ainsi, chaque fois que Zorua (son nom ou sa photo) apparaît à l'écran, appuyez sur la barre d'espace le plus rapidement possible. Appuyez sur la barre d'espace chaque fois que vous voyez une image de Zorua ou le mot ZORUA.

Appuyez sur la barre d'espace pour démarrer la tâche.",target4,stimuli/t4.jpg,64,39,stimuli/filler33.jpg,filler,False,None,,,,,,,,,,,,,,0,0,0,0,,,,,0,0,0,3,0,38,38,38,,,,,,,,,,,,,,,,,,,,,,,,,,,,,,,,,,,,,,,,,,,,,,,,,,,,,CS1_USpos,None,1,,,,,,,,,,,,,,,,,,20,male,64,n,2019_Dec_18_1412,ec_RRR,3.0.4,59.72802247664614,
Corneille and Mierop,"Dans cette tâche, la créature ciblée est Zorua:","Ainsi, chaque fois que Zorua (son nom ou sa photo) apparaît à l'écran, appuyez sur la barre d'espace le plus rapidement possible. Appuyez sur la barre d'espace chaque fois que vous voyez une image de Zorua ou le mot ZORUA.

Appuyez sur la barre d'espace pour démarrer la tâche.",target4,stimuli/t4.jpg,64,40,stimuli/blank.jpg,blank,False,None,,,,,,,,,,,,,,0,0,0,0,,,,,0,0,0,3,0,39,39,39,,,,,,,,,,,,,,,,,,,,,,,,,,,,,,,,,,,,,,,,,,,,,,,,,,,,,CS1_USpos,None,1,,,,,,,,,,,,,,,,,,20,male,64,n,2019_Dec_18_1412,ec_RRR,3.0.4,59.72802247664614,
Corneille and Mierop,"Dans cette tâche, la créature ciblée est Zorua:","Ainsi, chaque fois que Zorua (son nom ou sa photo) apparaît à l'écran, appuyez sur la barre d'espace le plus rapidement possible. Appuyez sur la barre d'espace chaque fois que vous voyez une image de Zorua ou le mot ZORUA.

Appuyez sur la barre d'espace pour démarrer la tâche.",target4,stimuli/t4.jpg,64,41,stimuli/cs2_neg1.jpg,CSUS,False,None,,,,,,,,,,,,,,0,0,0,0,,,,,0,0,0,3,0,40,40,40,,,,,,,,,,,,,,,,,,,,,,,,,,,,,,,,,,,,,,,,,,,,,,,,,,,,,CS1_USpos,None,1,,,,,,,,,,,,,,,,,,20,male,64,n,2019_Dec_18_1412,ec_RRR,3.0.4,59.72802247664614,
Corneille and Mierop,"Dans cette tâche, la créature ciblée est Zorua:","Ainsi, chaque fois que Zorua (son nom ou sa photo) apparaît à l'écran, appuyez sur la barre d'espace le plus rapidement possible. Appuyez sur la barre d'espace chaque fois que vous voyez une image de Zorua ou le mot ZORUA.

Appuyez sur la barre d'espace pour démarrer la tâche.",target4,stimuli/t4.jpg,64,42,stimuli/blank.jpg,blank,False,None,,,,,,,,,,,,,,0,0,0,0,,,,,0,0,0,3,0,41,41,41,,,,,,,,,,,,,,,,,,,,,,,,,,,,,,,,,,,,,,,,,,,,,,,,,,,,,CS1_USpos,None,1,,,,,,,,,,,,,,,,,,20,male,64,n,2019_Dec_18_1412,ec_RRR,3.0.4,59.72802247664614,
Corneille and Mierop,"Dans cette tâche, la créature ciblée est Zorua:","Ainsi, chaque fois que Zorua (son nom ou sa photo) apparaît à l'écran, appuyez sur la barre d'espace le plus rapidement possible. Appuyez sur la barre d'espace chaque fois que vous voyez une image de Zorua ou le mot ZORUA.

Appuyez sur la barre d'espace pour démarrer la tâche.",target4,stimuli/t4.jpg,64,43,stimuli/filler9.jpg,filler,False,None,,,,,,,,,,,,,,0,0,0,0,,,,,0,0,0,3,0,42,42,42,,,,,,,,,,,,,,,,,,,,,,,,,,,,,,,,,,,,,,,,,,,,,,,,,,,,,CS1_USpos,None,1,,,,,,,,,,,,,,,,,,20,male,64,n,2019_Dec_18_1412,ec_RRR,3.0.4,59.72802247664614,
Corneille and Mierop,"Dans cette tâche, la créature ciblée est Zorua:","Ainsi, chaque fois que Zorua (son nom ou sa photo) apparaît à l'écran, appuyez sur la barre d'espace le plus rapidement possible. Appuyez sur la barre d'espace chaque fois que vous voyez une image de Zorua ou le mot ZORUA.

Appuyez sur la barre d'espace pour démarrer la tâche.",target4,stimuli/t4.jpg,64,44,stimuli/filler6.jpg,filler,False,None,,,,,,,,,,,,,,0,0,0,0,,,,,0,0,0,3,0,43,43,43,,,,,,,,,,,,,,,,,,,,,,,,,,,,,,,,,,,,,,,,,,,,,,,,,,,,,CS1_USpos,None,1,,,,,,,,,,,,,,,,,,20,male,64,n,2019_Dec_18_1412,ec_RRR,3.0.4,59.72802247664614,
Corneille and Mierop,"Dans cette tâche, la créature ciblée est Zorua:","Ainsi, chaque fois que Zorua (son nom ou sa photo) apparaît à l'écran, appuyez sur la barre d'espace le plus rapidement possible. Appuyez sur la barre d'espace chaque fois que vous voyez une image de Zorua ou le mot ZORUA.

Appuyez sur la barre d'espace pour démarrer la tâche.",target4,stimuli/t4.jpg,64,45,stimuli/filler51.jpg,filler,False,None,,,,,,,,,,,,,,0,0,0,0,,,,,0,0,0,3,0,44,44,44,,,,,,,,,,,,,,,,,,,,,,,,,,,,,,,,,,,,,,,,,,,,,,,,,,,,,CS1_USpos,None,1,,,,,,,,,,,,,,,,,,20,male,64,n,2019_Dec_18_1412,ec_RRR,3.0.4,59.72802247664614,
Corneille and Mierop,"Dans cette tâche, la créature ciblée est Zorua:","Ainsi, chaque fois que Zorua (son nom ou sa photo) apparaît à l'écran, appuyez sur la barre d'espace le plus rapidement possible. Appuyez sur la barre d'espace chaque fois que vous voyez une image de Zorua ou le mot ZORUA.

Appuyez sur la barre d'espace pour démarrer la tâche.",target4,stimuli/t4.jpg,64,46,stimuli/filler5.jpg,filler,False,None,,,,,,,,,,,,,,0,0,0,0,,,,,0,0,0,3,0,45,45,45,,,,,,,,,,,,,,,,,,,,,,,,,,,,,,,,,,,,,,,,,,,,,,,,,,,,,CS1_USpos,None,1,,,,,,,,,,,,,,,,,,20,male,64,n,2019_Dec_18_1412,ec_RRR,3.0.4,59.72802247664614,
Corneille and Mierop,"Dans cette tâche, la créature ciblée est Zorua:","Ainsi, chaque fois que Zorua (son nom ou sa photo) apparaît à l'écran, appuyez sur la barre d'espace le plus rapidement possible. Appuyez sur la barre d'espace chaque fois que vous voyez une image de Zorua ou le mot ZORUA.

Appuyez sur la barre d'espace pour démarrer la tâche.",target4,stimuli/t4.jpg,64,47,stimuli/target4_2.jpg,target,True,space,,,,,,,,,,,,,,0,0,0,0,,,,,0,0,0,3,0,46,46,46,,,,,,,,,,,,,,,,,,,,,,,,,,,,,,,,,,,,,,,,,,,,,,,,,,,,,CS1_USpos,space,1,0.692986000001838,,,,,,,,,,,,,,,,,20,male,64,n,2019_Dec_18_1412,ec_RRR,3.0.4,59.72802247664614,
Corneille and Mierop,"Dans cette tâche, la créature ciblée est Zorua:","Ainsi, chaque fois que Zorua (son nom ou sa photo) apparaît à l'écran, appuyez sur la barre d'espace le plus rapidement possible. Appuyez sur la barre d'espace chaque fois que vous voyez une image de Zorua ou le mot ZORUA.

Appuyez sur la barre d'espace pour démarrer la tâche.",target4,stimuli/t4.jpg,64,48,stimuli/filler28.jpg,filler,False,None,,,,,,,,,,,,,,0,0,0,0,,,,,0,0,0,3,0,47,47,47,,,,,,,,,,,,,,,,,,,,,,,,,,,,,,,,,,,,,,,,,,,,,,,,,,,,,CS1_USpos,None,1,,,,,,,,,,,,,,,,,,20,male,64,n,2019_Dec_18_1412,ec_RRR,3.0.4,59.72802247664614,
Corneille and Mierop,"Dans cette tâche, la créature ciblée est Zorua:","Ainsi, chaque fois que Zorua (son nom ou sa photo) apparaît à l'écran, appuyez sur la barre d'espace le plus rapidement possible. Appuyez sur la barre d'espace chaque fois que vous voyez une image de Zorua ou le mot ZORUA.

Appuyez sur la barre d'espace pour démarrer la tâche.",target4,stimuli/t4.jpg,64,49,stimuli/filler45.jpg,filler,False,None,,,,,,,,,,,,,,0,0,0,0,,,,,0,0,0,3,0,48,48,48,,,,,,,,,,,,,,,,,,,,,,,,,,,,,,,,,,,,,,,,,,,,,,,,,,,,,CS1_USpos,None,1,,,,,,,,,,,,,,,,,,20,male,64,n,2019_Dec_18_1412,ec_RRR,3.0.4,59.72802247664614,
Corneille and Mierop,"Dans cette tâche, la créature ciblée est Zorua:","Ainsi, chaque fois que Zorua (son nom ou sa photo) apparaît à l'écran, appuyez sur la barre d'espace le plus rapidement possible. Appuyez sur la barre d'espace chaque fois que vous voyez une image de Zorua ou le mot ZORUA.

Appuyez sur la barre d'espace pour démarrer la tâche.",target4,stimuli/t4.jpg,64,50,stimuli/blank.jpg,blank,False,None,,,,,,,,,,,,,,0,0,0,0,,,,,0,0,0,3,0,49,49,49,,,,,,,,,,,,,,,,,,,,,,,,,,,,,,,,,,,,,,,,,,,,,,,,,,,,,CS1_USpos,None,1,,,,,,,,,,,,,,,,,,20,male,64,n,2019_Dec_18_1412,ec_RRR,3.0.4,59.72802247664614,
Corneille and Mierop,"Dans cette tâche, la créature ciblée est Zorua:","Ainsi, chaque fois que Zorua (son nom ou sa photo) apparaît à l'écran, appuyez sur la barre d'espace le plus rapidement possible. Appuyez sur la barre d'espace chaque fois que vous voyez une image de Zorua ou le mot ZORUA.

Appuyez sur la barre d'espace pour démarrer la tâche.",target4,stimuli/t4.jpg,64,51,stimuli/cs1_pos19.jpg,CSUS,False,None,,,,,,,,,,,,,,0,0,0,0,,,,,0,0,0,3,0,50,50,50,,,,,,,,,,,,,,,,,,,,,,,,,,,,,,,,,,,,,,,,,,,,,,,,,,,,,CS1_USpos,None,1,,,,,,,,,,,,,,,,,,20,male,64,n,2019_Dec_18_1412,ec_RRR,3.0.4,59.72802247664614,
Corneille and Mierop,"Dans cette tâche, la créature ciblée est Zorua:","Ainsi, chaque fois que Zorua (son nom ou sa photo) apparaît à l'écran, appuyez sur la barre d'espace le plus rapidement possible. Appuyez sur la barre d'espace chaque fois que vous voyez une image de Zorua ou le mot ZORUA.

Appuyez sur la barre d'espace pour démarrer la tâche.",target4,stimuli/t4.jpg,64,52,stimuli/blank.jpg,blank,False,None,,,,,,,,,,,,,,0,0,0,0,,,,,0,0,0,3,0,51,51,51,,,,,,,,,,,,,,,,,,,,,,,,,,,,,,,,,,,,,,,,,,,,,,,,,,,,,CS1_USpos,None,1,,,,,,,,,,,,,,,,,,20,male,64,n,2019_Dec_18_1412,ec_RRR,3.0.4,59.72802247664614,
Corneille and Mierop,"Dans cette tâche, la créature ciblée est Zorua:","Ainsi, chaque fois que Zorua (son nom ou sa photo) apparaît à l'écran, appuyez sur la barre d'espace le plus rapidement possible. Appuyez sur la barre d'espace chaque fois que vous voyez une image de Zorua ou le mot ZORUA.

Appuyez sur la barre d'espace pour démarrer la tâche.",target4,stimuli/t4.jpg,64,53,stimuli/target4_5.jpg,target,True,space,,,,,,,,,,,,,,0,0,0,0,,,,,0,0,0,3,0,52,52,52,,,,,,,,,,,,,,,,,,,,,,,,,,,,,,,,,,,,,,,,,,,,,,,,,,,,,CS1_USpos,space,1,0.58156240000244,,,,,,,,,,,,,,,,,20,male,64,n,2019_Dec_18_1412,ec_RRR,3.0.4,59.72802247664614,
Corneille and Mierop,"Dans cette tâche, la créature ciblée est Zorua:","Ainsi, chaque fois que Zorua (son nom ou sa photo) apparaît à l'écran, appuyez sur la barre d'espace le plus rapidement possible. Appuyez sur la barre d'espace chaque fois que vous voyez une image de Zorua ou le mot ZORUA.

Appuyez sur la barre d'espace pour démarrer la tâche.",target4,stimuli/t4.jpg,64,54,stimuli/filler16.jpg,filler,False,None,,,,,,,,,,,,,,0,0,0,0,,,,,0,0,0,3,0,53,53,53,,,,,,,,,,,,,,,,,,,,,,,,,,,,,,,,,,,,,,,,,,,,,,,,,,,,,CS1_USpos,None,1,,,,,,,,,,,,,,,,,,20,male,64,n,2019_Dec_18_1412,ec_RRR,3.0.4,59.72802247664614,
Corneille and Mierop,"Dans cette tâche, la créature ciblée est Zorua:","Ainsi, chaque fois que Zorua (son nom ou sa photo) apparaît à l'écran, appuyez sur la barre d'espace le plus rapidement possible. Appuyez sur la barre d'espace chaque fois que vous voyez une image de Zorua ou le mot ZORUA.

Appuyez sur la barre d'espace pour démarrer la tâche.",target4,stimuli/t4.jpg,64,55,stimuli/filler49.jpg,filler,False,None,,,,,,,,,,,,,,0,0,0,0,,,,,0,0,0,3,0,54,54,54,,,,,,,,,,,,,,,,,,,,,,,,,,,,,,,,,,,,,,,,,,,,,,,,,,,,,CS1_USpos,None,1,,,,,,,,,,,,,,,,,,20,male,64,n,2019_Dec_18_1412,ec_RRR,3.0.4,59.72802247664614,
Corneille and Mierop,"Dans cette tâche, la créature ciblée est Zorua:","Ainsi, chaque fois que Zorua (son nom ou sa photo) apparaît à l'écran, appuyez sur la barre d'espace le plus rapidement possible. Appuyez sur la barre d'espace chaque fois que vous voyez une image de Zorua ou le mot ZORUA.

Appuyez sur la barre d'espace pour démarrer la tâche.",target4,stimuli/t4.jpg,64,56,stimuli/filler8.jpg,filler,False,None,,,,,,,,,,,,,,0,0,0,0,,,,,0,0,0,3,0,55,55,55,,,,,,,,,,,,,,,,,,,,,,,,,,,,,,,,,,,,,,,,,,,,,,,,,,,,,CS1_USpos,None,1,,,,,,,,,,,,,,,,,,20,male,64,n,2019_Dec_18_1412,ec_RRR,3.0.4,59.72802247664614,
Corneille and Mierop,"Dans cette tâche, la créature ciblée est Zorua:","Ainsi, chaque fois que Zorua (son nom ou sa photo) apparaît à l'écran, appuyez sur la barre d'espace le plus rapidement possible. Appuyez sur la barre d'espace chaque fois que vous voyez une image de Zorua ou le mot ZORUA.

Appuyez sur la barre d'espace pour démarrer la tâche.",target4,stimuli/t4.jpg,64,57,stimuli/filler52.jpg,filler,False,None,,,,,,,,,,,,,,0,0,0,0,,,,,0,0,0,3,0,56,56,56,,,,,,,,,,,,,,,,,,,,,,,,,,,,,,,,,,,,,,,,,,,,,,,,,,,,,CS1_USpos,None,1,,,,,,,,,,,,,,,,,,20,male,64,n,2019_Dec_18_1412,ec_RRR,3.0.4,59.72802247664614,
Corneille and Mierop,"Dans cette tâche, la créature ciblée est Zorua:","Ainsi, chaque fois que Zorua (son nom ou sa photo) apparaît à l'écran, appuyez sur la barre d'espace le plus rapidement possible. Appuyez sur la barre d'espace chaque fois que vous voyez une image de Zorua ou le mot ZORUA.

Appuyez sur la barre d'espace pour démarrer la tâche.",target4,stimuli/t4.jpg,64,58,stimuli/target4_3.jpg,target,True,space,,,,,,,,,,,,,,0,0,0,0,,,,,0,0,0,3,0,57,57,57,,,,,,,,,,,,,,,,,,,,,,,,,,,,,,,,,,,,,,,,,,,,,,,,,,,,,CS1_USpos,space,1,0.6007089999984601,,,,,,,,,,,,,,,,,20,male,64,n,2019_Dec_18_1412,ec_RRR,3.0.4,59.72802247664614,
Corneille and Mierop,"Dans cette tâche, la créature ciblée est Zorua:","Ainsi, chaque fois que Zorua (son nom ou sa photo) apparaît à l'écran, appuyez sur la barre d'espace le plus rapidement possible. Appuyez sur la barre d'espace chaque fois que vous voyez une image de Zorua ou le mot ZORUA.

Appuyez sur la barre d'espace pour démarrer la tâche.",target4,stimuli/t4.jpg,64,59,stimuli/filler41.jpg,filler,False,None,,,,,,,,,,,,,,0,0,0,0,,,,,0,0,0,3,0,58,58,58,,,,,,,,,,,,,,,,,,,,,,,,,,,,,,,,,,,,,,,,,,,,,,,,,,,,,CS1_USpos,None,1,,,,,,,,,,,,,,,,,,20,male,64,n,2019_Dec_18_1412,ec_RRR,3.0.4,59.72802247664614,
Corneille and Mierop,"Dans cette tâche, la créature ciblée est Zorua:","Ainsi, chaque fois que Zorua (son nom ou sa photo) apparaît à l'écran, appuyez sur la barre d'espace le plus rapidement possible. Appuyez sur la barre d'espace chaque fois que vous voyez une image de Zorua ou le mot ZORUA.

Appuyez sur la barre d'espace pour démarrer la tâche.",target4,stimuli/t4.jpg,64,60,stimuli/blank.jpg,blank,False,None,,,,,,,,,,,,,,0,0,0,0,,,,,0,0,0,3,0,59,59,59,,,,,,,,,,,,,,,,,,,,,,,,,,,,,,,,,,,,,,,,,,,,,,,,,,,,,CS1_USpos,None,1,,,,,,,,,,,,,,,,,,20,male,64,n,2019_Dec_18_1412,ec_RRR,3.0.4,59.72802247664614,
Corneille and Mierop,"Dans cette tâche, la créature ciblée est Zorua:","Ainsi, chaque fois que Zorua (son nom ou sa photo) apparaît à l'écran, appuyez sur la barre d'espace le plus rapidement possible. Appuyez sur la barre d'espace chaque fois que vous voyez une image de Zorua ou le mot ZORUA.

Appuyez sur la barre d'espace pour démarrer la tâche.",target4,stimuli/t4.jpg,64,61,stimuli/cs2_neg9.jpg,CSUS,False,None,,,,,,,,,,,,,,0,0,0,0,,,,,0,0,0,3,0,60,60,60,,,,,,,,,,,,,,,,,,,,,,,,,,,,,,,,,,,,,,,,,,,,,,,,,,,,,CS1_USpos,None,1,,,,,,,,,,,,,,,,,,20,male,64,n,2019_Dec_18_1412,ec_RRR,3.0.4,59.72802247664614,
Corneille and Mierop,"Dans cette tâche, la créature ciblée est Zorua:","Ainsi, chaque fois que Zorua (son nom ou sa photo) apparaît à l'écran, appuyez sur la barre d'espace le plus rapidement possible. Appuyez sur la barre d'espace chaque fois que vous voyez une image de Zorua ou le mot ZORUA.

Appuyez sur la barre d'espace pour démarrer la tâche.",target4,stimuli/t4.jpg,64,62,stimuli/blank.jpg,blank,False,None,,,,,,,,,,,,,,0,0,0,0,,,,,0,0,0,3,0,61,61,61,,,,,,,,,,,,,,,,,,,,,,,,,,,,,,,,,,,,,,,,,,,,,,,,,,,,,CS1_USpos,None,1,,,,,,,,,,,,,,,,,,20,male,64,n,2019_Dec_18_1412,ec_RRR,3.0.4,59.72802247664614,
Corneille and Mierop,"Dans cette tâche, la créature ciblée est Zorua:","Ainsi, chaque fois que Zorua (son nom ou sa photo) apparaît à l'écran, appuyez sur la barre d'espace le plus rapidement possible. Appuyez sur la barre d'espace chaque fois que vous voyez une image de Zorua ou le mot ZORUA.

Appuyez sur la barre d'espace pour démarrer la tâche.",target4,stimuli/t4.jpg,64,63,stimuli/filler19.jpg,filler,False,None,,,,,,,,,,,,,,0,0,0,0,,,,,0,0,0,3,0,62,62,62,,,,,,,,,,,,,,,,,,,,,,,,,,,,,,,,,,,,,,,,,,,,,,,,,,,,,CS1_USpos,None,1,,,,,,,,,,,,,,,,,,20,male,64,n,2019_Dec_18_1412,ec_RRR,3.0.4,59.72802247664614,
Corneille and Mierop,"Dans cette tâche, la créature ciblée est Zorua:","Ainsi, chaque fois que Zorua (son nom ou sa photo) apparaît à l'écran, appuyez sur la barre d'espace le plus rapidement possible. Appuyez sur la barre d'espace chaque fois que vous voyez une image de Zorua ou le mot ZORUA.

Appuyez sur la barre d'espace pour démarrer la tâche.",target4,stimuli/t4.jpg,64,64,stimuli/filler22.jpg,filler,False,None,,,,,,,,,,,,,,0,0,0,0,,,,,0,0,0,3,0,63,63,63,,,,,,,,,,,,,,,,,,,,,,,,,,,,,,,,,,,,,,,,,,,,,,,,,,,,,CS1_USpos,None,1,,,,,,,,,,,,,,,,,,20,male,64,n,2019_Dec_18_1412,ec_RRR,3.0.4,59.72802247664614,
Corneille and Mierop,"Dans cette tâche, la créature ciblée est Zorua:","Ainsi, chaque fois que Zorua (son nom ou sa photo) apparaît à l'écran, appuyez sur la barre d'espace le plus rapidement possible. Appuyez sur la barre d'espace chaque fois que vous voyez une image de Zorua ou le mot ZORUA.

Appuyez sur la barre d'espace pour démarrer la tâche.",target4,stimuli/t4.jpg,64,65,stimuli/filler1.jpg,filler,False,None,,,,,,,,,,,,,,0,0,0,0,,,,,0,0,0,3,0,64,64,64,,,,,,,,,,,,,,,,,,,,,,,,,,,,,,,,,,,,,,,,,,,,,,,,,,,,,CS1_USpos,None,1,,,,,,,,,,,,,,,,,,20,male,64,n,2019_Dec_18_1412,ec_RRR,3.0.4,59.72802247664614,
Corneille and Mierop,"Dans cette tâche, la créature ciblée est Zorua:","Ainsi, chaque fois que Zorua (son nom ou sa photo) apparaît à l'écran, appuyez sur la barre d'espace le plus rapidement possible. Appuyez sur la barre d'espace chaque fois que vous voyez une image de Zorua ou le mot ZORUA.

Appuyez sur la barre d'espace pour démarrer la tâche.",target4,stimuli/t4.jpg,64,66,stimuli/filler35.jpg,filler,False,None,,,,,,,,,,,,,,0,0,0,0,,,,,0,0,0,3,0,65,65,65,,,,,,,,,,,,,,,,,,,,,,,,,,,,,,,,,,,,,,,,,,,,,,,,,,,,,CS1_USpos,None,1,,,,,,,,,,,,,,,,,,20,male,64,n,2019_Dec_18_1412,ec_RRR,3.0.4,59.72802247664614,
Corneille and Mierop,"Dans cette tâche, la créature ciblée est Zorua:","Ainsi, chaque fois que Zorua (son nom ou sa photo) apparaît à l'écran, appuyez sur la barre d'espace le plus rapidement possible. Appuyez sur la barre d'espace chaque fois que vous voyez une image de Zorua ou le mot ZORUA.

Appuyez sur la barre d'espace pour démarrer la tâche.",target4,stimuli/t4.jpg,64,67,stimuli/filler15.jpg,filler,False,None,,,,,,,,,,,,,,0,0,0,0,,,,,0,0,0,3,0,66,66,66,,,,,,,,,,,,,,,,,,,,,,,,,,,,,,,,,,,,,,,,,,,,,,,,,,,,,CS1_USpos,None,1,,,,,,,,,,,,,,,,,,20,male,64,n,2019_Dec_18_1412,ec_RRR,3.0.4,59.72802247664614,
Corneille and Mierop,"Dans cette tâche, la créature ciblée est Zorua:","Ainsi, chaque fois que Zorua (son nom ou sa photo) apparaît à l'écran, appuyez sur la barre d'espace le plus rapidement possible. Appuyez sur la barre d'espace chaque fois que vous voyez une image de Zorua ou le mot ZORUA.

Appuyez sur la barre d'espace pour démarrer la tâche.",target4,stimuli/t4.jpg,64,68,stimuli/filler30.jpg,filler,False,None,,,,,,,,,,,,,,0,0,0,0,,,,,0,0,0,3,0,67,67,67,,,,,,,,,,,,,,,,,,,,,,,,,,,,,,,,,,,,,,,,,,,,,,,,,,,,,CS1_USpos,None,1,,,,,,,,,,,,,,,,,,20,male,64,n,2019_Dec_18_1412,ec_RRR,3.0.4,59.72802247664614,
Corneille and Mierop,"Dans cette tâche, la créature ciblée est Zorua:","Ainsi, chaque fois que Zorua (son nom ou sa photo) apparaît à l'écran, appuyez sur la barre d'espace le plus rapidement possible. Appuyez sur la barre d'espace chaque fois que vous voyez une image de Zorua ou le mot ZORUA.

Appuyez sur la barre d'espace pour démarrer la tâche.",target4,stimuli/t4.jpg,64,69,stimuli/filler47.jpg,filler,False,None,,,,,,,,,,,,,,0,0,0,0,,,,,0,0,0,3,0,68,68,68,,,,,,,,,,,,,,,,,,,,,,,,,,,,,,,,,,,,,,,,,,,,,,,,,,,,,CS1_USpos,None,1,,,,,,,,,,,,,,,,,,20,male,64,n,2019_Dec_18_1412,ec_RRR,3.0.4,59.72802247664614,
Corneille and Mierop,"Dans cette tâche, la créature ciblée est Zorua:","Ainsi, chaque fois que Zorua (son nom ou sa photo) apparaît à l'écran, appuyez sur la barre d'espace le plus rapidement possible. Appuyez sur la barre d'espace chaque fois que vous voyez une image de Zorua ou le mot ZORUA.

Appuyez sur la barre d'espace pour démarrer la tâche.",target4,stimuli/t4.jpg,64,70,stimuli/blank.jpg,blank,False,None,,,,,,,,,,,,,,0,0,0,0,,,,,0,0,0,3,0,69,69,69,,,,,,,,,,,,,,,,,,,,,,,,,,,,,,,,,,,,,,,,,,,,,,,,,,,,,CS1_USpos,None,1,,,,,,,,,,,,,,,,,,20,male,64,n,2019_Dec_18_1412,ec_RRR,3.0.4,59.72802247664614,
Corneille and Mierop,"Dans cette tâche, la créature ciblée est Zorua:","Ainsi, chaque fois que Zorua (son nom ou sa photo) apparaît à l'écran, appuyez sur la barre d'espace le plus rapidement possible. Appuyez sur la barre d'espace chaque fois que vous voyez une image de Zorua ou le mot ZORUA.

Appuyez sur la barre d'espace pour démarrer la tâche.",target4,stimuli/t4.jpg,64,71,stimuli/cs1_pos15.jpg,CSUS,False,None,,,,,,,,,,,,,,0,0,0,0,,,,,0,0,0,3,0,70,70,70,,,,,,,,,,,,,,,,,,,,,,,,,,,,,,,,,,,,,,,,,,,,,,,,,,,,,CS1_USpos,None,1,,,,,,,,,,,,,,,,,,20,male,64,n,2019_Dec_18_1412,ec_RRR,3.0.4,59.72802247664614,
Corneille and Mierop,"Dans cette tâche, la créature ciblée est Zorua:","Ainsi, chaque fois que Zorua (son nom ou sa photo) apparaît à l'écran, appuyez sur la barre d'espace le plus rapidement possible. Appuyez sur la barre d'espace chaque fois que vous voyez une image de Zorua ou le mot ZORUA.

Appuyez sur la barre d'espace pour démarrer la tâche.",target4,stimuli/t4.jpg,64,72,stimuli/blank.jpg,blank,False,None,,,,,,,,,,,,,,0,0,0,0,,,,,0,0,0,3,0,71,71,71,,,,,,,,,,,,,,,,,,,,,,,,,,,,,,,,,,,,,,,,,,,,,,,,,,,,,CS1_USpos,None,1,,,,,,,,,,,,,,,,,,20,male,64,n,2019_Dec_18_1412,ec_RRR,3.0.4,59.72802247664614,
Corneille and Mierop,"Dans cette tâche, la créature ciblée est Zorua:","Ainsi, chaque fois que Zorua (son nom ou sa photo) apparaît à l'écran, appuyez sur la barre d'espace le plus rapidement possible. Appuyez sur la barre d'espace chaque fois que vous voyez une image de Zorua ou le mot ZORUA.

Appuyez sur la barre d'espace pour démarrer la tâche.",target4,stimuli/t4.jpg,64,73,stimuli/target4_8.jpg,target,True,space,,,,,,,,,,,,,,0,0,0,0,,,,,0,0,0,3,0,72,72,72,,,,,,,,,,,,,,,,,,,,,,,,,,,,,,,,,,,,,,,,,,,,,,,,,,,,,CS1_USpos,space,1,0.6512769000000844,,,,,,,,,,,,,,,,,20,male,64,n,2019_Dec_18_1412,ec_RRR,3.0.4,59.72802247664614,
Corneille and Mierop,"Dans cette tâche, la créature ciblée est Zorua:","Ainsi, chaque fois que Zorua (son nom ou sa photo) apparaît à l'écran, appuyez sur la barre d'espace le plus rapidement possible. Appuyez sur la barre d'espace chaque fois que vous voyez une image de Zorua ou le mot ZORUA.

Appuyez sur la barre d'espace pour démarrer la tâche.",target4,stimuli/t4.jpg,64,74,stimuli/filler23.jpg,filler,False,None,,,,,,,,,,,,,,0,0,0,0,,,,,0,0,0,3,0,73,73,73,,,,,,,,,,,,,,,,,,,,,,,,,,,,,,,,,,,,,,,,,,,,,,,,,,,,,CS1_USpos,None,1,,,,,,,,,,,,,,,,,,20,male,64,n,2019_Dec_18_1412,ec_RRR,3.0.4,59.72802247664614,
Corneille and Mierop,"Dans cette tâche, la créature ciblée est Zorua:","Ainsi, chaque fois que Zorua (son nom ou sa photo) apparaît à l'écran, appuyez sur la barre d'espace le plus rapidement possible. Appuyez sur la barre d'espace chaque fois que vous voyez une image de Zorua ou le mot ZORUA.

Appuyez sur la barre d'espace pour démarrer la tâche.",target4,stimuli/t4.jpg,64,75,stimuli/target4_4.jpg,target,True,space,,,,,,,,,,,,,,0,0,0,0,,,,,0,0,0,3,0,74,74,74,,,,,,,,,,,,,,,,,,,,,,,,,,,,,,,,,,,,,,,,,,,,,,,,,,,,,CS1_USpos,space,1,0.5713716999998724,,,,,,,,,,,,,,,,,20,male,64,n,2019_Dec_18_1412,ec_RRR,3.0.4,59.72802247664614,
Corneille and Mierop,"Dans cette tâche, la créature ciblée est Zorua:","Ainsi, chaque fois que Zorua (son nom ou sa photo) apparaît à l'écran, appuyez sur la barre d'espace le plus rapidement possible. Appuyez sur la barre d'espace chaque fois que vous voyez une image de Zorua ou le mot ZORUA.

Appuyez sur la barre d'espace pour démarrer la tâche.",target4,stimuli/t4.jpg,64,76,stimuli/target4_6.jpg,target,True,space,,,,,,,,,,,,,,0,0,0,0,,,,,0,0,0,3,0,75,75,75,,,,,,,,,,,,,,,,,,,,,,,,,,,,,,,,,,,,,,,,,,,,,,,,,,,,,CS1_USpos,None,0,,,,,,,,,,,,,,,,,,20,male,64,n,2019_Dec_18_1412,ec_RRR,3.0.4,59.72802247664614,
Corneille and Mierop,"Dans cette tâche, la créature ciblée est Zorua:","Ainsi, chaque fois que Zorua (son nom ou sa photo) apparaît à l'écran, appuyez sur la barre d'espace le plus rapidement possible. Appuyez sur la barre d'espace chaque fois que vous voyez une image de Zorua ou le mot ZORUA.

Appuyez sur la barre d'espace pour démarrer la tâche.",target4,stimuli/t4.jpg,64,77,stimuli/filler37.jpg,filler,False,None,,,,,,,,,,,,,,0,0,0,0,,,,,0,0,0,3,0,76,76,76,,,,,,,,,,,,,,,,,,,,,,,,,,,,,,,,,,,,,,,,,,,,,,,,,,,,,CS1_USpos,None,1,,,,,,,,,,,,,,,,,,20,male,64,n,2019_Dec_18_1412,ec_RRR,3.0.4,59.72802247664614,
Corneille and Mierop,"Dans cette tâche, la créature ciblée est Zorua:","Ainsi, chaque fois que Zorua (son nom ou sa photo) apparaît à l'écran, appuyez sur la barre d'espace le plus rapidement possible. Appuyez sur la barre d'espace chaque fois que vous voyez une image de Zorua ou le mot ZORUA.

Appuyez sur la barre d'espace pour démarrer la tâche.",target4,stimuli/t4.jpg,64,78,stimuli/target4_10.jpg,target,True,space,,,,,,,,,,,,,,0,0,0,0,,,,,0,0,0,3,0,77,77,77,,,,,,,,,,,,,,,,,,,,,,,,,,,,,,,,,,,,,,,,,,,,,,,,,,,,,CS1_USpos,space,1,0.4731547000010323,,,,,,,,,,,,,,,,,20,male,64,n,2019_Dec_18_1412,ec_RRR,3.0.4,59.72802247664614,
Corneille and Mierop,"Dans cette tâche, la créature ciblée est Zorua:","Ainsi, chaque fois que Zorua (son nom ou sa photo) apparaît à l'écran, appuyez sur la barre d'espace le plus rapidement possible. Appuyez sur la barre d'espace chaque fois que vous voyez une image de Zorua ou le mot ZORUA.

Appuyez sur la barre d'espace pour démarrer la tâche.",target4,stimuli/t4.jpg,64,79,stimuli/filler10.jpg,filler,False,None,,,,,,,,,,,,,,0,0,0,0,,,,,0,0,0,3,0,78,78,78,,,,,,,,,,,,,,,,,,,,,,,,,,,,,,,,,,,,,,,,,,,,,,,,,,,,,CS1_USpos,None,1,,,,,,,,,,,,,,,,,,20,male,64,n,2019_Dec_18_1412,ec_RRR,3.0.4,59.72802247664614,
Corneille and Mierop,"Dans cette tâche, la créature ciblée est Zorua:","Ainsi, chaque fois que Zorua (son nom ou sa photo) apparaît à l'écran, appuyez sur la barre d'espace le plus rapidement possible. Appuyez sur la barre d'espace chaque fois que vous voyez une image de Zorua ou le mot ZORUA.

Appuyez sur la barre d'espace pour démarrer la tâche.",target4,stimuli/t4.jpg,64,80,stimuli/blank.jpg,blank,False,None,,,,,,,,,,,,,,0,0,0,0,,,,,0,0,0,3,0,79,79,79,,,,,,,,,,,,,,,,,,,,,,,,,,,,,,,,,,,,,,,,,,,,,,,,,,,,,CS1_USpos,None,1,,,,,,,,,,,,,,,,,,20,male,64,n,2019_Dec_18_1412,ec_RRR,3.0.4,59.72802247664614,
Corneille and Mierop,"Dans cette tâche, la créature ciblée est Zorua:","Ainsi, chaque fois que Zorua (son nom ou sa photo) apparaît à l'écran, appuyez sur la barre d'espace le plus rapidement possible. Appuyez sur la barre d'espace chaque fois que vous voyez une image de Zorua ou le mot ZORUA.

Appuyez sur la barre d'espace pour démarrer la tâche.",target4,stimuli/t4.jpg,64,81,stimuli/cs2_neg2.jpg,CSUS,False,None,,,,,,,,,,,,,,0,0,0,0,,,,,0,0,0,3,0,80,80,80,,,,,,,,,,,,,,,,,,,,,,,,,,,,,,,,,,,,,,,,,,,,,,,,,,,,,CS1_USpos,None,1,,,,,,,,,,,,,,,,,,20,male,64,n,2019_Dec_18_1412,ec_RRR,3.0.4,59.72802247664614,
Corneille and Mierop,"Dans cette tâche, la créature ciblée est Zorua:","Ainsi, chaque fois que Zorua (son nom ou sa photo) apparaît à l'écran, appuyez sur la barre d'espace le plus rapidement possible. Appuyez sur la barre d'espace chaque fois que vous voyez une image de Zorua ou le mot ZORUA.

Appuyez sur la barre d'espace pour démarrer la tâche.",target4,stimuli/t4.jpg,64,82,stimuli/blank.jpg,blank,False,None,,,,,,,,,,,,,,0,0,0,0,,,,,0,0,0,3,0,81,81,81,,,,,,,,,,,,,,,,,,,,,,,,,,,,,,,,,,,,,,,,,,,,,,,,,,,,,CS1_USpos,None,1,,,,,,,,,,,,,,,,,,20,male,64,n,2019_Dec_18_1412,ec_RRR,3.0.4,59.72802247664614,
Corneille and Mierop,"Dans cette tâche, la créature ciblée est Zorua:","Ainsi, chaque fois que Zorua (son nom ou sa photo) apparaît à l'écran, appuyez sur la barre d'espace le plus rapidement possible. Appuyez sur la barre d'espace chaque fois que vous voyez une image de Zorua ou le mot ZORUA.

Appuyez sur la barre d'espace pour démarrer la tâche.",target4,stimuli/t4.jpg,64,83,stimuli/filler36.jpg,filler,False,None,,,,,,,,,,,,,,0,0,0,0,,,,,0,0,0,3,0,82,82,82,,,,,,,,,,,,,,,,,,,,,,,,,,,,,,,,,,,,,,,,,,,,,,,,,,,,,CS1_USpos,None,1,,,,,,,,,,,,,,,,,,20,male,64,n,2019_Dec_18_1412,ec_RRR,3.0.4,59.72802247664614,
Corneille and Mierop,"Dans cette tâche, la créature ciblée est Zorua:","Ainsi, chaque fois que Zorua (son nom ou sa photo) apparaît à l'écran, appuyez sur la barre d'espace le plus rapidement possible. Appuyez sur la barre d'espace chaque fois que vous voyez une image de Zorua ou le mot ZORUA.

Appuyez sur la barre d'espace pour démarrer la tâche.",target4,stimuli/t4.jpg,64,84,stimuli/filler11.jpg,filler,False,None,,,,,,,,,,,,,,0,0,0,0,,,,,0,0,0,3,0,83,83,83,,,,,,,,,,,,,,,,,,,,,,,,,,,,,,,,,,,,,,,,,,,,,,,,,,,,,CS1_USpos,None,1,,,,,,,,,,,,,,,,,,20,male,64,n,2019_Dec_18_1412,ec_RRR,3.0.4,59.72802247664614,
Corneille and Mierop,"Dans cette tâche, la créature ciblée est Zorua:","Ainsi, chaque fois que Zorua (son nom ou sa photo) apparaît à l'écran, appuyez sur la barre d'espace le plus rapidement possible. Appuyez sur la barre d'espace chaque fois que vous voyez une image de Zorua ou le mot ZORUA.

Appuyez sur la barre d'espace pour démarrer la tâche.",target4,stimuli/t4.jpg,64,85,stimuli/filler43.jpg,filler,False,None,,,,,,,,,,,,,,0,0,0,0,,,,,0,0,0,3,0,84,84,84,,,,,,,,,,,,,,,,,,,,,,,,,,,,,,,,,,,,,,,,,,,,,,,,,,,,,CS1_USpos,None,1,,,,,,,,,,,,,,,,,,20,male,64,n,2019_Dec_18_1412,ec_RRR,3.0.4,59.72802247664614,
Corneille and Mierop,"Dans cette tâche, la créature ciblée est Zorua:","Ainsi, chaque fois que Zorua (son nom ou sa photo) apparaît à l'écran, appuyez sur la barre d'espace le plus rapidement possible. Appuyez sur la barre d'espace chaque fois que vous voyez une image de Zorua ou le mot ZORUA.

Appuyez sur la barre d'espace pour démarrer la tâche.",target4,stimuli/t4.jpg,64,86,stimuli/filler14.jpg,filler,False,None,,,,,,,,,,,,,,0,0,0,0,,,,,0,0,0,3,0,85,85,85,,,,,,,,,,,,,,,,,,,,,,,,,,,,,,,,,,,,,,,,,,,,,,,,,,,,,CS1_USpos,None,1,,,,,,,,,,,,,,,,,,20,male,64,n,2019_Dec_18_1412,ec_RRR,3.0.4,59.72802247664614,
Corneille and Mierop,"Dans cette tâche, la créature ciblée est Shelmet:","Ainsi, chaque fois que Shelmet (son nom ou sa photo) apparaît à l'écran, appuyez sur la barre d'espace le plus rapidement possible. Appuyez sur la barre d'espace chaque fois que vous voyez une image de Shelmet ou le mot SHELMET.

Appuyez sur la barre d'espace pour démarrer la tâche.",target2,stimuli/t2.jpg,64,1,stimuli/target2_1.jpg,target,True,space,,,,,,,,,,,,,,0,0,0,0,,,,,0,1,1,1,0,0,0,0,,,,,,,,,,,,,,,,,,,,,,,,,,,,,,,,,,,,,,,,,,,,,,,,,,,,,CS1_USpos,space,1,0.6407924000013736,,,,,,,,,,,,,,,,,20,male,64,n,2019_Dec_18_1412,ec_RRR,3.0.4,59.72802247664614,
Corneille and Mierop,"Dans cette tâche, la créature ciblée est Shelmet:","Ainsi, chaque fois que Shelmet (son nom ou sa photo) apparaît à l'écran, appuyez sur la barre d'espace le plus rapidement possible. Appuyez sur la barre d'espace chaque fois que vous voyez une image de Shelmet ou le mot SHELMET.

Appuyez sur la barre d'espace pour démarrer la tâche.",target2,stimuli/t2.jpg,64,2,stimuli/target2_8.jpg,target,True,space,,,,,,,,,,,,,,0,0,0,0,,,,,0,1,1,1,0,1,1,1,,,,,,,,,,,,,,,,,,,,,,,,,,,,,,,,,,,,,,,,,,,,,,,,,,,,,CS1_USpos,None,0,,,,,,,,,,,,,,,,,,20,male,64,n,2019_Dec_18_1412,ec_RRR,3.0.4,59.72802247664614,
Corneille and Mierop,"Dans cette tâche, la créature ciblée est Shelmet:","Ainsi, chaque fois que Shelmet (son nom ou sa photo) apparaît à l'écran, appuyez sur la barre d'espace le plus rapidement possible. Appuyez sur la barre d'espace chaque fois que vous voyez une image de Shelmet ou le mot SHELMET.

Appuyez sur la barre d'espace pour démarrer la tâche.",target2,stimuli/t2.jpg,64,3,stimuli/filler19.jpg,filler,False,None,,,,,,,,,,,,,,0,0,0,0,,,,,0,1,1,1,0,2,2,2,,,,,,,,,,,,,,,,,,,,,,,,,,,,,,,,,,,,,,,,,,,,,,,,,,,,,CS1_USpos,None,1,,,,,,,,,,,,,,,,,,20,male,64,n,2019_Dec_18_1412,ec_RRR,3.0.4,59.72802247664614,
Corneille and Mierop,"Dans cette tâche, la créature ciblée est Shelmet:","Ainsi, chaque fois que Shelmet (son nom ou sa photo) apparaît à l'écran, appuyez sur la barre d'espace le plus rapidement possible. Appuyez sur la barre d'espace chaque fois que vous voyez une image de Shelmet ou le mot SHELMET.

Appuyez sur la barre d'espace pour démarrer la tâche.",target2,stimuli/t2.jpg,64,4,stimuli/filler13.jpg,filler,False,None,,,,,,,,,,,,,,0,0,0,0,,,,,0,1,1,1,0,3,3,3,,,,,,,,,,,,,,,,,,,,,,,,,,,,,,,,,,,,,,,,,,,,,,,,,,,,,CS1_USpos,None,1,,,,,,,,,,,,,,,,,,20,male,64,n,2019_Dec_18_1412,ec_RRR,3.0.4,59.72802247664614,
Corneille and Mierop,"Dans cette tâche, la créature ciblée est Shelmet:","Ainsi, chaque fois que Shelmet (son nom ou sa photo) apparaît à l'écran, appuyez sur la barre d'espace le plus rapidement possible. Appuyez sur la barre d'espace chaque fois que vous voyez une image de Shelmet ou le mot SHELMET.

Appuyez sur la barre d'espace pour démarrer la tâche.",target2,stimuli/t2.jpg,64,5,stimuli/target2_7.jpg,target,True,space,,,,,,,,,,,,,,0,0,0,0,,,,,0,1,1,1,0,4,4,4,,,,,,,,,,,,,,,,,,,,,,,,,,,,,,,,,,,,,,,,,,,,,,,,,,,,,CS1_USpos,space,1,0.7661364000014146,,,,,,,,,,,,,,,,,20,male,64,n,2019_Dec_18_1412,ec_RRR,3.0.4,59.72802247664614,
Corneille and Mierop,"Dans cette tâche, la créature ciblée est Shelmet:","Ainsi, chaque fois que Shelmet (son nom ou sa photo) apparaît à l'écran, appuyez sur la barre d'espace le plus rapidement possible. Appuyez sur la barre d'espace chaque fois que vous voyez une image de Shelmet ou le mot SHELMET.

Appuyez sur la barre d'espace pour démarrer la tâche.",target2,stimuli/t2.jpg,64,6,stimuli/filler36.jpg,filler,False,None,,,,,,,,,,,,,,0,0,0,0,,,,,0,1,1,1,0,5,5,5,,,,,,,,,,,,,,,,,,,,,,,,,,,,,,,,,,,,,,,,,,,,,,,,,,,,,CS1_USpos,None,1,,,,,,,,,,,,,,,,,,20,male,64,n,2019_Dec_18_1412,ec_RRR,3.0.4,59.72802247664614,
Corneille and Mierop,"Dans cette tâche, la créature ciblée est Shelmet:","Ainsi, chaque fois que Shelmet (son nom ou sa photo) apparaît à l'écran, appuyez sur la barre d'espace le plus rapidement possible. Appuyez sur la barre d'espace chaque fois que vous voyez une image de Shelmet ou le mot SHELMET.

Appuyez sur la barre d'espace pour démarrer la tâche.",target2,stimuli/t2.jpg,64,7,stimuli/filler45.jpg,filler,False,None,,,,,,,,,,,,,,0,0,0,0,,,,,0,1,1,1,0,6,6,6,,,,,,,,,,,,,,,,,,,,,,,,,,,,,,,,,,,,,,,,,,,,,,,,,,,,,CS1_USpos,None,1,,,,,,,,,,,,,,,,,,20,male,64,n,2019_Dec_18_1412,ec_RRR,3.0.4,59.72802247664614,
Corneille and Mierop,"Dans cette tâche, la créature ciblée est Shelmet:","Ainsi, chaque fois que Shelmet (son nom ou sa photo) apparaît à l'écran, appuyez sur la barre d'espace le plus rapidement possible. Appuyez sur la barre d'espace chaque fois que vous voyez une image de Shelmet ou le mot SHELMET.

Appuyez sur la barre d'espace pour démarrer la tâche.",target2,stimuli/t2.jpg,64,8,stimuli/filler11.jpg,filler,False,None,,,,,,,,,,,,,,0,0,0,0,,,,,0,1,1,1,0,7,7,7,,,,,,,,,,,,,,,,,,,,,,,,,,,,,,,,,,,,,,,,,,,,,,,,,,,,,CS1_USpos,None,1,,,,,,,,,,,,,,,,,,20,male,64,n,2019_Dec_18_1412,ec_RRR,3.0.4,59.72802247664614,
Corneille and Mierop,"Dans cette tâche, la créature ciblée est Shelmet:","Ainsi, chaque fois que Shelmet (son nom ou sa photo) apparaît à l'écran, appuyez sur la barre d'espace le plus rapidement possible. Appuyez sur la barre d'espace chaque fois que vous voyez une image de Shelmet ou le mot SHELMET.

Appuyez sur la barre d'espace pour démarrer la tâche.",target2,stimuli/t2.jpg,64,9,stimuli/filler39.jpg,filler,False,None,,,,,,,,,,,,,,0,0,0,0,,,,,0,1,1,1,0,8,8,8,,,,,,,,,,,,,,,,,,,,,,,,,,,,,,,,,,,,,,,,,,,,,,,,,,,,,CS1_USpos,None,1,,,,,,,,,,,,,,,,,,20,male,64,n,2019_Dec_18_1412,ec_RRR,3.0.4,59.72802247664614,
Corneille and Mierop,"Dans cette tâche, la créature ciblée est Shelmet:","Ainsi, chaque fois que Shelmet (son nom ou sa photo) apparaît à l'écran, appuyez sur la barre d'espace le plus rapidement possible. Appuyez sur la barre d'espace chaque fois que vous voyez une image de Shelmet ou le mot SHELMET.

Appuyez sur la barre d'espace pour démarrer la tâche.",target2,stimuli/t2.jpg,64,10,stimuli/blank.jpg,blank,False,None,,,,,,,,,,,,,,0,0,0,0,,,,,0,1,1,1,0,9,9,9,,,,,,,,,,,,,,,,,,,,,,,,,,,,,,,,,,,,,,,,,,,,,,,,,,,,,CS1_USpos,None,1,,,,,,,,,,,,,,,,,,20,male,64,n,2019_Dec_18_1412,ec_RRR,3.0.4,59.72802247664614,
Corneille and Mierop,"Dans cette tâche, la créature ciblée est Shelmet:","Ainsi, chaque fois que Shelmet (son nom ou sa photo) apparaît à l'écran, appuyez sur la barre d'espace le plus rapidement possible. Appuyez sur la barre d'espace chaque fois que vous voyez une image de Shelmet ou le mot SHELMET.

Appuyez sur la barre d'espace pour démarrer la tâche.",target2,stimuli/t2.jpg,64,11,stimuli/cs1_pos12.jpg,CSUS,False,None,,,,,,,,,,,,,,0,0,0,0,,,,,0,1,1,1,0,10,10,10,,,,,,,,,,,,,,,,,,,,,,,,,,,,,,,,,,,,,,,,,,,,,,,,,,,,,CS1_USpos,None,1,,,,,,,,,,,,,,,,,,20,male,64,n,2019_Dec_18_1412,ec_RRR,3.0.4,59.72802247664614,
Corneille and Mierop,"Dans cette tâche, la créature ciblée est Shelmet:","Ainsi, chaque fois que Shelmet (son nom ou sa photo) apparaît à l'écran, appuyez sur la barre d'espace le plus rapidement possible. Appuyez sur la barre d'espace chaque fois que vous voyez une image de Shelmet ou le mot SHELMET.

Appuyez sur la barre d'espace pour démarrer la tâche.",target2,stimuli/t2.jpg,64,12,stimuli/blank.jpg,blank,False,None,,,,,,,,,,,,,,0,0,0,0,,,,,0,1,1,1,0,11,11,11,,,,,,,,,,,,,,,,,,,,,,,,,,,,,,,,,,,,,,,,,,,,,,,,,,,,,CS1_USpos,None,1,,,,,,,,,,,,,,,,,,20,male,64,n,2019_Dec_18_1412,ec_RRR,3.0.4,59.72802247664614,
Corneille and Mierop,"Dans cette tâche, la créature ciblée est Shelmet:","Ainsi, chaque fois que Shelmet (son nom ou sa photo) apparaît à l'écran, appuyez sur la barre d'espace le plus rapidement possible. Appuyez sur la barre d'espace chaque fois que vous voyez une image de Shelmet ou le mot SHELMET.

Appuyez sur la barre d'espace pour démarrer la tâche.",target2,stimuli/t2.jpg,64,13,stimuli/filler27.jpg,filler,False,None,,,,,,,,,,,,,,0,0,0,0,,,,,0,1,1,1,0,12,12,12,,,,,,,,,,,,,,,,,,,,,,,,,,,,,,,,,,,,,,,,,,,,,,,,,,,,,CS1_USpos,None,1,,,,,,,,,,,,,,,,,,20,male,64,n,2019_Dec_18_1412,ec_RRR,3.0.4,59.72802247664614,
Corneille and Mierop,"Dans cette tâche, la créature ciblée est Shelmet:","Ainsi, chaque fois que Shelmet (son nom ou sa photo) apparaît à l'écran, appuyez sur la barre d'espace le plus rapidement possible. Appuyez sur la barre d'espace chaque fois que vous voyez une image de Shelmet ou le mot SHELMET.

Appuyez sur la barre d'espace pour démarrer la tâche.",target2,stimuli/t2.jpg,64,14,stimuli/filler52.jpg,filler,False,None,,,,,,,,,,,,,,0,0,0,0,,,,,0,1,1,1,0,13,13,13,,,,,,,,,,,,,,,,,,,,,,,,,,,,,,,,,,,,,,,,,,,,,,,,,,,,,CS1_USpos,None,1,,,,,,,,,,,,,,,,,,20,male,64,n,2019_Dec_18_1412,ec_RRR,3.0.4,59.72802247664614,
Corneille and Mierop,"Dans cette tâche, la créature ciblée est Shelmet:","Ainsi, chaque fois que Shelmet (son nom ou sa photo) apparaît à l'écran, appuyez sur la barre d'espace le plus rapidement possible. Appuyez sur la barre d'espace chaque fois que vous voyez une image de Shelmet ou le mot SHELMET.

Appuyez sur la barre d'espace pour démarrer la tâche.",target2,stimuli/t2.jpg,64,15,stimuli/filler28.jpg,filler,False,None,,,,,,,,,,,,,,0,0,0,0,,,,,0,1,1,1,0,14,14,14,,,,,,,,,,,,,,,,,,,,,,,,,,,,,,,,,,,,,,,,,,,,,,,,,,,,,CS1_USpos,None,1,,,,,,,,,,,,,,,,,,20,male,64,n,2019_Dec_18_1412,ec_RRR,3.0.4,59.72802247664614,
Corneille and Mierop,"Dans cette tâche, la créature ciblée est Shelmet:","Ainsi, chaque fois que Shelmet (son nom ou sa photo) apparaît à l'écran, appuyez sur la barre d'espace le plus rapidement possible. Appuyez sur la barre d'espace chaque fois que vous voyez une image de Shelmet ou le mot SHELMET.

Appuyez sur la barre d'espace pour démarrer la tâche.",target2,stimuli/t2.jpg,64,16,stimuli/filler50.jpg,filler,False,None,,,,,,,,,,,,,,0,0,0,0,,,,,0,1,1,1,0,15,15,15,,,,,,,,,,,,,,,,,,,,,,,,,,,,,,,,,,,,,,,,,,,,,,,,,,,,,CS1_USpos,None,1,,,,,,,,,,,,,,,,,,20,male,64,n,2019_Dec_18_1412,ec_RRR,3.0.4,59.72802247664614,
Corneille and Mierop,"Dans cette tâche, la créature ciblée est Shelmet:","Ainsi, chaque fois que Shelmet (son nom ou sa photo) apparaît à l'écran, appuyez sur la barre d'espace le plus rapidement possible. Appuyez sur la barre d'espace chaque fois que vous voyez une image de Shelmet ou le mot SHELMET.

Appuyez sur la barre d'espace pour démarrer la tâche.",target2,stimuli/t2.jpg,64,17,stimuli/filler20.jpg,filler,False,None,,,,,,,,,,,,,,0,0,0,0,,,,,0,1,1,1,0,16,16,16,,,,,,,,,,,,,,,,,,,,,,,,,,,,,,,,,,,,,,,,,,,,,,,,,,,,,CS1_USpos,None,1,,,,,,,,,,,,,,,,,,20,male,64,n,2019_Dec_18_1412,ec_RRR,3.0.4,59.72802247664614,
Corneille and Mierop,"Dans cette tâche, la créature ciblée est Shelmet:","Ainsi, chaque fois que Shelmet (son nom ou sa photo) apparaît à l'écran, appuyez sur la barre d'espace le plus rapidement possible. Appuyez sur la barre d'espace chaque fois que vous voyez une image de Shelmet ou le mot SHELMET.

Appuyez sur la barre d'espace pour démarrer la tâche.",target2,stimuli/t2.jpg,64,18,stimuli/filler3.jpg,filler,False,None,,,,,,,,,,,,,,0,0,0,0,,,,,0,1,1,1,0,17,17,17,,,,,,,,,,,,,,,,,,,,,,,,,,,,,,,,,,,,,,,,,,,,,,,,,,,,,CS1_USpos,None,1,,,,,,,,,,,,,,,,,,20,male,64,n,2019_Dec_18_1412,ec_RRR,3.0.4,59.72802247664614,
Corneille and Mierop,"Dans cette tâche, la créature ciblée est Shelmet:","Ainsi, chaque fois que Shelmet (son nom ou sa photo) apparaît à l'écran, appuyez sur la barre d'espace le plus rapidement possible. Appuyez sur la barre d'espace chaque fois que vous voyez une image de Shelmet ou le mot SHELMET.

Appuyez sur la barre d'espace pour démarrer la tâche.",target2,stimuli/t2.jpg,64,19,stimuli/filler22.jpg,filler,False,None,,,,,,,,,,,,,,0,0,0,0,,,,,0,1,1,1,0,18,18,18,,,,,,,,,,,,,,,,,,,,,,,,,,,,,,,,,,,,,,,,,,,,,,,,,,,,,CS1_USpos,None,1,,,,,,,,,,,,,,,,,,20,male,64,n,2019_Dec_18_1412,ec_RRR,3.0.4,59.72802247664614,
Corneille and Mierop,"Dans cette tâche, la créature ciblée est Shelmet:","Ainsi, chaque fois que Shelmet (son nom ou sa photo) apparaît à l'écran, appuyez sur la barre d'espace le plus rapidement possible. Appuyez sur la barre d'espace chaque fois que vous voyez une image de Shelmet ou le mot SHELMET.

Appuyez sur la barre d'espace pour démarrer la tâche.",target2,stimuli/t2.jpg,64,20,stimuli/blank.jpg,blank,False,None,,,,,,,,,,,,,,0,0,0,0,,,,,0,1,1,1,0,19,19,19,,,,,,,,,,,,,,,,,,,,,,,,,,,,,,,,,,,,,,,,,,,,,,,,,,,,,CS1_USpos,None,1,,,,,,,,,,,,,,,,,,20,male,64,n,2019_Dec_18_1412,ec_RRR,3.0.4,59.72802247664614,
Corneille and Mierop,"Dans cette tâche, la créature ciblée est Shelmet:","Ainsi, chaque fois que Shelmet (son nom ou sa photo) apparaît à l'écran, appuyez sur la barre d'espace le plus rapidement possible. Appuyez sur la barre d'espace chaque fois que vous voyez une image de Shelmet ou le mot SHELMET.

Appuyez sur la barre d'espace pour démarrer la tâche.",target2,stimuli/t2.jpg,64,21,stimuli/cs2_neg17.jpg,CSUS,False,None,,,,,,,,,,,,,,0,0,0,0,,,,,0,1,1,1,0,20,20,20,,,,,,,,,,,,,,,,,,,,,,,,,,,,,,,,,,,,,,,,,,,,,,,,,,,,,CS1_USpos,None,1,,,,,,,,,,,,,,,,,,20,male,64,n,2019_Dec_18_1412,ec_RRR,3.0.4,59.72802247664614,
Corneille and Mierop,"Dans cette tâche, la créature ciblée est Shelmet:","Ainsi, chaque fois que Shelmet (son nom ou sa photo) apparaît à l'écran, appuyez sur la barre d'espace le plus rapidement possible. Appuyez sur la barre d'espace chaque fois que vous voyez une image de Shelmet ou le mot SHELMET.

Appuyez sur la barre d'espace pour démarrer la tâche.",target2,stimuli/t2.jpg,64,22,stimuli/blank.jpg,blank,False,None,,,,,,,,,,,,,,0,0,0,0,,,,,0,1,1,1,0,21,21,21,,,,,,,,,,,,,,,,,,,,,,,,,,,,,,,,,,,,,,,,,,,,,,,,,,,,,CS1_USpos,None,1,,,,,,,,,,,,,,,,,,20,male,64,n,2019_Dec_18_1412,ec_RRR,3.0.4,59.72802247664614,
Corneille and Mierop,"Dans cette tâche, la créature ciblée est Shelmet:","Ainsi, chaque fois que Shelmet (son nom ou sa photo) apparaît à l'écran, appuyez sur la barre d'espace le plus rapidement possible. Appuyez sur la barre d'espace chaque fois que vous voyez une image de Shelmet ou le mot SHELMET.

Appuyez sur la barre d'espace pour démarrer la tâche.",target2,stimuli/t2.jpg,64,23,stimuli/filler25.jpg,filler,False,None,,,,,,,,,,,,,,0,0,0,0,,,,,0,1,1,1,0,22,22,22,,,,,,,,,,,,,,,,,,,,,,,,,,,,,,,,,,,,,,,,,,,,,,,,,,,,,CS1_USpos,None,1,,,,,,,,,,,,,,,,,,20,male,64,n,2019_Dec_18_1412,ec_RRR,3.0.4,59.72802247664614,
Corneille and Mierop,"Dans cette tâche, la créature ciblée est Shelmet:","Ainsi, chaque fois que Shelmet (son nom ou sa photo) apparaît à l'écran, appuyez sur la barre d'espace le plus rapidement possible. Appuyez sur la barre d'espace chaque fois que vous voyez une image de Shelmet ou le mot SHELMET.

Appuyez sur la barre d'espace pour démarrer la tâche.",target2,stimuli/t2.jpg,64,24,stimuli/target2_6.jpg,target,True,space,,,,,,,,,,,,,,0,0,0,0,,,,,0,1,1,1,0,23,23,23,,,,,,,,,,,,,,,,,,,,,,,,,,,,,,,,,,,,,,,,,,,,,,,,,,,,,CS1_USpos,space,1,0.6431016999995336,,,,,,,,,,,,,,,,,20,male,64,n,2019_Dec_18_1412,ec_RRR,3.0.4,59.72802247664614,
Corneille and Mierop,"Dans cette tâche, la créature ciblée est Shelmet:","Ainsi, chaque fois que Shelmet (son nom ou sa photo) apparaît à l'écran, appuyez sur la barre d'espace le plus rapidement possible. Appuyez sur la barre d'espace chaque fois que vous voyez une image de Shelmet ou le mot SHELMET.

Appuyez sur la barre d'espace pour démarrer la tâche.",target2,stimuli/t2.jpg,64,25,stimuli/filler16.jpg,filler,False,None,,,,,,,,,,,,,,0,0,0,0,,,,,0,1,1,1,0,24,24,24,,,,,,,,,,,,,,,,,,,,,,,,,,,,,,,,,,,,,,,,,,,,,,,,,,,,,CS1_USpos,None,1,,,,,,,,,,,,,,,,,,20,male,64,n,2019_Dec_18_1412,ec_RRR,3.0.4,59.72802247664614,
Corneille and Mierop,"Dans cette tâche, la créature ciblée est Shelmet:","Ainsi, chaque fois que Shelmet (son nom ou sa photo) apparaît à l'écran, appuyez sur la barre d'espace le plus rapidement possible. Appuyez sur la barre d'espace chaque fois que vous voyez une image de Shelmet ou le mot SHELMET.

Appuyez sur la barre d'espace pour démarrer la tâche.",target2,stimuli/t2.jpg,64,26,stimuli/filler1.jpg,filler,False,None,,,,,,,,,,,,,,0,0,0,0,,,,,0,1,1,1,0,25,25,25,,,,,,,,,,,,,,,,,,,,,,,,,,,,,,,,,,,,,,,,,,,,,,,,,,,,,CS1_USpos,None,1,,,,,,,,,,,,,,,,,,20,male,64,n,2019_Dec_18_1412,ec_RRR,3.0.4,59.72802247664614,
Corneille and Mierop,"Dans cette tâche, la créature ciblée est Shelmet:","Ainsi, chaque fois que Shelmet (son nom ou sa photo) apparaît à l'écran, appuyez sur la barre d'espace le plus rapidement possible. Appuyez sur la barre d'espace chaque fois que vous voyez une image de Shelmet ou le mot SHELMET.

Appuyez sur la barre d'espace pour démarrer la tâche.",target2,stimuli/t2.jpg,64,27,stimuli/filler9.jpg,filler,False,None,,,,,,,,,,,,,,0,0,0,0,,,,,0,1,1,1,0,26,26,26,,,,,,,,,,,,,,,,,,,,,,,,,,,,,,,,,,,,,,,,,,,,,,,,,,,,,CS1_USpos,None,1,,,,,,,,,,,,,,,,,,20,male,64,n,2019_Dec_18_1412,ec_RRR,3.0.4,59.72802247664614,
Corneille and Mierop,"Dans cette tâche, la créature ciblée est Shelmet:","Ainsi, chaque fois que Shelmet (son nom ou sa photo) apparaît à l'écran, appuyez sur la barre d'espace le plus rapidement possible. Appuyez sur la barre d'espace chaque fois que vous voyez une image de Shelmet ou le mot SHELMET.

Appuyez sur la barre d'espace pour démarrer la tâche.",target2,stimuli/t2.jpg,64,28,stimuli/filler17.jpg,filler,False,None,,,,,,,,,,,,,,0,0,0,0,,,,,0,1,1,1,0,27,27,27,,,,,,,,,,,,,,,,,,,,,,,,,,,,,,,,,,,,,,,,,,,,,,,,,,,,,CS1_USpos,None,1,,,,,,,,,,,,,,,,,,20,male,64,n,2019_Dec_18_1412,ec_RRR,3.0.4,59.72802247664614,
Corneille and Mierop,"Dans cette tâche, la créature ciblée est Shelmet:","Ainsi, chaque fois que Shelmet (son nom ou sa photo) apparaît à l'écran, appuyez sur la barre d'espace le plus rapidement possible. Appuyez sur la barre d'espace chaque fois que vous voyez une image de Shelmet ou le mot SHELMET.

Appuyez sur la barre d'espace pour démarrer la tâche.",target2,stimuli/t2.jpg,64,29,stimuli/filler2.jpg,filler,False,None,,,,,,,,,,,,,,0,0,0,0,,,,,0,1,1,1,0,28,28,28,,,,,,,,,,,,,,,,,,,,,,,,,,,,,,,,,,,,,,,,,,,,,,,,,,,,,CS1_USpos,None,1,,,,,,,,,,,,,,,,,,20,male,64,n,2019_Dec_18_1412,ec_RRR,3.0.4,59.72802247664614,
Corneille and Mierop,"Dans cette tâche, la créature ciblée est Shelmet:","Ainsi, chaque fois que Shelmet (son nom ou sa photo) apparaît à l'écran, appuyez sur la barre d'espace le plus rapidement possible. Appuyez sur la barre d'espace chaque fois que vous voyez une image de Shelmet ou le mot SHELMET.

Appuyez sur la barre d'espace pour démarrer la tâche.",target2,stimuli/t2.jpg,64,30,stimuli/blank.jpg,blank,False,None,,,,,,,,,,,,,,0,0,0,0,,,,,0,1,1,1,0,29,29,29,,,,,,,,,,,,,,,,,,,,,,,,,,,,,,,,,,,,,,,,,,,,,,,,,,,,,CS1_USpos,None,1,,,,,,,,,,,,,,,,,,20,male,64,n,2019_Dec_18_1412,ec_RRR,3.0.4,59.72802247664614,
Corneille and Mierop,"Dans cette tâche, la créature ciblée est Shelmet:","Ainsi, chaque fois que Shelmet (son nom ou sa photo) apparaît à l'écran, appuyez sur la barre d'espace le plus rapidement possible. Appuyez sur la barre d'espace chaque fois que vous voyez une image de Shelmet ou le mot SHELMET.

Appuyez sur la barre d'espace pour démarrer la tâche.",target2,stimuli/t2.jpg,64,31,stimuli/cs1_pos17.jpg,CSUS,False,None,,,,,,,,,,,,,,0,0,0,0,,,,,0,1,1,1,0,30,30,30,,,,,,,,,,,,,,,,,,,,,,,,,,,,,,,,,,,,,,,,,,,,,,,,,,,,,CS1_USpos,None,1,,,,,,,,,,,,,,,,,,20,male,64,n,2019_Dec_18_1412,ec_RRR,3.0.4,59.72802247664614,
Corneille and Mierop,"Dans cette tâche, la créature ciblée est Shelmet:","Ainsi, chaque fois que Shelmet (son nom ou sa photo) apparaît à l'écran, appuyez sur la barre d'espace le plus rapidement possible. Appuyez sur la barre d'espace chaque fois que vous voyez une image de Shelmet ou le mot SHELMET.

Appuyez sur la barre d'espace pour démarrer la tâche.",target2,stimuli/t2.jpg,64,32,stimuli/blank.jpg,blank,False,None,,,,,,,,,,,,,,0,0,0,0,,,,,0,1,1,1,0,31,31,31,,,,,,,,,,,,,,,,,,,,,,,,,,,,,,,,,,,,,,,,,,,,,,,,,,,,,CS1_USpos,None,1,,,,,,,,,,,,,,,,,,20,male,64,n,2019_Dec_18_1412,ec_RRR,3.0.4,59.72802247664614,
Corneille and Mierop,"Dans cette tâche, la créature ciblée est Shelmet:","Ainsi, chaque fois que Shelmet (son nom ou sa photo) apparaît à l'écran, appuyez sur la barre d'espace le plus rapidement possible. Appuyez sur la barre d'espace chaque fois que vous voyez une image de Shelmet ou le mot SHELMET.

Appuyez sur la barre d'espace pour démarrer la tâche.",target2,stimuli/t2.jpg,64,33,stimuli/filler42.jpg,filler,False,None,,,,,,,,,,,,,,0,0,0,0,,,,,0,1,1,1,0,32,32,32,,,,,,,,,,,,,,,,,,,,,,,,,,,,,,,,,,,,,,,,,,,,,,,,,,,,,CS1_USpos,None,1,,,,,,,,,,,,,,,,,,20,male,64,n,2019_Dec_18_1412,ec_RRR,3.0.4,59.72802247664614,
Corneille and Mierop,"Dans cette tâche, la créature ciblée est Shelmet:","Ainsi, chaque fois que Shelmet (son nom ou sa photo) apparaît à l'écran, appuyez sur la barre d'espace le plus rapidement possible. Appuyez sur la barre d'espace chaque fois que vous voyez une image de Shelmet ou le mot SHELMET.

Appuyez sur la barre d'espace pour démarrer la tâche.",target2,stimuli/t2.jpg,64,34,stimuli/filler24.jpg,filler,False,None,,,,,,,,,,,,,,0,0,0,0,,,,,0,1,1,1,0,33,33,33,,,,,,,,,,,,,,,,,,,,,,,,,,,,,,,,,,,,,,,,,,,,,,,,,,,,,CS1_USpos,None,1,,,,,,,,,,,,,,,,,,20,male,64,n,2019_Dec_18_1412,ec_RRR,3.0.4,59.72802247664614,
Corneille and Mierop,"Dans cette tâche, la créature ciblée est Shelmet:","Ainsi, chaque fois que Shelmet (son nom ou sa photo) apparaît à l'écran, appuyez sur la barre d'espace le plus rapidement possible. Appuyez sur la barre d'espace chaque fois que vous voyez une image de Shelmet ou le mot SHELMET.

Appuyez sur la barre d'espace pour démarrer la tâche.",target2,stimuli/t2.jpg,64,35,stimuli/filler31.jpg,filler,False,None,,,,,,,,,,,,,,0,0,0,0,,,,,0,1,1,1,0,34,34,34,,,,,,,,,,,,,,,,,,,,,,,,,,,,,,,,,,,,,,,,,,,,,,,,,,,,,CS1_USpos,None,1,,,,,,,,,,,,,,,,,,20,male,64,n,2019_Dec_18_1412,ec_RRR,3.0.4,59.72802247664614,
Corneille and Mierop,"Dans cette tâche, la créature ciblée est Shelmet:","Ainsi, chaque fois que Shelmet (son nom ou sa photo) apparaît à l'écran, appuyez sur la barre d'espace le plus rapidement possible. Appuyez sur la barre d'espace chaque fois que vous voyez une image de Shelmet ou le mot SHELMET.

Appuyez sur la barre d'espace pour démarrer la tâche.",target2,stimuli/t2.jpg,64,36,stimuli/target2_4.jpg,target,True,space,,,,,,,,,,,,,,0,0,0,0,,,,,0,1,1,1,0,35,35,35,,,,,,,,,,,,,,,,,,,,,,,,,,,,,,,,,,,,,,,,,,,,,,,,,,,,,CS1_USpos,space,1,0.5151689999984228,,,,,,,,,,,,,,,,,20,male,64,n,2019_Dec_18_1412,ec_RRR,3.0.4,59.72802247664614,
Corneille and Mierop,"Dans cette tâche, la créature ciblée est Shelmet:","Ainsi, chaque fois que Shelmet (son nom ou sa photo) apparaît à l'écran, appuyez sur la barre d'espace le plus rapidement possible. Appuyez sur la barre d'espace chaque fois que vous voyez une image de Shelmet ou le mot SHELMET.

Appuyez sur la barre d'espace pour démarrer la tâche.",target2,stimuli/t2.jpg,64,37,stimuli/filler38.jpg,filler,False,None,,,,,,,,,,,,,,0,0,0,0,,,,,0,1,1,1,0,36,36,36,,,,,,,,,,,,,,,,,,,,,,,,,,,,,,,,,,,,,,,,,,,,,,,,,,,,,CS1_USpos,None,1,,,,,,,,,,,,,,,,,,20,male,64,n,2019_Dec_18_1412,ec_RRR,3.0.4,59.72802247664614,
Corneille and Mierop,"Dans cette tâche, la créature ciblée est Shelmet:","Ainsi, chaque fois que Shelmet (son nom ou sa photo) apparaît à l'écran, appuyez sur la barre d'espace le plus rapidement possible. Appuyez sur la barre d'espace chaque fois que vous voyez une image de Shelmet ou le mot SHELMET.

Appuyez sur la barre d'espace pour démarrer la tâche.",target2,stimuli/t2.jpg,64,38,stimuli/filler48.jpg,filler,False,None,,,,,,,,,,,,,,0,0,0,0,,,,,0,1,1,1,0,37,37,37,,,,,,,,,,,,,,,,,,,,,,,,,,,,,,,,,,,,,,,,,,,,,,,,,,,,,CS1_USpos,None,1,,,,,,,,,,,,,,,,,,20,male,64,n,2019_Dec_18_1412,ec_RRR,3.0.4,59.72802247664614,
Corneille and Mierop,"Dans cette tâche, la créature ciblée est Shelmet:","Ainsi, chaque fois que Shelmet (son nom ou sa photo) apparaît à l'écran, appuyez sur la barre d'espace le plus rapidement possible. Appuyez sur la barre d'espace chaque fois que vous voyez une image de Shelmet ou le mot SHELMET.

Appuyez sur la barre d'espace pour démarrer la tâche.",target2,stimuli/t2.jpg,64,39,stimuli/target2_3.jpg,target,True,space,,,,,,,,,,,,,,0,0,0,0,,,,,0,1,1,1,0,38,38,38,,,,,,,,,,,,,,,,,,,,,,,,,,,,,,,,,,,,,,,,,,,,,,,,,,,,,CS1_USpos,space,1,0.7184546000025875,,,,,,,,,,,,,,,,,20,male,64,n,2019_Dec_18_1412,ec_RRR,3.0.4,59.72802247664614,
Corneille and Mierop,"Dans cette tâche, la créature ciblée est Shelmet:","Ainsi, chaque fois que Shelmet (son nom ou sa photo) apparaît à l'écran, appuyez sur la barre d'espace le plus rapidement possible. Appuyez sur la barre d'espace chaque fois que vous voyez une image de Shelmet ou le mot SHELMET.

Appuyez sur la barre d'espace pour démarrer la tâche.",target2,stimuli/t2.jpg,64,40,stimuli/blank.jpg,blank,False,None,,,,,,,,,,,,,,0,0,0,0,,,,,0,1,1,1,0,39,39,39,,,,,,,,,,,,,,,,,,,,,,,,,,,,,,,,,,,,,,,,,,,,,,,,,,,,,CS1_USpos,None,1,,,,,,,,,,,,,,,,,,20,male,64,n,2019_Dec_18_1412,ec_RRR,3.0.4,59.72802247664614,
Corneille and Mierop,"Dans cette tâche, la créature ciblée est Shelmet:","Ainsi, chaque fois que Shelmet (son nom ou sa photo) apparaît à l'écran, appuyez sur la barre d'espace le plus rapidement possible. Appuyez sur la barre d'espace chaque fois que vous voyez une image de Shelmet ou le mot SHELMET.

Appuyez sur la barre d'espace pour démarrer la tâche.",target2,stimuli/t2.jpg,64,41,stimuli/cs2_neg13.jpg,CSUS,False,None,,,,,,,,,,,,,,0,0,0,0,,,,,0,1,1,1,0,40,40,40,,,,,,,,,,,,,,,,,,,,,,,,,,,,,,,,,,,,,,,,,,,,,,,,,,,,,CS1_USpos,None,1,,,,,,,,,,,,,,,,,,20,male,64,n,2019_Dec_18_1412,ec_RRR,3.0.4,59.72802247664614,
Corneille and Mierop,"Dans cette tâche, la créature ciblée est Shelmet:","Ainsi, chaque fois que Shelmet (son nom ou sa photo) apparaît à l'écran, appuyez sur la barre d'espace le plus rapidement possible. Appuyez sur la barre d'espace chaque fois que vous voyez une image de Shelmet ou le mot SHELMET.

Appuyez sur la barre d'espace pour démarrer la tâche.",target2,stimuli/t2.jpg,64,42,stimuli/blank.jpg,blank,False,None,,,,,,,,,,,,,,0,0,0,0,,,,,0,1,1,1,0,41,41,41,,,,,,,,,,,,,,,,,,,,,,,,,,,,,,,,,,,,,,,,,,,,,,,,,,,,,CS1_USpos,None,1,,,,,,,,,,,,,,,,,,20,male,64,n,2019_Dec_18_1412,ec_RRR,3.0.4,59.72802247664614,
Corneille and Mierop,"Dans cette tâche, la créature ciblée est Shelmet:","Ainsi, chaque fois que Shelmet (son nom ou sa photo) apparaît à l'écran, appuyez sur la barre d'espace le plus rapidement possible. Appuyez sur la barre d'espace chaque fois que vous voyez une image de Shelmet ou le mot SHELMET.

Appuyez sur la barre d'espace pour démarrer la tâche.",target2,stimuli/t2.jpg,64,43,stimuli/filler18.jpg,filler,False,None,,,,,,,,,,,,,,0,0,0,0,,,,,0,1,1,1,0,42,42,42,,,,,,,,,,,,,,,,,,,,,,,,,,,,,,,,,,,,,,,,,,,,,,,,,,,,,CS1_USpos,None,1,,,,,,,,,,,,,,,,,,20,male,64,n,2019_Dec_18_1412,ec_RRR,3.0.4,59.72802247664614,
Corneille and Mierop,"Dans cette tâche, la créature ciblée est Shelmet:","Ainsi, chaque fois que Shelmet (son nom ou sa photo) apparaît à l'écran, appuyez sur la barre d'espace le plus rapidement possible. Appuyez sur la barre d'espace chaque fois que vous voyez une image de Shelmet ou le mot SHELMET.

Appuyez sur la barre d'espace pour démarrer la tâche.",target2,stimuli/t2.jpg,64,44,stimuli/filler47.jpg,filler,False,None,,,,,,,,,,,,,,0,0,0,0,,,,,0,1,1,1,0,43,43,43,,,,,,,,,,,,,,,,,,,,,,,,,,,,,,,,,,,,,,,,,,,,,,,,,,,,,CS1_USpos,None,1,,,,,,,,,,,,,,,,,,20,male,64,n,2019_Dec_18_1412,ec_RRR,3.0.4,59.72802247664614,
Corneille and Mierop,"Dans cette tâche, la créature ciblée est Shelmet:","Ainsi, chaque fois que Shelmet (son nom ou sa photo) apparaît à l'écran, appuyez sur la barre d'espace le plus rapidement possible. Appuyez sur la barre d'espace chaque fois que vous voyez une image de Shelmet ou le mot SHELMET.

Appuyez sur la barre d'espace pour démarrer la tâche.",target2,stimuli/t2.jpg,64,45,stimuli/filler46.jpg,filler,False,None,,,,,,,,,,,,,,0,0,0,0,,,,,0,1,1,1,0,44,44,44,,,,,,,,,,,,,,,,,,,,,,,,,,,,,,,,,,,,,,,,,,,,,,,,,,,,,CS1_USpos,None,1,,,,,,,,,,,,,,,,,,20,male,64,n,2019_Dec_18_1412,ec_RRR,3.0.4,59.72802247664614,
Corneille and Mierop,"Dans cette tâche, la créature ciblée est Shelmet:","Ainsi, chaque fois que Shelmet (son nom ou sa photo) apparaît à l'écran, appuyez sur la barre d'espace le plus rapidement possible. Appuyez sur la barre d'espace chaque fois que vous voyez une image de Shelmet ou le mot SHELMET.

Appuyez sur la barre d'espace pour démarrer la tâche.",target2,stimuli/t2.jpg,64,46,stimuli/filler37.jpg,filler,False,None,,,,,,,,,,,,,,0,0,0,0,,,,,0,1,1,1,0,45,45,45,,,,,,,,,,,,,,,,,,,,,,,,,,,,,,,,,,,,,,,,,,,,,,,,,,,,,CS1_USpos,None,1,,,,,,,,,,,,,,,,,,20,male,64,n,2019_Dec_18_1412,ec_RRR,3.0.4,59.72802247664614,
Corneille and Mierop,"Dans cette tâche, la créature ciblée est Shelmet:","Ainsi, chaque fois que Shelmet (son nom ou sa photo) apparaît à l'écran, appuyez sur la barre d'espace le plus rapidement possible. Appuyez sur la barre d'espace chaque fois que vous voyez une image de Shelmet ou le mot SHELMET.

Appuyez sur la barre d'espace pour démarrer la tâche.",target2,stimuli/t2.jpg,64,47,stimuli/target2_9.jpg,target,True,space,,,,,,,,,,,,,,0,0,0,0,,,,,0,1,1,1,0,46,46,46,,,,,,,,,,,,,,,,,,,,,,,,,,,,,,,,,,,,,,,,,,,,,,,,,,,,,CS1_USpos,space,1,0.7274426000003587,,,,,,,,,,,,,,,,,20,male,64,n,2019_Dec_18_1412,ec_RRR,3.0.4,59.72802247664614,
Corneille and Mierop,"Dans cette tâche, la créature ciblée est Shelmet:","Ainsi, chaque fois que Shelmet (son nom ou sa photo) apparaît à l'écran, appuyez sur la barre d'espace le plus rapidement possible. Appuyez sur la barre d'espace chaque fois que vous voyez une image de Shelmet ou le mot SHELMET.

Appuyez sur la barre d'espace pour démarrer la tâche.",target2,stimuli/t2.jpg,64,48,stimuli/filler51.jpg,filler,False,None,,,,,,,,,,,,,,0,0,0,0,,,,,0,1,1,1,0,47,47,47,,,,,,,,,,,,,,,,,,,,,,,,,,,,,,,,,,,,,,,,,,,,,,,,,,,,,CS1_USpos,None,1,,,,,,,,,,,,,,,,,,20,male,64,n,2019_Dec_18_1412,ec_RRR,3.0.4,59.72802247664614,
Corneille and Mierop,"Dans cette tâche, la créature ciblée est Shelmet:","Ainsi, chaque fois que Shelmet (son nom ou sa photo) apparaît à l'écran, appuyez sur la barre d'espace le plus rapidement possible. Appuyez sur la barre d'espace chaque fois que vous voyez une image de Shelmet ou le mot SHELMET.

Appuyez sur la barre d'espace pour démarrer la tâche.",target2,stimuli/t2.jpg,64,49,stimuli/filler34.jpg,filler,False,None,,,,,,,,,,,,,,0,0,0,0,,,,,0,1,1,1,0,48,48,48,,,,,,,,,,,,,,,,,,,,,,,,,,,,,,,,,,,,,,,,,,,,,,,,,,,,,CS1_USpos,None,1,,,,,,,,,,,,,,,,,,20,male,64,n,2019_Dec_18_1412,ec_RRR,3.0.4,59.72802247664614,
Corneille and Mierop,"Dans cette tâche, la créature ciblée est Shelmet:","Ainsi, chaque fois que Shelmet (son nom ou sa photo) apparaît à l'écran, appuyez sur la barre d'espace le plus rapidement possible. Appuyez sur la barre d'espace chaque fois que vous voyez une image de Shelmet ou le mot SHELMET.

Appuyez sur la barre d'espace pour démarrer la tâche.",target2,stimuli/t2.jpg,64,50,stimuli/blank.jpg,blank,False,None,,,,,,,,,,,,,,0,0,0,0,,,,,0,1,1,1,0,49,49,49,,,,,,,,,,,,,,,,,,,,,,,,,,,,,,,,,,,,,,,,,,,,,,,,,,,,,CS1_USpos,None,1,,,,,,,,,,,,,,,,,,20,male,64,n,2019_Dec_18_1412,ec_RRR,3.0.4,59.72802247664614,
Corneille and Mierop,"Dans cette tâche, la créature ciblée est Shelmet:","Ainsi, chaque fois que Shelmet (son nom ou sa photo) apparaît à l'écran, appuyez sur la barre d'espace le plus rapidement possible. Appuyez sur la barre d'espace chaque fois que vous voyez une image de Shelmet ou le mot SHELMET.

Appuyez sur la barre d'espace pour démarrer la tâche.",target2,stimuli/t2.jpg,64,51,stimuli/cs1_pos20.jpg,CSUS,False,None,,,,,,,,,,,,,,0,0,0,0,,,,,0,1,1,1,0,50,50,50,,,,,,,,,,,,,,,,,,,,,,,,,,,,,,,,,,,,,,,,,,,,,,,,,,,,,CS1_USpos,None,1,,,,,,,,,,,,,,,,,,20,male,64,n,2019_Dec_18_1412,ec_RRR,3.0.4,59.72802247664614,
Corneille and Mierop,"Dans cette tâche, la créature ciblée est Shelmet:","Ainsi, chaque fois que Shelmet (son nom ou sa photo) apparaît à l'écran, appuyez sur la barre d'espace le plus rapidement possible. Appuyez sur la barre d'espace chaque fois que vous voyez une image de Shelmet ou le mot SHELMET.

Appuyez sur la barre d'espace pour démarrer la tâche.",target2,stimuli/t2.jpg,64,52,stimuli/blank.jpg,blank,False,None,,,,,,,,,,,,,,0,0,0,0,,,,,0,1,1,1,0,51,51,51,,,,,,,,,,,,,,,,,,,,,,,,,,,,,,,,,,,,,,,,,,,,,,,,,,,,,CS1_USpos,None,1,,,,,,,,,,,,,,,,,,20,male,64,n,2019_Dec_18_1412,ec_RRR,3.0.4,59.72802247664614,
Corneille and Mierop,"Dans cette tâche, la créature ciblée est Shelmet:","Ainsi, chaque fois que Shelmet (son nom ou sa photo) apparaît à l'écran, appuyez sur la barre d'espace le plus rapidement possible. Appuyez sur la barre d'espace chaque fois que vous voyez une image de Shelmet ou le mot SHELMET.

Appuyez sur la barre d'espace pour démarrer la tâche.",target2,stimuli/t2.jpg,64,53,stimuli/filler10.jpg,filler,False,None,,,,,,,,,,,,,,0,0,0,0,,,,,0,1,1,1,0,52,52,52,,,,,,,,,,,,,,,,,,,,,,,,,,,,,,,,,,,,,,,,,,,,,,,,,,,,,CS1_USpos,None,1,,,,,,,,,,,,,,,,,,20,male,64,n,2019_Dec_18_1412,ec_RRR,3.0.4,59.72802247664614,
Corneille and Mierop,"Dans cette tâche, la créature ciblée est Shelmet:","Ainsi, chaque fois que Shelmet (son nom ou sa photo) apparaît à l'écran, appuyez sur la barre d'espace le plus rapidement possible. Appuyez sur la barre d'espace chaque fois que vous voyez une image de Shelmet ou le mot SHELMET.

Appuyez sur la barre d'espace pour démarrer la tâche.",target2,stimuli/t2.jpg,64,54,stimuli/filler32.jpg,filler,False,None,,,,,,,,,,,,,,0,0,0,0,,,,,0,1,1,1,0,53,53,53,,,,,,,,,,,,,,,,,,,,,,,,,,,,,,,,,,,,,,,,,,,,,,,,,,,,,CS1_USpos,None,1,,,,,,,,,,,,,,,,,,20,male,64,n,2019_Dec_18_1412,ec_RRR,3.0.4,59.72802247664614,
Corneille and Mierop,"Dans cette tâche, la créature ciblée est Shelmet:","Ainsi, chaque fois que Shelmet (son nom ou sa photo) apparaît à l'écran, appuyez sur la barre d'espace le plus rapidement possible. Appuyez sur la barre d'espace chaque fois que vous voyez une image de Shelmet ou le mot SHELMET.

Appuyez sur la barre d'espace pour démarrer la tâche.",target2,stimuli/t2.jpg,64,55,stimuli/filler4.jpg,filler,False,None,,,,,,,,,,,,,,0,0,0,0,,,,,0,1,1,1,0,54,54,54,,,,,,,,,,,,,,,,,,,,,,,,,,,,,,,,,,,,,,,,,,,,,,,,,,,,,CS1_USpos,None,1,,,,,,,,,,,,,,,,,,20,male,64,n,2019_Dec_18_1412,ec_RRR,3.0.4,59.72802247664614,
Corneille and Mierop,"Dans cette tâche, la créature ciblée est Shelmet:","Ainsi, chaque fois que Shelmet (son nom ou sa photo) apparaît à l'écran, appuyez sur la barre d'espace le plus rapidement possible. Appuyez sur la barre d'espace chaque fois que vous voyez une image de Shelmet ou le mot SHELMET.

Appuyez sur la barre d'espace pour démarrer la tâche.",target2,stimuli/t2.jpg,64,56,stimuli/filler5.jpg,filler,False,None,,,,,,,,,,,,,,0,0,0,0,,,,,0,1,1,1,0,55,55,55,,,,,,,,,,,,,,,,,,,,,,,,,,,,,,,,,,,,,,,,,,,,,,,,,,,,,CS1_USpos,None,1,,,,,,,,,,,,,,,,,,20,male,64,n,2019_Dec_18_1412,ec_RRR,3.0.4,59.72802247664614,
Corneille and Mierop,"Dans cette tâche, la créature ciblée est Shelmet:","Ainsi, chaque fois que Shelmet (son nom ou sa photo) apparaît à l'écran, appuyez sur la barre d'espace le plus rapidement possible. Appuyez sur la barre d'espace chaque fois que vous voyez une image de Shelmet ou le mot SHELMET.

Appuyez sur la barre d'espace pour démarrer la tâche.",target2,stimuli/t2.jpg,64,57,stimuli/filler21.jpg,filler,False,None,,,,,,,,,,,,,,0,0,0,0,,,,,0,1,1,1,0,56,56,56,,,,,,,,,,,,,,,,,,,,,,,,,,,,,,,,,,,,,,,,,,,,,,,,,,,,,CS1_USpos,None,1,,,,,,,,,,,,,,,,,,20,male,64,n,2019_Dec_18_1412,ec_RRR,3.0.4,59.72802247664614,
Corneille and Mierop,"Dans cette tâche, la créature ciblée est Shelmet:","Ainsi, chaque fois que Shelmet (son nom ou sa photo) apparaît à l'écran, appuyez sur la barre d'espace le plus rapidement possible. Appuyez sur la barre d'espace chaque fois que vous voyez une image de Shelmet ou le mot SHELMET.

Appuyez sur la barre d'espace pour démarrer la tâche.",target2,stimuli/t2.jpg,64,58,stimuli/filler6.jpg,filler,False,None,,,,,,,,,,,,,,0,0,0,0,,,,,0,1,1,1,0,57,57,57,,,,,,,,,,,,,,,,,,,,,,,,,,,,,,,,,,,,,,,,,,,,,,,,,,,,,CS1_USpos,None,1,,,,,,,,,,,,,,,,,,20,male,64,n,2019_Dec_18_1412,ec_RRR,3.0.4,59.72802247664614,
Corneille and Mierop,"Dans cette tâche, la créature ciblée est Shelmet:","Ainsi, chaque fois que Shelmet (son nom ou sa photo) apparaît à l'écran, appuyez sur la barre d'espace le plus rapidement possible. Appuyez sur la barre d'espace chaque fois que vous voyez une image de Shelmet ou le mot SHELMET.

Appuyez sur la barre d'espace pour démarrer la tâche.",target2,stimuli/t2.jpg,64,59,stimuli/filler8.jpg,filler,False,None,,,,,,,,,,,,,,0,0,0,0,,,,,0,1,1,1,0,58,58,58,,,,,,,,,,,,,,,,,,,,,,,,,,,,,,,,,,,,,,,,,,,,,,,,,,,,,CS1_USpos,None,1,,,,,,,,,,,,,,,,,,20,male,64,n,2019_Dec_18_1412,ec_RRR,3.0.4,59.72802247664614,
Corneille and Mierop,"Dans cette tâche, la créature ciblée est Shelmet:","Ainsi, chaque fois que Shelmet (son nom ou sa photo) apparaît à l'écran, appuyez sur la barre d'espace le plus rapidement possible. Appuyez sur la barre d'espace chaque fois que vous voyez une image de Shelmet ou le mot SHELMET.

Appuyez sur la barre d'espace pour démarrer la tâche.",target2,stimuli/t2.jpg,64,60,stimuli/blank.jpg,blank,False,None,,,,,,,,,,,,,,0,0,0,0,,,,,0,1,1,1,0,59,59,59,,,,,,,,,,,,,,,,,,,,,,,,,,,,,,,,,,,,,,,,,,,,,,,,,,,,,CS1_USpos,None,1,,,,,,,,,,,,,,,,,,20,male,64,n,2019_Dec_18_1412,ec_RRR,3.0.4,59.72802247664614,
Corneille and Mierop,"Dans cette tâche, la créature ciblée est Shelmet:","Ainsi, chaque fois que Shelmet (son nom ou sa photo) apparaît à l'écran, appuyez sur la barre d'espace le plus rapidement possible. Appuyez sur la barre d'espace chaque fois que vous voyez une image de Shelmet ou le mot SHELMET.

Appuyez sur la barre d'espace pour démarrer la tâche.",target2,stimuli/t2.jpg,64,61,stimuli/cs2_neg6.jpg,CSUS,False,None,,,,,,,,,,,,,,0,0,0,0,,,,,0,1,1,1,0,60,60,60,,,,,,,,,,,,,,,,,,,,,,,,,,,,,,,,,,,,,,,,,,,,,,,,,,,,,CS1_USpos,None,1,,,,,,,,,,,,,,,,,,20,male,64,n,2019_Dec_18_1412,ec_RRR,3.0.4,59.72802247664614,
Corneille and Mierop,"Dans cette tâche, la créature ciblée est Shelmet:","Ainsi, chaque fois que Shelmet (son nom ou sa photo) apparaît à l'écran, appuyez sur la barre d'espace le plus rapidement possible. Appuyez sur la barre d'espace chaque fois que vous voyez une image de Shelmet ou le mot SHELMET.

Appuyez sur la barre d'espace pour démarrer la tâche.",target2,stimuli/t2.jpg,64,62,stimuli/blank.jpg,blank,False,None,,,,,,,,,,,,,,0,0,0,0,,,,,0,1,1,1,0,61,61,61,,,,,,,,,,,,,,,,,,,,,,,,,,,,,,,,,,,,,,,,,,,,,,,,,,,,,CS1_USpos,None,1,,,,,,,,,,,,,,,,,,20,male,64,n,2019_Dec_18_1412,ec_RRR,3.0.4,59.72802247664614,
Corneille and Mierop,"Dans cette tâche, la créature ciblée est Shelmet:","Ainsi, chaque fois que Shelmet (son nom ou sa photo) apparaît à l'écran, appuyez sur la barre d'espace le plus rapidement possible. Appuyez sur la barre d'espace chaque fois que vous voyez une image de Shelmet ou le mot SHELMET.

Appuyez sur la barre d'espace pour démarrer la tâche.",target2,stimuli/t2.jpg,64,63,stimuli/filler26.jpg,filler,False,None,,,,,,,,,,,,,,0,0,0,0,,,,,0,1,1,1,0,62,62,62,,,,,,,,,,,,,,,,,,,,,,,,,,,,,,,,,,,,,,,,,,,,,,,,,,,,,CS1_USpos,None,1,,,,,,,,,,,,,,,,,,20,male,64,n,2019_Dec_18_1412,ec_RRR,3.0.4,59.72802247664614,
Corneille and Mierop,"Dans cette tâche, la créature ciblée est Shelmet:","Ainsi, chaque fois que Shelmet (son nom ou sa photo) apparaît à l'écran, appuyez sur la barre d'espace le plus rapidement possible. Appuyez sur la barre d'espace chaque fois que vous voyez une image de Shelmet ou le mot SHELMET.

Appuyez sur la barre d'espace pour démarrer la tâche.",target2,stimuli/t2.jpg,64,64,stimuli/filler43.jpg,filler,False,None,,,,,,,,,,,,,,0,0,0,0,,,,,0,1,1,1,0,63,63,63,,,,,,,,,,,,,,,,,,,,,,,,,,,,,,,,,,,,,,,,,,,,,,,,,,,,,CS1_USpos,None,1,,,,,,,,,,,,,,,,,,20,male,64,n,2019_Dec_18_1412,ec_RRR,3.0.4,59.72802247664614,
Corneille and Mierop,"Dans cette tâche, la créature ciblée est Shelmet:","Ainsi, chaque fois que Shelmet (son nom ou sa photo) apparaît à l'écran, appuyez sur la barre d'espace le plus rapidement possible. Appuyez sur la barre d'espace chaque fois que vous voyez une image de Shelmet ou le mot SHELMET.

Appuyez sur la barre d'espace pour démarrer la tâche.",target2,stimuli/t2.jpg,64,65,stimuli/filler15.jpg,filler,False,None,,,,,,,,,,,,,,0,0,0,0,,,,,0,1,1,1,0,64,64,64,,,,,,,,,,,,,,,,,,,,,,,,,,,,,,,,,,,,,,,,,,,,,,,,,,,,,CS1_USpos,None,1,,,,,,,,,,,,,,,,,,20,male,64,n,2019_Dec_18_1412,ec_RRR,3.0.4,59.72802247664614,
Corneille and Mierop,"Dans cette tâche, la créature ciblée est Shelmet:","Ainsi, chaque fois que Shelmet (son nom ou sa photo) apparaît à l'écran, appuyez sur la barre d'espace le plus rapidement possible. Appuyez sur la barre d'espace chaque fois que vous voyez une image de Shelmet ou le mot SHELMET.

Appuyez sur la barre d'espace pour démarrer la tâche.",target2,stimuli/t2.jpg,64,66,stimuli/target2_5.jpg,target,True,space,,,,,,,,,,,,,,0,0,0,0,,,,,0,1,1,1,0,65,65,65,,,,,,,,,,,,,,,,,,,,,,,,,,,,,,,,,,,,,,,,,,,,,,,,,,,,,CS1_USpos,space,1,0.849077999999281,,,,,,,,,,,,,,,,,20,male,64,n,2019_Dec_18_1412,ec_RRR,3.0.4,59.72802247664614,
Corneille and Mierop,"Dans cette tâche, la créature ciblée est Shelmet:","Ainsi, chaque fois que Shelmet (son nom ou sa photo) apparaît à l'écran, appuyez sur la barre d'espace le plus rapidement possible. Appuyez sur la barre d'espace chaque fois que vous voyez une image de Shelmet ou le mot SHELMET.

Appuyez sur la barre d'espace pour démarrer la tâche.",target2,stimuli/t2.jpg,64,67,stimuli/filler35.jpg,filler,False,None,,,,,,,,,,,,,,0,0,0,0,,,,,0,1,1,1,0,66,66,66,,,,,,,,,,,,,,,,,,,,,,,,,,,,,,,,,,,,,,,,,,,,,,,,,,,,,CS1_USpos,None,1,,,,,,,,,,,,,,,,,,20,male,64,n,2019_Dec_18_1412,ec_RRR,3.0.4,59.72802247664614,
Corneille and Mierop,"Dans cette tâche, la créature ciblée est Shelmet:","Ainsi, chaque fois que Shelmet (son nom ou sa photo) apparaît à l'écran, appuyez sur la barre d'espace le plus rapidement possible. Appuyez sur la barre d'espace chaque fois que vous voyez une image de Shelmet ou le mot SHELMET.

Appuyez sur la barre d'espace pour démarrer la tâche.",target2,stimuli/t2.jpg,64,68,stimuli/target2_10.jpg,target,True,space,,,,,,,,,,,,,,0,0,0,0,,,,,0,1,1,1,0,67,67,67,,,,,,,,,,,,,,,,,,,,,,,,,,,,,,,,,,,,,,,,,,,,,,,,,,,,,CS1_USpos,space,1,0.5502731999986281,,,,,,,,,,,,,,,,,20,male,64,n,2019_Dec_18_1412,ec_RRR,3.0.4,59.72802247664614,
Corneille and Mierop,"Dans cette tâche, la créature ciblée est Shelmet:","Ainsi, chaque fois que Shelmet (son nom ou sa photo) apparaît à l'écran, appuyez sur la barre d'espace le plus rapidement possible. Appuyez sur la barre d'espace chaque fois que vous voyez une image de Shelmet ou le mot SHELMET.

Appuyez sur la barre d'espace pour démarrer la tâche.",target2,stimuli/t2.jpg,64,69,stimuli/filler29.jpg,filler,False,None,,,,,,,,,,,,,,0,0,0,0,,,,,0,1,1,1,0,68,68,68,,,,,,,,,,,,,,,,,,,,,,,,,,,,,,,,,,,,,,,,,,,,,,,,,,,,,CS1_USpos,None,1,,,,,,,,,,,,,,,,,,20,male,64,n,2019_Dec_18_1412,ec_RRR,3.0.4,59.72802247664614,
Corneille and Mierop,"Dans cette tâche, la créature ciblée est Shelmet:","Ainsi, chaque fois que Shelmet (son nom ou sa photo) apparaît à l'écran, appuyez sur la barre d'espace le plus rapidement possible. Appuyez sur la barre d'espace chaque fois que vous voyez une image de Shelmet ou le mot SHELMET.

Appuyez sur la barre d'espace pour démarrer la tâche.",target2,stimuli/t2.jpg,64,70,stimuli/blank.jpg,blank,False,None,,,,,,,,,,,,,,0,0,0,0,,,,,0,1,1,1,0,69,69,69,,,,,,,,,,,,,,,,,,,,,,,,,,,,,,,,,,,,,,,,,,,,,,,,,,,,,CS1_USpos,None,1,,,,,,,,,,,,,,,,,,20,male,64,n,2019_Dec_18_1412,ec_RRR,3.0.4,59.72802247664614,
Corneille and Mierop,"Dans cette tâche, la créature ciblée est Shelmet:","Ainsi, chaque fois que Shelmet (son nom ou sa photo) apparaît à l'écran, appuyez sur la barre d'espace le plus rapidement possible. Appuyez sur la barre d'espace chaque fois que vous voyez une image de Shelmet ou le mot SHELMET.

Appuyez sur la barre d'espace pour démarrer la tâche.",target2,stimuli/t2.jpg,64,71,stimuli/cs1_pos3.jpg,CSUS,False,None,,,,,,,,,,,,,,0,0,0,0,,,,,0,1,1,1,0,70,70,70,,,,,,,,,,,,,,,,,,,,,,,,,,,,,,,,,,,,,,,,,,,,,,,,,,,,,CS1_USpos,None,1,,,,,,,,,,,,,,,,,,20,male,64,n,2019_Dec_18_1412,ec_RRR,3.0.4,59.72802247664614,
