data_collection_site,instructions_text_top,instructions_text_bottom,block_id,example_image,participant,trial_number,stimulus,trial_type,target_trial,surveillance_correct_response,filler_1_items,filler_2_items,middle_text,left_text,right_text,evaluation_stimulus,left_stimulus,right_stimulus,evaluation_response_indicating_CS1_preferred,awareness_1_question_text,awareness_2a_question_text,awareness_2b_question_text,awareness_2_question_text,record_data_collection_site_variable.thisRepN,record_data_collection_site_variable.thisTrialN,record_data_collection_site_variable.thisN,record_data_collection_site_variable.thisIndex,surveillance_instructions_loop.thisRepN,surveillance_instructions_loop.thisTrialN,surveillance_instructions_loop.thisN,surveillance_instructions_loop.thisIndex,surveillance_blocks_loop.thisRepN,surveillance_blocks_loop.thisTrialN,surveillance_blocks_loop.thisN,surveillance_blocks_loop.thisIndex,surveillance_trials_loop.thisRepN,surveillance_trials_loop.thisTrialN,surveillance_trials_loop.thisN,surveillance_trials_loop.thisIndex,filler_1_instructions_loop.thisRepN,filler_1_instructions_loop.thisTrialN,filler_1_instructions_loop.thisN,filler_1_instructions_loop.thisIndex,filler_1_loop.thisRepN,filler_1_loop.thisTrialN,filler_1_loop.thisN,filler_1_loop.thisIndex,filler_2_instructions_loop.thisRepN,filler_2_instructions_loop.thisTrialN,filler_2_instructions_loop.thisN,filler_2_instructions_loop.thisIndex,filler_2_loop.thisRepN,filler_2_loop.thisTrialN,filler_2_loop.thisN,filler_2_loop.thisIndex,evaluation_instructions_loop.thisRepN,evaluation_instructions_loop.thisTrialN,evaluation_instructions_loop.thisN,evaluation_instructions_loop.thisIndex,evaluation_loop.thisRepN,evaluation_loop.thisTrialN,evaluation_loop.thisN,evaluation_loop.thisIndex,evaluation_trials.thisRepN,evaluation_trials.thisTrialN,evaluation_trials.thisN,evaluation_trials.thisIndex,awareness_instructions_loop.thisRepN,awareness_instructions_loop.thisTrialN,awareness_instructions_loop.thisN,awareness_instructions_loop.thisIndex,awareness_1_trials_loop.thisRepN,awareness_1_trials_loop.thisTrialN,awareness_1_trials_loop.thisN,awareness_1_trials_loop.thisIndex,awareness_2a_trials_loop.thisRepN,awareness_2a_trials_loop.thisTrialN,awareness_2a_trials_loop.thisN,awareness_2a_trials_loop.thisIndex,awareness_2b_trials_loop.thisRepN,awareness_2b_trials_loop.thisTrialN,awareness_2b_trials_loop.thisN,awareness_2b_trials_loop.thisIndex,awareness_2c_trials_loop.thisRepN,awareness_2c_trials_loop.thisTrialN,awareness_2c_trials_loop.thisN,awareness_2c_trials_loop.thisIndex,end_message_loop.thisRepN,end_message_loop.thisTrialN,end_message_loop.thisN,end_message_loop.thisIndex,condition,surveillance_response.keys,surveillance_response.corr,surveillance_response.rt,filler_1_rating.response,filler_1_rating.rt,filler_2_rating.response,filler_2_rating.rt,evaluation_response.keys,evaluation_response.corr,evaluation_response.rt,inputText,awareness_1_response.keys,awareness_1_response.rt,awareness_type_2a_rating.response,awareness_type_2a_rating.rt,awareness_type_2b_rating.response,awareness_type_2b_rating.rt,awareness_type_2c_rating.response,awareness_type_2c_rating.rt,age,gender,participant,UseMonkey,date,expName,psychopyVersion,frameRate,
Corneille and Mierop,"Dans cette tâche, la créature ciblée est Zorua:","Ainsi, chaque fois que Zorua (son nom ou sa photo) apparaît à l'écran, appuyez sur la barre d'espace le plus rapidement possible. Appuyez sur la barre d'espace chaque fois que vous voyez une image de Zorua ou le mot ZORUA.

Appuyez sur la barre d'espace pour démarrer la tâche.",target4,stimuli/t4.jpg,93,1,stimuli/filler10.jpg,filler,False,None,,,,,,,,,,,,,,0,0,0,0,,,,,0,0,0,3,0,0,0,0,,,,,,,,,,,,,,,,,,,,,,,,,,,,,,,,,,,,,,,,,,,,,,,,,,,,,CS1_USneg,None,1,,,,,,,,,,,,,,,,,,23,female,93,n,2019_Dec_22_1126,ec_RRR,3.0.4,60.12281889437066,
Corneille and Mierop,"Dans cette tâche, la créature ciblée est Zorua:","Ainsi, chaque fois que Zorua (son nom ou sa photo) apparaît à l'écran, appuyez sur la barre d'espace le plus rapidement possible. Appuyez sur la barre d'espace chaque fois que vous voyez une image de Zorua ou le mot ZORUA.

Appuyez sur la barre d'espace pour démarrer la tâche.",target4,stimuli/t4.jpg,93,2,stimuli/filler24.jpg,filler,False,None,,,,,,,,,,,,,,0,0,0,0,,,,,0,0,0,3,0,1,1,1,,,,,,,,,,,,,,,,,,,,,,,,,,,,,,,,,,,,,,,,,,,,,,,,,,,,,CS1_USneg,None,1,,,,,,,,,,,,,,,,,,23,female,93,n,2019_Dec_22_1126,ec_RRR,3.0.4,60.12281889437066,
Corneille and Mierop,"Dans cette tâche, la créature ciblée est Zorua:","Ainsi, chaque fois que Zorua (son nom ou sa photo) apparaît à l'écran, appuyez sur la barre d'espace le plus rapidement possible. Appuyez sur la barre d'espace chaque fois que vous voyez une image de Zorua ou le mot ZORUA.

Appuyez sur la barre d'espace pour démarrer la tâche.",target4,stimuli/t4.jpg,93,3,stimuli/target4_9.jpg,target,True,space,,,,,,,,,,,,,,0,0,0,0,,,,,0,0,0,3,0,2,2,2,,,,,,,,,,,,,,,,,,,,,,,,,,,,,,,,,,,,,,,,,,,,,,,,,,,,,CS1_USneg,space,1,0.5192779999997583,,,,,,,,,,,,,,,,,23,female,93,n,2019_Dec_22_1126,ec_RRR,3.0.4,60.12281889437066,
Corneille and Mierop,"Dans cette tâche, la créature ciblée est Zorua:","Ainsi, chaque fois que Zorua (son nom ou sa photo) apparaît à l'écran, appuyez sur la barre d'espace le plus rapidement possible. Appuyez sur la barre d'espace chaque fois que vous voyez une image de Zorua ou le mot ZORUA.

Appuyez sur la barre d'espace pour démarrer la tâche.",target4,stimuli/t4.jpg,93,4,stimuli/filler47.jpg,filler,False,None,,,,,,,,,,,,,,0,0,0,0,,,,,0,0,0,3,0,3,3,3,,,,,,,,,,,,,,,,,,,,,,,,,,,,,,,,,,,,,,,,,,,,,,,,,,,,,CS1_USneg,None,1,,,,,,,,,,,,,,,,,,23,female,93,n,2019_Dec_22_1126,ec_RRR,3.0.4,60.12281889437066,
Corneille and Mierop,"Dans cette tâche, la créature ciblée est Zorua:","Ainsi, chaque fois que Zorua (son nom ou sa photo) apparaît à l'écran, appuyez sur la barre d'espace le plus rapidement possible. Appuyez sur la barre d'espace chaque fois que vous voyez une image de Zorua ou le mot ZORUA.

Appuyez sur la barre d'espace pour démarrer la tâche.",target4,stimuli/t4.jpg,93,5,stimuli/filler20.jpg,filler,False,None,,,,,,,,,,,,,,0,0,0,0,,,,,0,0,0,3,0,4,4,4,,,,,,,,,,,,,,,,,,,,,,,,,,,,,,,,,,,,,,,,,,,,,,,,,,,,,CS1_USneg,None,1,,,,,,,,,,,,,,,,,,23,female,93,n,2019_Dec_22_1126,ec_RRR,3.0.4,60.12281889437066,
Corneille and Mierop,"Dans cette tâche, la créature ciblée est Zorua:","Ainsi, chaque fois que Zorua (son nom ou sa photo) apparaît à l'écran, appuyez sur la barre d'espace le plus rapidement possible. Appuyez sur la barre d'espace chaque fois que vous voyez une image de Zorua ou le mot ZORUA.

Appuyez sur la barre d'espace pour démarrer la tâche.",target4,stimuli/t4.jpg,93,6,stimuli/filler38.jpg,filler,False,None,,,,,,,,,,,,,,0,0,0,0,,,,,0,0,0,3,0,5,5,5,,,,,,,,,,,,,,,,,,,,,,,,,,,,,,,,,,,,,,,,,,,,,,,,,,,,,CS1_USneg,None,1,,,,,,,,,,,,,,,,,,23,female,93,n,2019_Dec_22_1126,ec_RRR,3.0.4,60.12281889437066,
Corneille and Mierop,"Dans cette tâche, la créature ciblée est Zorua:","Ainsi, chaque fois que Zorua (son nom ou sa photo) apparaît à l'écran, appuyez sur la barre d'espace le plus rapidement possible. Appuyez sur la barre d'espace chaque fois que vous voyez une image de Zorua ou le mot ZORUA.

Appuyez sur la barre d'espace pour démarrer la tâche.",target4,stimuli/t4.jpg,93,7,stimuli/filler11.jpg,filler,False,None,,,,,,,,,,,,,,0,0,0,0,,,,,0,0,0,3,0,6,6,6,,,,,,,,,,,,,,,,,,,,,,,,,,,,,,,,,,,,,,,,,,,,,,,,,,,,,CS1_USneg,None,1,,,,,,,,,,,,,,,,,,23,female,93,n,2019_Dec_22_1126,ec_RRR,3.0.4,60.12281889437066,
Corneille and Mierop,"Dans cette tâche, la créature ciblée est Zorua:","Ainsi, chaque fois que Zorua (son nom ou sa photo) apparaît à l'écran, appuyez sur la barre d'espace le plus rapidement possible. Appuyez sur la barre d'espace chaque fois que vous voyez une image de Zorua ou le mot ZORUA.

Appuyez sur la barre d'espace pour démarrer la tâche.",target4,stimuli/t4.jpg,93,8,stimuli/filler13.jpg,filler,False,None,,,,,,,,,,,,,,0,0,0,0,,,,,0,0,0,3,0,7,7,7,,,,,,,,,,,,,,,,,,,,,,,,,,,,,,,,,,,,,,,,,,,,,,,,,,,,,CS1_USneg,None,1,,,,,,,,,,,,,,,,,,23,female,93,n,2019_Dec_22_1126,ec_RRR,3.0.4,60.12281889437066,
Corneille and Mierop,"Dans cette tâche, la créature ciblée est Zorua:","Ainsi, chaque fois que Zorua (son nom ou sa photo) apparaît à l'écran, appuyez sur la barre d'espace le plus rapidement possible. Appuyez sur la barre d'espace chaque fois que vous voyez une image de Zorua ou le mot ZORUA.

Appuyez sur la barre d'espace pour démarrer la tâche.",target4,stimuli/t4.jpg,93,9,stimuli/filler19.jpg,filler,False,None,,,,,,,,,,,,,,0,0,0,0,,,,,0,0,0,3,0,8,8,8,,,,,,,,,,,,,,,,,,,,,,,,,,,,,,,,,,,,,,,,,,,,,,,,,,,,,CS1_USneg,None,1,,,,,,,,,,,,,,,,,,23,female,93,n,2019_Dec_22_1126,ec_RRR,3.0.4,60.12281889437066,
Corneille and Mierop,"Dans cette tâche, la créature ciblée est Zorua:","Ainsi, chaque fois que Zorua (son nom ou sa photo) apparaît à l'écran, appuyez sur la barre d'espace le plus rapidement possible. Appuyez sur la barre d'espace chaque fois que vous voyez une image de Zorua ou le mot ZORUA.

Appuyez sur la barre d'espace pour démarrer la tâche.",target4,stimuli/t4.jpg,93,10,stimuli/blank.jpg,blank,False,None,,,,,,,,,,,,,,0,0,0,0,,,,,0,0,0,3,0,9,9,9,,,,,,,,,,,,,,,,,,,,,,,,,,,,,,,,,,,,,,,,,,,,,,,,,,,,,CS1_USneg,None,1,,,,,,,,,,,,,,,,,,23,female,93,n,2019_Dec_22_1126,ec_RRR,3.0.4,60.12281889437066,
Corneille and Mierop,"Dans cette tâche, la créature ciblée est Zorua:","Ainsi, chaque fois que Zorua (son nom ou sa photo) apparaît à l'écran, appuyez sur la barre d'espace le plus rapidement possible. Appuyez sur la barre d'espace chaque fois que vous voyez une image de Zorua ou le mot ZORUA.

Appuyez sur la barre d'espace pour démarrer la tâche.",target4,stimuli/t4.jpg,93,11,stimuli/cs1_neg11.jpg,CSUS,False,None,,,,,,,,,,,,,,0,0,0,0,,,,,0,0,0,3,0,10,10,10,,,,,,,,,,,,,,,,,,,,,,,,,,,,,,,,,,,,,,,,,,,,,,,,,,,,,CS1_USneg,None,1,,,,,,,,,,,,,,,,,,23,female,93,n,2019_Dec_22_1126,ec_RRR,3.0.4,60.12281889437066,
Corneille and Mierop,"Dans cette tâche, la créature ciblée est Zorua:","Ainsi, chaque fois que Zorua (son nom ou sa photo) apparaît à l'écran, appuyez sur la barre d'espace le plus rapidement possible. Appuyez sur la barre d'espace chaque fois que vous voyez une image de Zorua ou le mot ZORUA.

Appuyez sur la barre d'espace pour démarrer la tâche.",target4,stimuli/t4.jpg,93,12,stimuli/blank.jpg,blank,False,None,,,,,,,,,,,,,,0,0,0,0,,,,,0,0,0,3,0,11,11,11,,,,,,,,,,,,,,,,,,,,,,,,,,,,,,,,,,,,,,,,,,,,,,,,,,,,,CS1_USneg,None,1,,,,,,,,,,,,,,,,,,23,female,93,n,2019_Dec_22_1126,ec_RRR,3.0.4,60.12281889437066,
Corneille and Mierop,"Dans cette tâche, la créature ciblée est Zorua:","Ainsi, chaque fois que Zorua (son nom ou sa photo) apparaît à l'écran, appuyez sur la barre d'espace le plus rapidement possible. Appuyez sur la barre d'espace chaque fois que vous voyez une image de Zorua ou le mot ZORUA.

Appuyez sur la barre d'espace pour démarrer la tâche.",target4,stimuli/t4.jpg,93,13,stimuli/filler34.jpg,filler,False,None,,,,,,,,,,,,,,0,0,0,0,,,,,0,0,0,3,0,12,12,12,,,,,,,,,,,,,,,,,,,,,,,,,,,,,,,,,,,,,,,,,,,,,,,,,,,,,CS1_USneg,None,1,,,,,,,,,,,,,,,,,,23,female,93,n,2019_Dec_22_1126,ec_RRR,3.0.4,60.12281889437066,
Corneille and Mierop,"Dans cette tâche, la créature ciblée est Zorua:","Ainsi, chaque fois que Zorua (son nom ou sa photo) apparaît à l'écran, appuyez sur la barre d'espace le plus rapidement possible. Appuyez sur la barre d'espace chaque fois que vous voyez une image de Zorua ou le mot ZORUA.

Appuyez sur la barre d'espace pour démarrer la tâche.",target4,stimuli/t4.jpg,93,14,stimuli/filler45.jpg,filler,False,None,,,,,,,,,,,,,,0,0,0,0,,,,,0,0,0,3,0,13,13,13,,,,,,,,,,,,,,,,,,,,,,,,,,,,,,,,,,,,,,,,,,,,,,,,,,,,,CS1_USneg,None,1,,,,,,,,,,,,,,,,,,23,female,93,n,2019_Dec_22_1126,ec_RRR,3.0.4,60.12281889437066,
Corneille and Mierop,"Dans cette tâche, la créature ciblée est Zorua:","Ainsi, chaque fois que Zorua (son nom ou sa photo) apparaît à l'écran, appuyez sur la barre d'espace le plus rapidement possible. Appuyez sur la barre d'espace chaque fois que vous voyez une image de Zorua ou le mot ZORUA.

Appuyez sur la barre d'espace pour démarrer la tâche.",target4,stimuli/t4.jpg,93,15,stimuli/filler7.jpg,filler,False,None,,,,,,,,,,,,,,0,0,0,0,,,,,0,0,0,3,0,14,14,14,,,,,,,,,,,,,,,,,,,,,,,,,,,,,,,,,,,,,,,,,,,,,,,,,,,,,CS1_USneg,None,1,,,,,,,,,,,,,,,,,,23,female,93,n,2019_Dec_22_1126,ec_RRR,3.0.4,60.12281889437066,
Corneille and Mierop,"Dans cette tâche, la créature ciblée est Zorua:","Ainsi, chaque fois que Zorua (son nom ou sa photo) apparaît à l'écran, appuyez sur la barre d'espace le plus rapidement possible. Appuyez sur la barre d'espace chaque fois que vous voyez une image de Zorua ou le mot ZORUA.

Appuyez sur la barre d'espace pour démarrer la tâche.",target4,stimuli/t4.jpg,93,16,stimuli/filler50.jpg,filler,False,None,,,,,,,,,,,,,,0,0,0,0,,,,,0,0,0,3,0,15,15,15,,,,,,,,,,,,,,,,,,,,,,,,,,,,,,,,,,,,,,,,,,,,,,,,,,,,,CS1_USneg,None,1,,,,,,,,,,,,,,,,,,23,female,93,n,2019_Dec_22_1126,ec_RRR,3.0.4,60.12281889437066,
Corneille and Mierop,"Dans cette tâche, la créature ciblée est Zorua:","Ainsi, chaque fois que Zorua (son nom ou sa photo) apparaît à l'écran, appuyez sur la barre d'espace le plus rapidement possible. Appuyez sur la barre d'espace chaque fois que vous voyez une image de Zorua ou le mot ZORUA.

Appuyez sur la barre d'espace pour démarrer la tâche.",target4,stimuli/t4.jpg,93,17,stimuli/target4_7.jpg,target,True,space,,,,,,,,,,,,,,0,0,0,0,,,,,0,0,0,3,0,16,16,16,,,,,,,,,,,,,,,,,,,,,,,,,,,,,,,,,,,,,,,,,,,,,,,,,,,,,CS1_USneg,space,1,0.7332900000001246,,,,,,,,,,,,,,,,,23,female,93,n,2019_Dec_22_1126,ec_RRR,3.0.4,60.12281889437066,
Corneille and Mierop,"Dans cette tâche, la créature ciblée est Zorua:","Ainsi, chaque fois que Zorua (son nom ou sa photo) apparaît à l'écran, appuyez sur la barre d'espace le plus rapidement possible. Appuyez sur la barre d'espace chaque fois que vous voyez une image de Zorua ou le mot ZORUA.

Appuyez sur la barre d'espace pour démarrer la tâche.",target4,stimuli/t4.jpg,93,18,stimuli/target4_3.jpg,target,True,space,,,,,,,,,,,,,,0,0,0,0,,,,,0,0,0,3,0,17,17,17,,,,,,,,,,,,,,,,,,,,,,,,,,,,,,,,,,,,,,,,,,,,,,,,,,,,,CS1_USneg,space,1,1.101813500001299,,,,,,,,,,,,,,,,,23,female,93,n,2019_Dec_22_1126,ec_RRR,3.0.4,60.12281889437066,
Corneille and Mierop,"Dans cette tâche, la créature ciblée est Zorua:","Ainsi, chaque fois que Zorua (son nom ou sa photo) apparaît à l'écran, appuyez sur la barre d'espace le plus rapidement possible. Appuyez sur la barre d'espace chaque fois que vous voyez une image de Zorua ou le mot ZORUA.

Appuyez sur la barre d'espace pour démarrer la tâche.",target4,stimuli/t4.jpg,93,19,stimuli/filler23.jpg,filler,False,None,,,,,,,,,,,,,,0,0,0,0,,,,,0,0,0,3,0,18,18,18,,,,,,,,,,,,,,,,,,,,,,,,,,,,,,,,,,,,,,,,,,,,,,,,,,,,,CS1_USneg,None,1,,,,,,,,,,,,,,,,,,23,female,93,n,2019_Dec_22_1126,ec_RRR,3.0.4,60.12281889437066,
Corneille and Mierop,"Dans cette tâche, la créature ciblée est Zorua:","Ainsi, chaque fois que Zorua (son nom ou sa photo) apparaît à l'écran, appuyez sur la barre d'espace le plus rapidement possible. Appuyez sur la barre d'espace chaque fois que vous voyez une image de Zorua ou le mot ZORUA.

Appuyez sur la barre d'espace pour démarrer la tâche.",target4,stimuli/t4.jpg,93,20,stimuli/blank.jpg,blank,False,None,,,,,,,,,,,,,,0,0,0,0,,,,,0,0,0,3,0,19,19,19,,,,,,,,,,,,,,,,,,,,,,,,,,,,,,,,,,,,,,,,,,,,,,,,,,,,,CS1_USneg,None,1,,,,,,,,,,,,,,,,,,23,female,93,n,2019_Dec_22_1126,ec_RRR,3.0.4,60.12281889437066,
Corneille and Mierop,"Dans cette tâche, la créature ciblée est Zorua:","Ainsi, chaque fois que Zorua (son nom ou sa photo) apparaît à l'écran, appuyez sur la barre d'espace le plus rapidement possible. Appuyez sur la barre d'espace chaque fois que vous voyez une image de Zorua ou le mot ZORUA.

Appuyez sur la barre d'espace pour démarrer la tâche.",target4,stimuli/t4.jpg,93,21,stimuli/cs2_pos18.jpg,CSUS,False,None,,,,,,,,,,,,,,0,0,0,0,,,,,0,0,0,3,0,20,20,20,,,,,,,,,,,,,,,,,,,,,,,,,,,,,,,,,,,,,,,,,,,,,,,,,,,,,CS1_USneg,None,1,,,,,,,,,,,,,,,,,,23,female,93,n,2019_Dec_22_1126,ec_RRR,3.0.4,60.12281889437066,
Corneille and Mierop,"Dans cette tâche, la créature ciblée est Zorua:","Ainsi, chaque fois que Zorua (son nom ou sa photo) apparaît à l'écran, appuyez sur la barre d'espace le plus rapidement possible. Appuyez sur la barre d'espace chaque fois que vous voyez une image de Zorua ou le mot ZORUA.

Appuyez sur la barre d'espace pour démarrer la tâche.",target4,stimuli/t4.jpg,93,22,stimuli/blank.jpg,blank,False,None,,,,,,,,,,,,,,0,0,0,0,,,,,0,0,0,3,0,21,21,21,,,,,,,,,,,,,,,,,,,,,,,,,,,,,,,,,,,,,,,,,,,,,,,,,,,,,CS1_USneg,None,1,,,,,,,,,,,,,,,,,,23,female,93,n,2019_Dec_22_1126,ec_RRR,3.0.4,60.12281889437066,
Corneille and Mierop,"Dans cette tâche, la créature ciblée est Zorua:","Ainsi, chaque fois que Zorua (son nom ou sa photo) apparaît à l'écran, appuyez sur la barre d'espace le plus rapidement possible. Appuyez sur la barre d'espace chaque fois que vous voyez une image de Zorua ou le mot ZORUA.

Appuyez sur la barre d'espace pour démarrer la tâche.",target4,stimuli/t4.jpg,93,23,stimuli/filler35.jpg,filler,False,None,,,,,,,,,,,,,,0,0,0,0,,,,,0,0,0,3,0,22,22,22,,,,,,,,,,,,,,,,,,,,,,,,,,,,,,,,,,,,,,,,,,,,,,,,,,,,,CS1_USneg,None,1,,,,,,,,,,,,,,,,,,23,female,93,n,2019_Dec_22_1126,ec_RRR,3.0.4,60.12281889437066,
Corneille and Mierop,"Dans cette tâche, la créature ciblée est Zorua:","Ainsi, chaque fois que Zorua (son nom ou sa photo) apparaît à l'écran, appuyez sur la barre d'espace le plus rapidement possible. Appuyez sur la barre d'espace chaque fois que vous voyez une image de Zorua ou le mot ZORUA.

Appuyez sur la barre d'espace pour démarrer la tâche.",target4,stimuli/t4.jpg,93,24,stimuli/target4_6.jpg,target,True,space,,,,,,,,,,,,,,0,0,0,0,,,,,0,0,0,3,0,23,23,23,,,,,,,,,,,,,,,,,,,,,,,,,,,,,,,,,,,,,,,,,,,,,,,,,,,,,CS1_USneg,space,1,0.6325102000009792,,,,,,,,,,,,,,,,,23,female,93,n,2019_Dec_22_1126,ec_RRR,3.0.4,60.12281889437066,
Corneille and Mierop,"Dans cette tâche, la créature ciblée est Zorua:","Ainsi, chaque fois que Zorua (son nom ou sa photo) apparaît à l'écran, appuyez sur la barre d'espace le plus rapidement possible. Appuyez sur la barre d'espace chaque fois que vous voyez une image de Zorua ou le mot ZORUA.

Appuyez sur la barre d'espace pour démarrer la tâche.",target4,stimuli/t4.jpg,93,25,stimuli/target4_4.jpg,target,True,space,,,,,,,,,,,,,,0,0,0,0,,,,,0,0,0,3,0,24,24,24,,,,,,,,,,,,,,,,,,,,,,,,,,,,,,,,,,,,,,,,,,,,,,,,,,,,,CS1_USneg,space,1,0.7081633999987389,,,,,,,,,,,,,,,,,23,female,93,n,2019_Dec_22_1126,ec_RRR,3.0.4,60.12281889437066,
Corneille and Mierop,"Dans cette tâche, la créature ciblée est Zorua:","Ainsi, chaque fois que Zorua (son nom ou sa photo) apparaît à l'écran, appuyez sur la barre d'espace le plus rapidement possible. Appuyez sur la barre d'espace chaque fois que vous voyez une image de Zorua ou le mot ZORUA.

Appuyez sur la barre d'espace pour démarrer la tâche.",target4,stimuli/t4.jpg,93,26,stimuli/filler17.jpg,filler,False,None,,,,,,,,,,,,,,0,0,0,0,,,,,0,0,0,3,0,25,25,25,,,,,,,,,,,,,,,,,,,,,,,,,,,,,,,,,,,,,,,,,,,,,,,,,,,,,CS1_USneg,None,1,,,,,,,,,,,,,,,,,,23,female,93,n,2019_Dec_22_1126,ec_RRR,3.0.4,60.12281889437066,
Corneille and Mierop,"Dans cette tâche, la créature ciblée est Zorua:","Ainsi, chaque fois que Zorua (son nom ou sa photo) apparaît à l'écran, appuyez sur la barre d'espace le plus rapidement possible. Appuyez sur la barre d'espace chaque fois que vous voyez une image de Zorua ou le mot ZORUA.

Appuyez sur la barre d'espace pour démarrer la tâche.",target4,stimuli/t4.jpg,93,27,stimuli/filler48.jpg,filler,False,None,,,,,,,,,,,,,,0,0,0,0,,,,,0,0,0,3,0,26,26,26,,,,,,,,,,,,,,,,,,,,,,,,,,,,,,,,,,,,,,,,,,,,,,,,,,,,,CS1_USneg,None,1,,,,,,,,,,,,,,,,,,23,female,93,n,2019_Dec_22_1126,ec_RRR,3.0.4,60.12281889437066,
Corneille and Mierop,"Dans cette tâche, la créature ciblée est Zorua:","Ainsi, chaque fois que Zorua (son nom ou sa photo) apparaît à l'écran, appuyez sur la barre d'espace le plus rapidement possible. Appuyez sur la barre d'espace chaque fois que vous voyez une image de Zorua ou le mot ZORUA.

Appuyez sur la barre d'espace pour démarrer la tâche.",target4,stimuli/t4.jpg,93,28,stimuli/filler5.jpg,filler,False,None,,,,,,,,,,,,,,0,0,0,0,,,,,0,0,0,3,0,27,27,27,,,,,,,,,,,,,,,,,,,,,,,,,,,,,,,,,,,,,,,,,,,,,,,,,,,,,CS1_USneg,None,1,,,,,,,,,,,,,,,,,,23,female,93,n,2019_Dec_22_1126,ec_RRR,3.0.4,60.12281889437066,
Corneille and Mierop,"Dans cette tâche, la créature ciblée est Zorua:","Ainsi, chaque fois que Zorua (son nom ou sa photo) apparaît à l'écran, appuyez sur la barre d'espace le plus rapidement possible. Appuyez sur la barre d'espace chaque fois que vous voyez une image de Zorua ou le mot ZORUA.

Appuyez sur la barre d'espace pour démarrer la tâche.",target4,stimuli/t4.jpg,93,29,stimuli/filler9.jpg,filler,False,None,,,,,,,,,,,,,,0,0,0,0,,,,,0,0,0,3,0,28,28,28,,,,,,,,,,,,,,,,,,,,,,,,,,,,,,,,,,,,,,,,,,,,,,,,,,,,,CS1_USneg,None,1,,,,,,,,,,,,,,,,,,23,female,93,n,2019_Dec_22_1126,ec_RRR,3.0.4,60.12281889437066,
Corneille and Mierop,"Dans cette tâche, la créature ciblée est Zorua:","Ainsi, chaque fois que Zorua (son nom ou sa photo) apparaît à l'écran, appuyez sur la barre d'espace le plus rapidement possible. Appuyez sur la barre d'espace chaque fois que vous voyez une image de Zorua ou le mot ZORUA.

Appuyez sur la barre d'espace pour démarrer la tâche.",target4,stimuli/t4.jpg,93,30,stimuli/blank.jpg,blank,False,None,,,,,,,,,,,,,,0,0,0,0,,,,,0,0,0,3,0,29,29,29,,,,,,,,,,,,,,,,,,,,,,,,,,,,,,,,,,,,,,,,,,,,,,,,,,,,,CS1_USneg,None,1,,,,,,,,,,,,,,,,,,23,female,93,n,2019_Dec_22_1126,ec_RRR,3.0.4,60.12281889437066,
Corneille and Mierop,"Dans cette tâche, la créature ciblée est Zorua:","Ainsi, chaque fois que Zorua (son nom ou sa photo) apparaît à l'écran, appuyez sur la barre d'espace le plus rapidement possible. Appuyez sur la barre d'espace chaque fois que vous voyez une image de Zorua ou le mot ZORUA.

Appuyez sur la barre d'espace pour démarrer la tâche.",target4,stimuli/t4.jpg,93,31,stimuli/cs1_neg12.jpg,CSUS,False,None,,,,,,,,,,,,,,0,0,0,0,,,,,0,0,0,3,0,30,30,30,,,,,,,,,,,,,,,,,,,,,,,,,,,,,,,,,,,,,,,,,,,,,,,,,,,,,CS1_USneg,None,1,,,,,,,,,,,,,,,,,,23,female,93,n,2019_Dec_22_1126,ec_RRR,3.0.4,60.12281889437066,
Corneille and Mierop,"Dans cette tâche, la créature ciblée est Zorua:","Ainsi, chaque fois que Zorua (son nom ou sa photo) apparaît à l'écran, appuyez sur la barre d'espace le plus rapidement possible. Appuyez sur la barre d'espace chaque fois que vous voyez une image de Zorua ou le mot ZORUA.

Appuyez sur la barre d'espace pour démarrer la tâche.",target4,stimuli/t4.jpg,93,32,stimuli/blank.jpg,blank,False,None,,,,,,,,,,,,,,0,0,0,0,,,,,0,0,0,3,0,31,31,31,,,,,,,,,,,,,,,,,,,,,,,,,,,,,,,,,,,,,,,,,,,,,,,,,,,,,CS1_USneg,None,1,,,,,,,,,,,,,,,,,,23,female,93,n,2019_Dec_22_1126,ec_RRR,3.0.4,60.12281889437066,
Corneille and Mierop,"Dans cette tâche, la créature ciblée est Zorua:","Ainsi, chaque fois que Zorua (son nom ou sa photo) apparaît à l'écran, appuyez sur la barre d'espace le plus rapidement possible. Appuyez sur la barre d'espace chaque fois que vous voyez une image de Zorua ou le mot ZORUA.

Appuyez sur la barre d'espace pour démarrer la tâche.",target4,stimuli/t4.jpg,93,33,stimuli/filler15.jpg,filler,False,None,,,,,,,,,,,,,,0,0,0,0,,,,,0,0,0,3,0,32,32,32,,,,,,,,,,,,,,,,,,,,,,,,,,,,,,,,,,,,,,,,,,,,,,,,,,,,,CS1_USneg,None,1,,,,,,,,,,,,,,,,,,23,female,93,n,2019_Dec_22_1126,ec_RRR,3.0.4,60.12281889437066,
Corneille and Mierop,"Dans cette tâche, la créature ciblée est Zorua:","Ainsi, chaque fois que Zorua (son nom ou sa photo) apparaît à l'écran, appuyez sur la barre d'espace le plus rapidement possible. Appuyez sur la barre d'espace chaque fois que vous voyez une image de Zorua ou le mot ZORUA.

Appuyez sur la barre d'espace pour démarrer la tâche.",target4,stimuli/t4.jpg,93,34,stimuli/filler27.jpg,filler,False,None,,,,,,,,,,,,,,0,0,0,0,,,,,0,0,0,3,0,33,33,33,,,,,,,,,,,,,,,,,,,,,,,,,,,,,,,,,,,,,,,,,,,,,,,,,,,,,CS1_USneg,None,1,,,,,,,,,,,,,,,,,,23,female,93,n,2019_Dec_22_1126,ec_RRR,3.0.4,60.12281889437066,
Corneille and Mierop,"Dans cette tâche, la créature ciblée est Zorua:","Ainsi, chaque fois que Zorua (son nom ou sa photo) apparaît à l'écran, appuyez sur la barre d'espace le plus rapidement possible. Appuyez sur la barre d'espace chaque fois que vous voyez une image de Zorua ou le mot ZORUA.

Appuyez sur la barre d'espace pour démarrer la tâche.",target4,stimuli/t4.jpg,93,35,stimuli/filler41.jpg,filler,False,None,,,,,,,,,,,,,,0,0,0,0,,,,,0,0,0,3,0,34,34,34,,,,,,,,,,,,,,,,,,,,,,,,,,,,,,,,,,,,,,,,,,,,,,,,,,,,,CS1_USneg,None,1,,,,,,,,,,,,,,,,,,23,female,93,n,2019_Dec_22_1126,ec_RRR,3.0.4,60.12281889437066,
Corneille and Mierop,"Dans cette tâche, la créature ciblée est Zorua:","Ainsi, chaque fois que Zorua (son nom ou sa photo) apparaît à l'écran, appuyez sur la barre d'espace le plus rapidement possible. Appuyez sur la barre d'espace chaque fois que vous voyez une image de Zorua ou le mot ZORUA.

Appuyez sur la barre d'espace pour démarrer la tâche.",target4,stimuli/t4.jpg,93,36,stimuli/filler51.jpg,filler,False,None,,,,,,,,,,,,,,0,0,0,0,,,,,0,0,0,3,0,35,35,35,,,,,,,,,,,,,,,,,,,,,,,,,,,,,,,,,,,,,,,,,,,,,,,,,,,,,CS1_USneg,None,1,,,,,,,,,,,,,,,,,,23,female,93,n,2019_Dec_22_1126,ec_RRR,3.0.4,60.12281889437066,
Corneille and Mierop,"Dans cette tâche, la créature ciblée est Zorua:","Ainsi, chaque fois que Zorua (son nom ou sa photo) apparaît à l'écran, appuyez sur la barre d'espace le plus rapidement possible. Appuyez sur la barre d'espace chaque fois que vous voyez une image de Zorua ou le mot ZORUA.

Appuyez sur la barre d'espace pour démarrer la tâche.",target4,stimuli/t4.jpg,93,37,stimuli/filler21.jpg,filler,False,None,,,,,,,,,,,,,,0,0,0,0,,,,,0,0,0,3,0,36,36,36,,,,,,,,,,,,,,,,,,,,,,,,,,,,,,,,,,,,,,,,,,,,,,,,,,,,,CS1_USneg,None,1,,,,,,,,,,,,,,,,,,23,female,93,n,2019_Dec_22_1126,ec_RRR,3.0.4,60.12281889437066,
Corneille and Mierop,"Dans cette tâche, la créature ciblée est Zorua:","Ainsi, chaque fois que Zorua (son nom ou sa photo) apparaît à l'écran, appuyez sur la barre d'espace le plus rapidement possible. Appuyez sur la barre d'espace chaque fois que vous voyez une image de Zorua ou le mot ZORUA.

Appuyez sur la barre d'espace pour démarrer la tâche.",target4,stimuli/t4.jpg,93,38,stimuli/filler32.jpg,filler,False,None,,,,,,,,,,,,,,0,0,0,0,,,,,0,0,0,3,0,37,37,37,,,,,,,,,,,,,,,,,,,,,,,,,,,,,,,,,,,,,,,,,,,,,,,,,,,,,CS1_USneg,None,1,,,,,,,,,,,,,,,,,,23,female,93,n,2019_Dec_22_1126,ec_RRR,3.0.4,60.12281889437066,
Corneille and Mierop,"Dans cette tâche, la créature ciblée est Zorua:","Ainsi, chaque fois que Zorua (son nom ou sa photo) apparaît à l'écran, appuyez sur la barre d'espace le plus rapidement possible. Appuyez sur la barre d'espace chaque fois que vous voyez une image de Zorua ou le mot ZORUA.

Appuyez sur la barre d'espace pour démarrer la tâche.",target4,stimuli/t4.jpg,93,39,stimuli/filler44.jpg,filler,False,None,,,,,,,,,,,,,,0,0,0,0,,,,,0,0,0,3,0,38,38,38,,,,,,,,,,,,,,,,,,,,,,,,,,,,,,,,,,,,,,,,,,,,,,,,,,,,,CS1_USneg,None,1,,,,,,,,,,,,,,,,,,23,female,93,n,2019_Dec_22_1126,ec_RRR,3.0.4,60.12281889437066,
Corneille and Mierop,"Dans cette tâche, la créature ciblée est Zorua:","Ainsi, chaque fois que Zorua (son nom ou sa photo) apparaît à l'écran, appuyez sur la barre d'espace le plus rapidement possible. Appuyez sur la barre d'espace chaque fois que vous voyez une image de Zorua ou le mot ZORUA.

Appuyez sur la barre d'espace pour démarrer la tâche.",target4,stimuli/t4.jpg,93,40,stimuli/blank.jpg,blank,False,None,,,,,,,,,,,,,,0,0,0,0,,,,,0,0,0,3,0,39,39,39,,,,,,,,,,,,,,,,,,,,,,,,,,,,,,,,,,,,,,,,,,,,,,,,,,,,,CS1_USneg,None,1,,,,,,,,,,,,,,,,,,23,female,93,n,2019_Dec_22_1126,ec_RRR,3.0.4,60.12281889437066,
Corneille and Mierop,"Dans cette tâche, la créature ciblée est Zorua:","Ainsi, chaque fois que Zorua (son nom ou sa photo) apparaît à l'écran, appuyez sur la barre d'espace le plus rapidement possible. Appuyez sur la barre d'espace chaque fois que vous voyez une image de Zorua ou le mot ZORUA.

Appuyez sur la barre d'espace pour démarrer la tâche.",target4,stimuli/t4.jpg,93,41,stimuli/cs2_pos10.jpg,CSUS,False,None,,,,,,,,,,,,,,0,0,0,0,,,,,0,0,0,3,0,40,40,40,,,,,,,,,,,,,,,,,,,,,,,,,,,,,,,,,,,,,,,,,,,,,,,,,,,,,CS1_USneg,None,1,,,,,,,,,,,,,,,,,,23,female,93,n,2019_Dec_22_1126,ec_RRR,3.0.4,60.12281889437066,
Corneille and Mierop,"Dans cette tâche, la créature ciblée est Zorua:","Ainsi, chaque fois que Zorua (son nom ou sa photo) apparaît à l'écran, appuyez sur la barre d'espace le plus rapidement possible. Appuyez sur la barre d'espace chaque fois que vous voyez une image de Zorua ou le mot ZORUA.

Appuyez sur la barre d'espace pour démarrer la tâche.",target4,stimuli/t4.jpg,93,42,stimuli/blank.jpg,blank,False,None,,,,,,,,,,,,,,0,0,0,0,,,,,0,0,0,3,0,41,41,41,,,,,,,,,,,,,,,,,,,,,,,,,,,,,,,,,,,,,,,,,,,,,,,,,,,,,CS1_USneg,None,1,,,,,,,,,,,,,,,,,,23,female,93,n,2019_Dec_22_1126,ec_RRR,3.0.4,60.12281889437066,
Corneille and Mierop,"Dans cette tâche, la créature ciblée est Zorua:","Ainsi, chaque fois que Zorua (son nom ou sa photo) apparaît à l'écran, appuyez sur la barre d'espace le plus rapidement possible. Appuyez sur la barre d'espace chaque fois que vous voyez une image de Zorua ou le mot ZORUA.

Appuyez sur la barre d'espace pour démarrer la tâche.",target4,stimuli/t4.jpg,93,43,stimuli/filler30.jpg,filler,False,None,,,,,,,,,,,,,,0,0,0,0,,,,,0,0,0,3,0,42,42,42,,,,,,,,,,,,,,,,,,,,,,,,,,,,,,,,,,,,,,,,,,,,,,,,,,,,,CS1_USneg,None,1,,,,,,,,,,,,,,,,,,23,female,93,n,2019_Dec_22_1126,ec_RRR,3.0.4,60.12281889437066,
Corneille and Mierop,"Dans cette tâche, la créature ciblée est Zorua:","Ainsi, chaque fois que Zorua (son nom ou sa photo) apparaît à l'écran, appuyez sur la barre d'espace le plus rapidement possible. Appuyez sur la barre d'espace chaque fois que vous voyez une image de Zorua ou le mot ZORUA.

Appuyez sur la barre d'espace pour démarrer la tâche.",target4,stimuli/t4.jpg,93,44,stimuli/filler39.jpg,filler,False,None,,,,,,,,,,,,,,0,0,0,0,,,,,0,0,0,3,0,43,43,43,,,,,,,,,,,,,,,,,,,,,,,,,,,,,,,,,,,,,,,,,,,,,,,,,,,,,CS1_USneg,None,1,,,,,,,,,,,,,,,,,,23,female,93,n,2019_Dec_22_1126,ec_RRR,3.0.4,60.12281889437066,
Corneille and Mierop,"Dans cette tâche, la créature ciblée est Zorua:","Ainsi, chaque fois que Zorua (son nom ou sa photo) apparaît à l'écran, appuyez sur la barre d'espace le plus rapidement possible. Appuyez sur la barre d'espace chaque fois que vous voyez une image de Zorua ou le mot ZORUA.

Appuyez sur la barre d'espace pour démarrer la tâche.",target4,stimuli/t4.jpg,93,45,stimuli/filler31.jpg,filler,False,None,,,,,,,,,,,,,,0,0,0,0,,,,,0,0,0,3,0,44,44,44,,,,,,,,,,,,,,,,,,,,,,,,,,,,,,,,,,,,,,,,,,,,,,,,,,,,,CS1_USneg,None,1,,,,,,,,,,,,,,,,,,23,female,93,n,2019_Dec_22_1126,ec_RRR,3.0.4,60.12281889437066,
Corneille and Mierop,"Dans cette tâche, la créature ciblée est Zorua:","Ainsi, chaque fois que Zorua (son nom ou sa photo) apparaît à l'écran, appuyez sur la barre d'espace le plus rapidement possible. Appuyez sur la barre d'espace chaque fois que vous voyez une image de Zorua ou le mot ZORUA.

Appuyez sur la barre d'espace pour démarrer la tâche.",target4,stimuli/t4.jpg,93,46,stimuli/target4_1.jpg,target,True,space,,,,,,,,,,,,,,0,0,0,0,,,,,0,0,0,3,0,45,45,45,,,,,,,,,,,,,,,,,,,,,,,,,,,,,,,,,,,,,,,,,,,,,,,,,,,,,CS1_USneg,space,1,0.6322853999990912,,,,,,,,,,,,,,,,,23,female,93,n,2019_Dec_22_1126,ec_RRR,3.0.4,60.12281889437066,
Corneille and Mierop,"Dans cette tâche, la créature ciblée est Zorua:","Ainsi, chaque fois que Zorua (son nom ou sa photo) apparaît à l'écran, appuyez sur la barre d'espace le plus rapidement possible. Appuyez sur la barre d'espace chaque fois que vous voyez une image de Zorua ou le mot ZORUA.

Appuyez sur la barre d'espace pour démarrer la tâche.",target4,stimuli/t4.jpg,93,47,stimuli/filler18.jpg,filler,False,None,,,,,,,,,,,,,,0,0,0,0,,,,,0,0,0,3,0,46,46,46,,,,,,,,,,,,,,,,,,,,,,,,,,,,,,,,,,,,,,,,,,,,,,,,,,,,,CS1_USneg,None,1,,,,,,,,,,,,,,,,,,23,female,93,n,2019_Dec_22_1126,ec_RRR,3.0.4,60.12281889437066,
Corneille and Mierop,"Dans cette tâche, la créature ciblée est Zorua:","Ainsi, chaque fois que Zorua (son nom ou sa photo) apparaît à l'écran, appuyez sur la barre d'espace le plus rapidement possible. Appuyez sur la barre d'espace chaque fois que vous voyez une image de Zorua ou le mot ZORUA.

Appuyez sur la barre d'espace pour démarrer la tâche.",target4,stimuli/t4.jpg,93,48,stimuli/filler8.jpg,filler,False,None,,,,,,,,,,,,,,0,0,0,0,,,,,0,0,0,3,0,47,47,47,,,,,,,,,,,,,,,,,,,,,,,,,,,,,,,,,,,,,,,,,,,,,,,,,,,,,CS1_USneg,None,1,,,,,,,,,,,,,,,,,,23,female,93,n,2019_Dec_22_1126,ec_RRR,3.0.4,60.12281889437066,
Corneille and Mierop,"Dans cette tâche, la créature ciblée est Zorua:","Ainsi, chaque fois que Zorua (son nom ou sa photo) apparaît à l'écran, appuyez sur la barre d'espace le plus rapidement possible. Appuyez sur la barre d'espace chaque fois que vous voyez une image de Zorua ou le mot ZORUA.

Appuyez sur la barre d'espace pour démarrer la tâche.",target4,stimuli/t4.jpg,93,49,stimuli/filler1.jpg,filler,False,None,,,,,,,,,,,,,,0,0,0,0,,,,,0,0,0,3,0,48,48,48,,,,,,,,,,,,,,,,,,,,,,,,,,,,,,,,,,,,,,,,,,,,,,,,,,,,,CS1_USneg,None,1,,,,,,,,,,,,,,,,,,23,female,93,n,2019_Dec_22_1126,ec_RRR,3.0.4,60.12281889437066,
Corneille and Mierop,"Dans cette tâche, la créature ciblée est Zorua:","Ainsi, chaque fois que Zorua (son nom ou sa photo) apparaît à l'écran, appuyez sur la barre d'espace le plus rapidement possible. Appuyez sur la barre d'espace chaque fois que vous voyez une image de Zorua ou le mot ZORUA.

Appuyez sur la barre d'espace pour démarrer la tâche.",target4,stimuli/t4.jpg,93,50,stimuli/blank.jpg,blank,False,None,,,,,,,,,,,,,,0,0,0,0,,,,,0,0,0,3,0,49,49,49,,,,,,,,,,,,,,,,,,,,,,,,,,,,,,,,,,,,,,,,,,,,,,,,,,,,,CS1_USneg,None,1,,,,,,,,,,,,,,,,,,23,female,93,n,2019_Dec_22_1126,ec_RRR,3.0.4,60.12281889437066,
Corneille and Mierop,"Dans cette tâche, la créature ciblée est Zorua:","Ainsi, chaque fois que Zorua (son nom ou sa photo) apparaît à l'écran, appuyez sur la barre d'espace le plus rapidement possible. Appuyez sur la barre d'espace chaque fois que vous voyez une image de Zorua ou le mot ZORUA.

Appuyez sur la barre d'espace pour démarrer la tâche.",target4,stimuli/t4.jpg,93,51,stimuli/cs1_neg6.jpg,CSUS,False,None,,,,,,,,,,,,,,0,0,0,0,,,,,0,0,0,3,0,50,50,50,,,,,,,,,,,,,,,,,,,,,,,,,,,,,,,,,,,,,,,,,,,,,,,,,,,,,CS1_USneg,None,1,,,,,,,,,,,,,,,,,,23,female,93,n,2019_Dec_22_1126,ec_RRR,3.0.4,60.12281889437066,
Corneille and Mierop,"Dans cette tâche, la créature ciblée est Zorua:","Ainsi, chaque fois que Zorua (son nom ou sa photo) apparaît à l'écran, appuyez sur la barre d'espace le plus rapidement possible. Appuyez sur la barre d'espace chaque fois que vous voyez une image de Zorua ou le mot ZORUA.

Appuyez sur la barre d'espace pour démarrer la tâche.",target4,stimuli/t4.jpg,93,52,stimuli/blank.jpg,blank,False,None,,,,,,,,,,,,,,0,0,0,0,,,,,0,0,0,3,0,51,51,51,,,,,,,,,,,,,,,,,,,,,,,,,,,,,,,,,,,,,,,,,,,,,,,,,,,,,CS1_USneg,None,1,,,,,,,,,,,,,,,,,,23,female,93,n,2019_Dec_22_1126,ec_RRR,3.0.4,60.12281889437066,
Corneille and Mierop,"Dans cette tâche, la créature ciblée est Zorua:","Ainsi, chaque fois que Zorua (son nom ou sa photo) apparaît à l'écran, appuyez sur la barre d'espace le plus rapidement possible. Appuyez sur la barre d'espace chaque fois que vous voyez une image de Zorua ou le mot ZORUA.

Appuyez sur la barre d'espace pour démarrer la tâche.",target4,stimuli/t4.jpg,93,53,stimuli/filler49.jpg,filler,False,None,,,,,,,,,,,,,,0,0,0,0,,,,,0,0,0,3,0,52,52,52,,,,,,,,,,,,,,,,,,,,,,,,,,,,,,,,,,,,,,,,,,,,,,,,,,,,,CS1_USneg,None,1,,,,,,,,,,,,,,,,,,23,female,93,n,2019_Dec_22_1126,ec_RRR,3.0.4,60.12281889437066,
Corneille and Mierop,"Dans cette tâche, la créature ciblée est Zorua:","Ainsi, chaque fois que Zorua (son nom ou sa photo) apparaît à l'écran, appuyez sur la barre d'espace le plus rapidement possible. Appuyez sur la barre d'espace chaque fois que vous voyez une image de Zorua ou le mot ZORUA.

Appuyez sur la barre d'espace pour démarrer la tâche.",target4,stimuli/t4.jpg,93,54,stimuli/filler12.jpg,filler,False,None,,,,,,,,,,,,,,0,0,0,0,,,,,0,0,0,3,0,53,53,53,,,,,,,,,,,,,,,,,,,,,,,,,,,,,,,,,,,,,,,,,,,,,,,,,,,,,CS1_USneg,None,1,,,,,,,,,,,,,,,,,,23,female,93,n,2019_Dec_22_1126,ec_RRR,3.0.4,60.12281889437066,
Corneille and Mierop,"Dans cette tâche, la créature ciblée est Zorua:","Ainsi, chaque fois que Zorua (son nom ou sa photo) apparaît à l'écran, appuyez sur la barre d'espace le plus rapidement possible. Appuyez sur la barre d'espace chaque fois que vous voyez une image de Zorua ou le mot ZORUA.

Appuyez sur la barre d'espace pour démarrer la tâche.",target4,stimuli/t4.jpg,93,55,stimuli/target4_2.jpg,target,True,space,,,,,,,,,,,,,,0,0,0,0,,,,,0,0,0,3,0,54,54,54,,,,,,,,,,,,,,,,,,,,,,,,,,,,,,,,,,,,,,,,,,,,,,,,,,,,,CS1_USneg,space,1,0.580533700001979,,,,,,,,,,,,,,,,,23,female,93,n,2019_Dec_22_1126,ec_RRR,3.0.4,60.12281889437066,
Corneille and Mierop,"Dans cette tâche, la créature ciblée est Zorua:","Ainsi, chaque fois que Zorua (son nom ou sa photo) apparaît à l'écran, appuyez sur la barre d'espace le plus rapidement possible. Appuyez sur la barre d'espace chaque fois que vous voyez une image de Zorua ou le mot ZORUA.

Appuyez sur la barre d'espace pour démarrer la tâche.",target4,stimuli/t4.jpg,93,56,stimuli/filler37.jpg,filler,False,None,,,,,,,,,,,,,,0,0,0,0,,,,,0,0,0,3,0,55,55,55,,,,,,,,,,,,,,,,,,,,,,,,,,,,,,,,,,,,,,,,,,,,,,,,,,,,,CS1_USneg,None,1,,,,,,,,,,,,,,,,,,23,female,93,n,2019_Dec_22_1126,ec_RRR,3.0.4,60.12281889437066,
Corneille and Mierop,"Dans cette tâche, la créature ciblée est Zorua:","Ainsi, chaque fois que Zorua (son nom ou sa photo) apparaît à l'écran, appuyez sur la barre d'espace le plus rapidement possible. Appuyez sur la barre d'espace chaque fois que vous voyez une image de Zorua ou le mot ZORUA.

Appuyez sur la barre d'espace pour démarrer la tâche.",target4,stimuli/t4.jpg,93,57,stimuli/filler46.jpg,filler,False,None,,,,,,,,,,,,,,0,0,0,0,,,,,0,0,0,3,0,56,56,56,,,,,,,,,,,,,,,,,,,,,,,,,,,,,,,,,,,,,,,,,,,,,,,,,,,,,CS1_USneg,None,1,,,,,,,,,,,,,,,,,,23,female,93,n,2019_Dec_22_1126,ec_RRR,3.0.4,60.12281889437066,
Corneille and Mierop,"Dans cette tâche, la créature ciblée est Zorua:","Ainsi, chaque fois que Zorua (son nom ou sa photo) apparaît à l'écran, appuyez sur la barre d'espace le plus rapidement possible. Appuyez sur la barre d'espace chaque fois que vous voyez une image de Zorua ou le mot ZORUA.

Appuyez sur la barre d'espace pour démarrer la tâche.",target4,stimuli/t4.jpg,93,58,stimuli/filler29.jpg,filler,False,None,,,,,,,,,,,,,,0,0,0,0,,,,,0,0,0,3,0,57,57,57,,,,,,,,,,,,,,,,,,,,,,,,,,,,,,,,,,,,,,,,,,,,,,,,,,,,,CS1_USneg,None,1,,,,,,,,,,,,,,,,,,23,female,93,n,2019_Dec_22_1126,ec_RRR,3.0.4,60.12281889437066,
Corneille and Mierop,"Dans cette tâche, la créature ciblée est Zorua:","Ainsi, chaque fois que Zorua (son nom ou sa photo) apparaît à l'écran, appuyez sur la barre d'espace le plus rapidement possible. Appuyez sur la barre d'espace chaque fois que vous voyez une image de Zorua ou le mot ZORUA.

Appuyez sur la barre d'espace pour démarrer la tâche.",target4,stimuli/t4.jpg,93,59,stimuli/target4_8.jpg,target,True,space,,,,,,,,,,,,,,0,0,0,0,,,,,0,0,0,3,0,58,58,58,,,,,,,,,,,,,,,,,,,,,,,,,,,,,,,,,,,,,,,,,,,,,,,,,,,,,CS1_USneg,space,1,0.5845246999997471,,,,,,,,,,,,,,,,,23,female,93,n,2019_Dec_22_1126,ec_RRR,3.0.4,60.12281889437066,
Corneille and Mierop,"Dans cette tâche, la créature ciblée est Zorua:","Ainsi, chaque fois que Zorua (son nom ou sa photo) apparaît à l'écran, appuyez sur la barre d'espace le plus rapidement possible. Appuyez sur la barre d'espace chaque fois que vous voyez une image de Zorua ou le mot ZORUA.

Appuyez sur la barre d'espace pour démarrer la tâche.",target4,stimuli/t4.jpg,93,60,stimuli/blank.jpg,blank,False,None,,,,,,,,,,,,,,0,0,0,0,,,,,0,0,0,3,0,59,59,59,,,,,,,,,,,,,,,,,,,,,,,,,,,,,,,,,,,,,,,,,,,,,,,,,,,,,CS1_USneg,None,1,,,,,,,,,,,,,,,,,,23,female,93,n,2019_Dec_22_1126,ec_RRR,3.0.4,60.12281889437066,
Corneille and Mierop,"Dans cette tâche, la créature ciblée est Zorua:","Ainsi, chaque fois que Zorua (son nom ou sa photo) apparaît à l'écran, appuyez sur la barre d'espace le plus rapidement possible. Appuyez sur la barre d'espace chaque fois que vous voyez une image de Zorua ou le mot ZORUA.

Appuyez sur la barre d'espace pour démarrer la tâche.",target4,stimuli/t4.jpg,93,61,stimuli/cs2_pos6.jpg,CSUS,False,None,,,,,,,,,,,,,,0,0,0,0,,,,,0,0,0,3,0,60,60,60,,,,,,,,,,,,,,,,,,,,,,,,,,,,,,,,,,,,,,,,,,,,,,,,,,,,,CS1_USneg,None,1,,,,,,,,,,,,,,,,,,23,female,93,n,2019_Dec_22_1126,ec_RRR,3.0.4,60.12281889437066,
Corneille and Mierop,"Dans cette tâche, la créature ciblée est Zorua:","Ainsi, chaque fois que Zorua (son nom ou sa photo) apparaît à l'écran, appuyez sur la barre d'espace le plus rapidement possible. Appuyez sur la barre d'espace chaque fois que vous voyez une image de Zorua ou le mot ZORUA.

Appuyez sur la barre d'espace pour démarrer la tâche.",target4,stimuli/t4.jpg,93,62,stimuli/blank.jpg,blank,False,None,,,,,,,,,,,,,,0,0,0,0,,,,,0,0,0,3,0,61,61,61,,,,,,,,,,,,,,,,,,,,,,,,,,,,,,,,,,,,,,,,,,,,,,,,,,,,,CS1_USneg,None,1,,,,,,,,,,,,,,,,,,23,female,93,n,2019_Dec_22_1126,ec_RRR,3.0.4,60.12281889437066,
Corneille and Mierop,"Dans cette tâche, la créature ciblée est Zorua:","Ainsi, chaque fois que Zorua (son nom ou sa photo) apparaît à l'écran, appuyez sur la barre d'espace le plus rapidement possible. Appuyez sur la barre d'espace chaque fois que vous voyez une image de Zorua ou le mot ZORUA.

Appuyez sur la barre d'espace pour démarrer la tâche.",target4,stimuli/t4.jpg,93,63,stimuli/target4_10.jpg,target,True,space,,,,,,,,,,,,,,0,0,0,0,,,,,0,0,0,3,0,62,62,62,,,,,,,,,,,,,,,,,,,,,,,,,,,,,,,,,,,,,,,,,,,,,,,,,,,,,CS1_USneg,space,1,0.5158524999969814,,,,,,,,,,,,,,,,,23,female,93,n,2019_Dec_22_1126,ec_RRR,3.0.4,60.12281889437066,
Corneille and Mierop,"Dans cette tâche, la créature ciblée est Zorua:","Ainsi, chaque fois que Zorua (son nom ou sa photo) apparaît à l'écran, appuyez sur la barre d'espace le plus rapidement possible. Appuyez sur la barre d'espace chaque fois que vous voyez une image de Zorua ou le mot ZORUA.

Appuyez sur la barre d'espace pour démarrer la tâche.",target4,stimuli/t4.jpg,93,64,stimuli/filler33.jpg,filler,False,None,,,,,,,,,,,,,,0,0,0,0,,,,,0,0,0,3,0,63,63,63,,,,,,,,,,,,,,,,,,,,,,,,,,,,,,,,,,,,,,,,,,,,,,,,,,,,,CS1_USneg,None,1,,,,,,,,,,,,,,,,,,23,female,93,n,2019_Dec_22_1126,ec_RRR,3.0.4,60.12281889437066,
Corneille and Mierop,"Dans cette tâche, la créature ciblée est Zorua:","Ainsi, chaque fois que Zorua (son nom ou sa photo) apparaît à l'écran, appuyez sur la barre d'espace le plus rapidement possible. Appuyez sur la barre d'espace chaque fois que vous voyez une image de Zorua ou le mot ZORUA.

Appuyez sur la barre d'espace pour démarrer la tâche.",target4,stimuli/t4.jpg,93,65,stimuli/filler6.jpg,filler,False,None,,,,,,,,,,,,,,0,0,0,0,,,,,0,0,0,3,0,64,64,64,,,,,,,,,,,,,,,,,,,,,,,,,,,,,,,,,,,,,,,,,,,,,,,,,,,,,CS1_USneg,None,1,,,,,,,,,,,,,,,,,,23,female,93,n,2019_Dec_22_1126,ec_RRR,3.0.4,60.12281889437066,
Corneille and Mierop,"Dans cette tâche, la créature ciblée est Zorua:","Ainsi, chaque fois que Zorua (son nom ou sa photo) apparaît à l'écran, appuyez sur la barre d'espace le plus rapidement possible. Appuyez sur la barre d'espace chaque fois que vous voyez une image de Zorua ou le mot ZORUA.

Appuyez sur la barre d'espace pour démarrer la tâche.",target4,stimuli/t4.jpg,93,66,stimuli/filler4.jpg,filler,False,None,,,,,,,,,,,,,,0,0,0,0,,,,,0,0,0,3,0,65,65,65,,,,,,,,,,,,,,,,,,,,,,,,,,,,,,,,,,,,,,,,,,,,,,,,,,,,,CS1_USneg,None,1,,,,,,,,,,,,,,,,,,23,female,93,n,2019_Dec_22_1126,ec_RRR,3.0.4,60.12281889437066,
Corneille and Mierop,"Dans cette tâche, la créature ciblée est Zorua:","Ainsi, chaque fois que Zorua (son nom ou sa photo) apparaît à l'écran, appuyez sur la barre d'espace le plus rapidement possible. Appuyez sur la barre d'espace chaque fois que vous voyez une image de Zorua ou le mot ZORUA.

Appuyez sur la barre d'espace pour démarrer la tâche.",target4,stimuli/t4.jpg,93,67,stimuli/filler40.jpg,filler,False,None,,,,,,,,,,,,,,0,0,0,0,,,,,0,0,0,3,0,66,66,66,,,,,,,,,,,,,,,,,,,,,,,,,,,,,,,,,,,,,,,,,,,,,,,,,,,,,CS1_USneg,None,1,,,,,,,,,,,,,,,,,,23,female,93,n,2019_Dec_22_1126,ec_RRR,3.0.4,60.12281889437066,
Corneille and Mierop,"Dans cette tâche, la créature ciblée est Zorua:","Ainsi, chaque fois que Zorua (son nom ou sa photo) apparaît à l'écran, appuyez sur la barre d'espace le plus rapidement possible. Appuyez sur la barre d'espace chaque fois que vous voyez une image de Zorua ou le mot ZORUA.

Appuyez sur la barre d'espace pour démarrer la tâche.",target4,stimuli/t4.jpg,93,68,stimuli/target4_5.jpg,target,True,space,,,,,,,,,,,,,,0,0,0,0,,,,,0,0,0,3,0,67,67,67,,,,,,,,,,,,,,,,,,,,,,,,,,,,,,,,,,,,,,,,,,,,,,,,,,,,,CS1_USneg,space,1,0.5452638999995543,,,,,,,,,,,,,,,,,23,female,93,n,2019_Dec_22_1126,ec_RRR,3.0.4,60.12281889437066,
Corneille and Mierop,"Dans cette tâche, la créature ciblée est Zorua:","Ainsi, chaque fois que Zorua (son nom ou sa photo) apparaît à l'écran, appuyez sur la barre d'espace le plus rapidement possible. Appuyez sur la barre d'espace chaque fois que vous voyez une image de Zorua ou le mot ZORUA.

Appuyez sur la barre d'espace pour démarrer la tâche.",target4,stimuli/t4.jpg,93,69,stimuli/filler25.jpg,filler,False,None,,,,,,,,,,,,,,0,0,0,0,,,,,0,0,0,3,0,68,68,68,,,,,,,,,,,,,,,,,,,,,,,,,,,,,,,,,,,,,,,,,,,,,,,,,,,,,CS1_USneg,None,1,,,,,,,,,,,,,,,,,,23,female,93,n,2019_Dec_22_1126,ec_RRR,3.0.4,60.12281889437066,
Corneille and Mierop,"Dans cette tâche, la créature ciblée est Zorua:","Ainsi, chaque fois que Zorua (son nom ou sa photo) apparaît à l'écran, appuyez sur la barre d'espace le plus rapidement possible. Appuyez sur la barre d'espace chaque fois que vous voyez une image de Zorua ou le mot ZORUA.

Appuyez sur la barre d'espace pour démarrer la tâche.",target4,stimuli/t4.jpg,93,70,stimuli/blank.jpg,blank,False,None,,,,,,,,,,,,,,0,0,0,0,,,,,0,0,0,3,0,69,69,69,,,,,,,,,,,,,,,,,,,,,,,,,,,,,,,,,,,,,,,,,,,,,,,,,,,,,CS1_USneg,None,1,,,,,,,,,,,,,,,,,,23,female,93,n,2019_Dec_22_1126,ec_RRR,3.0.4,60.12281889437066,
Corneille and Mierop,"Dans cette tâche, la créature ciblée est Zorua:","Ainsi, chaque fois que Zorua (son nom ou sa photo) apparaît à l'écran, appuyez sur la barre d'espace le plus rapidement possible. Appuyez sur la barre d'espace chaque fois que vous voyez une image de Zorua ou le mot ZORUA.

Appuyez sur la barre d'espace pour démarrer la tâche.",target4,stimuli/t4.jpg,93,71,stimuli/cs1_neg3.jpg,CSUS,False,None,,,,,,,,,,,,,,0,0,0,0,,,,,0,0,0,3,0,70,70,70,,,,,,,,,,,,,,,,,,,,,,,,,,,,,,,,,,,,,,,,,,,,,,,,,,,,,CS1_USneg,None,1,,,,,,,,,,,,,,,,,,23,female,93,n,2019_Dec_22_1126,ec_RRR,3.0.4,60.12281889437066,
Corneille and Mierop,"Dans cette tâche, la créature ciblée est Zorua:","Ainsi, chaque fois que Zorua (son nom ou sa photo) apparaît à l'écran, appuyez sur la barre d'espace le plus rapidement possible. Appuyez sur la barre d'espace chaque fois que vous voyez une image de Zorua ou le mot ZORUA.

Appuyez sur la barre d'espace pour démarrer la tâche.",target4,stimuli/t4.jpg,93,72,stimuli/blank.jpg,blank,False,None,,,,,,,,,,,,,,0,0,0,0,,,,,0,0,0,3,0,71,71,71,,,,,,,,,,,,,,,,,,,,,,,,,,,,,,,,,,,,,,,,,,,,,,,,,,,,,CS1_USneg,None,1,,,,,,,,,,,,,,,,,,23,female,93,n,2019_Dec_22_1126,ec_RRR,3.0.4,60.12281889437066,
Corneille and Mierop,"Dans cette tâche, la créature ciblée est Zorua:","Ainsi, chaque fois que Zorua (son nom ou sa photo) apparaît à l'écran, appuyez sur la barre d'espace le plus rapidement possible. Appuyez sur la barre d'espace chaque fois que vous voyez une image de Zorua ou le mot ZORUA.

Appuyez sur la barre d'espace pour démarrer la tâche.",target4,stimuli/t4.jpg,93,73,stimuli/filler22.jpg,filler,False,None,,,,,,,,,,,,,,0,0,0,0,,,,,0,0,0,3,0,72,72,72,,,,,,,,,,,,,,,,,,,,,,,,,,,,,,,,,,,,,,,,,,,,,,,,,,,,,CS1_USneg,None,1,,,,,,,,,,,,,,,,,,23,female,93,n,2019_Dec_22_1126,ec_RRR,3.0.4,60.12281889437066,
Corneille and Mierop,"Dans cette tâche, la créature ciblée est Zorua:","Ainsi, chaque fois que Zorua (son nom ou sa photo) apparaît à l'écran, appuyez sur la barre d'espace le plus rapidement possible. Appuyez sur la barre d'espace chaque fois que vous voyez une image de Zorua ou le mot ZORUA.

Appuyez sur la barre d'espace pour démarrer la tâche.",target4,stimuli/t4.jpg,93,74,stimuli/filler3.jpg,filler,False,None,,,,,,,,,,,,,,0,0,0,0,,,,,0,0,0,3,0,73,73,73,,,,,,,,,,,,,,,,,,,,,,,,,,,,,,,,,,,,,,,,,,,,,,,,,,,,,CS1_USneg,None,1,,,,,,,,,,,,,,,,,,23,female,93,n,2019_Dec_22_1126,ec_RRR,3.0.4,60.12281889437066,
Corneille and Mierop,"Dans cette tâche, la créature ciblée est Zorua:","Ainsi, chaque fois que Zorua (son nom ou sa photo) apparaît à l'écran, appuyez sur la barre d'espace le plus rapidement possible. Appuyez sur la barre d'espace chaque fois que vous voyez une image de Zorua ou le mot ZORUA.

Appuyez sur la barre d'espace pour démarrer la tâche.",target4,stimuli/t4.jpg,93,75,stimuli/filler43.jpg,filler,False,None,,,,,,,,,,,,,,0,0,0,0,,,,,0,0,0,3,0,74,74,74,,,,,,,,,,,,,,,,,,,,,,,,,,,,,,,,,,,,,,,,,,,,,,,,,,,,,CS1_USneg,None,1,,,,,,,,,,,,,,,,,,23,female,93,n,2019_Dec_22_1126,ec_RRR,3.0.4,60.12281889437066,
Corneille and Mierop,"Dans cette tâche, la créature ciblée est Zorua:","Ainsi, chaque fois que Zorua (son nom ou sa photo) apparaît à l'écran, appuyez sur la barre d'espace le plus rapidement possible. Appuyez sur la barre d'espace chaque fois que vous voyez une image de Zorua ou le mot ZORUA.

Appuyez sur la barre d'espace pour démarrer la tâche.",target4,stimuli/t4.jpg,93,76,stimuli/filler28.jpg,filler,False,None,,,,,,,,,,,,,,0,0,0,0,,,,,0,0,0,3,0,75,75,75,,,,,,,,,,,,,,,,,,,,,,,,,,,,,,,,,,,,,,,,,,,,,,,,,,,,,CS1_USneg,None,1,,,,,,,,,,,,,,,,,,23,female,93,n,2019_Dec_22_1126,ec_RRR,3.0.4,60.12281889437066,
Corneille and Mierop,"Dans cette tâche, la créature ciblée est Zorua:","Ainsi, chaque fois que Zorua (son nom ou sa photo) apparaît à l'écran, appuyez sur la barre d'espace le plus rapidement possible. Appuyez sur la barre d'espace chaque fois que vous voyez une image de Zorua ou le mot ZORUA.

Appuyez sur la barre d'espace pour démarrer la tâche.",target4,stimuli/t4.jpg,93,77,stimuli/filler14.jpg,filler,False,None,,,,,,,,,,,,,,0,0,0,0,,,,,0,0,0,3,0,76,76,76,,,,,,,,,,,,,,,,,,,,,,,,,,,,,,,,,,,,,,,,,,,,,,,,,,,,,CS1_USneg,None,1,,,,,,,,,,,,,,,,,,23,female,93,n,2019_Dec_22_1126,ec_RRR,3.0.4,60.12281889437066,
Corneille and Mierop,"Dans cette tâche, la créature ciblée est Zorua:","Ainsi, chaque fois que Zorua (son nom ou sa photo) apparaît à l'écran, appuyez sur la barre d'espace le plus rapidement possible. Appuyez sur la barre d'espace chaque fois que vous voyez une image de Zorua ou le mot ZORUA.

Appuyez sur la barre d'espace pour démarrer la tâche.",target4,stimuli/t4.jpg,93,78,stimuli/filler16.jpg,filler,False,None,,,,,,,,,,,,,,0,0,0,0,,,,,0,0,0,3,0,77,77,77,,,,,,,,,,,,,,,,,,,,,,,,,,,,,,,,,,,,,,,,,,,,,,,,,,,,,CS1_USneg,None,1,,,,,,,,,,,,,,,,,,23,female,93,n,2019_Dec_22_1126,ec_RRR,3.0.4,60.12281889437066,
Corneille and Mierop,"Dans cette tâche, la créature ciblée est Zorua:","Ainsi, chaque fois que Zorua (son nom ou sa photo) apparaît à l'écran, appuyez sur la barre d'espace le plus rapidement possible. Appuyez sur la barre d'espace chaque fois que vous voyez une image de Zorua ou le mot ZORUA.

Appuyez sur la barre d'espace pour démarrer la tâche.",target4,stimuli/t4.jpg,93,79,stimuli/filler2.jpg,filler,False,None,,,,,,,,,,,,,,0,0,0,0,,,,,0,0,0,3,0,78,78,78,,,,,,,,,,,,,,,,,,,,,,,,,,,,,,,,,,,,,,,,,,,,,,,,,,,,,CS1_USneg,None,1,,,,,,,,,,,,,,,,,,23,female,93,n,2019_Dec_22_1126,ec_RRR,3.0.4,60.12281889437066,
Corneille and Mierop,"Dans cette tâche, la créature ciblée est Zorua:","Ainsi, chaque fois que Zorua (son nom ou sa photo) apparaît à l'écran, appuyez sur la barre d'espace le plus rapidement possible. Appuyez sur la barre d'espace chaque fois que vous voyez une image de Zorua ou le mot ZORUA.

Appuyez sur la barre d'espace pour démarrer la tâche.",target4,stimuli/t4.jpg,93,80,stimuli/blank.jpg,blank,False,None,,,,,,,,,,,,,,0,0,0,0,,,,,0,0,0,3,0,79,79,79,,,,,,,,,,,,,,,,,,,,,,,,,,,,,,,,,,,,,,,,,,,,,,,,,,,,,CS1_USneg,None,1,,,,,,,,,,,,,,,,,,23,female,93,n,2019_Dec_22_1126,ec_RRR,3.0.4,60.12281889437066,
Corneille and Mierop,"Dans cette tâche, la créature ciblée est Zorua:","Ainsi, chaque fois que Zorua (son nom ou sa photo) apparaît à l'écran, appuyez sur la barre d'espace le plus rapidement possible. Appuyez sur la barre d'espace chaque fois que vous voyez une image de Zorua ou le mot ZORUA.

Appuyez sur la barre d'espace pour démarrer la tâche.",target4,stimuli/t4.jpg,93,81,stimuli/cs2_pos11.jpg,CSUS,False,None,,,,,,,,,,,,,,0,0,0,0,,,,,0,0,0,3,0,80,80,80,,,,,,,,,,,,,,,,,,,,,,,,,,,,,,,,,,,,,,,,,,,,,,,,,,,,,CS1_USneg,None,1,,,,,,,,,,,,,,,,,,23,female,93,n,2019_Dec_22_1126,ec_RRR,3.0.4,60.12281889437066,
Corneille and Mierop,"Dans cette tâche, la créature ciblée est Zorua:","Ainsi, chaque fois que Zorua (son nom ou sa photo) apparaît à l'écran, appuyez sur la barre d'espace le plus rapidement possible. Appuyez sur la barre d'espace chaque fois que vous voyez une image de Zorua ou le mot ZORUA.

Appuyez sur la barre d'espace pour démarrer la tâche.",target4,stimuli/t4.jpg,93,82,stimuli/blank.jpg,blank,False,None,,,,,,,,,,,,,,0,0,0,0,,,,,0,0,0,3,0,81,81,81,,,,,,,,,,,,,,,,,,,,,,,,,,,,,,,,,,,,,,,,,,,,,,,,,,,,,CS1_USneg,None,1,,,,,,,,,,,,,,,,,,23,female,93,n,2019_Dec_22_1126,ec_RRR,3.0.4,60.12281889437066,
Corneille and Mierop,"Dans cette tâche, la créature ciblée est Zorua:","Ainsi, chaque fois que Zorua (son nom ou sa photo) apparaît à l'écran, appuyez sur la barre d'espace le plus rapidement possible. Appuyez sur la barre d'espace chaque fois que vous voyez une image de Zorua ou le mot ZORUA.

Appuyez sur la barre d'espace pour démarrer la tâche.",target4,stimuli/t4.jpg,93,83,stimuli/filler42.jpg,filler,False,None,,,,,,,,,,,,,,0,0,0,0,,,,,0,0,0,3,0,82,82,82,,,,,,,,,,,,,,,,,,,,,,,,,,,,,,,,,,,,,,,,,,,,,,,,,,,,,CS1_USneg,None,1,,,,,,,,,,,,,,,,,,23,female,93,n,2019_Dec_22_1126,ec_RRR,3.0.4,60.12281889437066,
Corneille and Mierop,"Dans cette tâche, la créature ciblée est Zorua:","Ainsi, chaque fois que Zorua (son nom ou sa photo) apparaît à l'écran, appuyez sur la barre d'espace le plus rapidement possible. Appuyez sur la barre d'espace chaque fois que vous voyez une image de Zorua ou le mot ZORUA.

Appuyez sur la barre d'espace pour démarrer la tâche.",target4,stimuli/t4.jpg,93,84,stimuli/filler26.jpg,filler,False,None,,,,,,,,,,,,,,0,0,0,0,,,,,0,0,0,3,0,83,83,83,,,,,,,,,,,,,,,,,,,,,,,,,,,,,,,,,,,,,,,,,,,,,,,,,,,,,CS1_USneg,None,1,,,,,,,,,,,,,,,,,,23,female,93,n,2019_Dec_22_1126,ec_RRR,3.0.4,60.12281889437066,
Corneille and Mierop,"Dans cette tâche, la créature ciblée est Zorua:","Ainsi, chaque fois que Zorua (son nom ou sa photo) apparaît à l'écran, appuyez sur la barre d'espace le plus rapidement possible. Appuyez sur la barre d'espace chaque fois que vous voyez une image de Zorua ou le mot ZORUA.

Appuyez sur la barre d'espace pour démarrer la tâche.",target4,stimuli/t4.jpg,93,85,stimuli/filler36.jpg,filler,False,None,,,,,,,,,,,,,,0,0,0,0,,,,,0,0,0,3,0,84,84,84,,,,,,,,,,,,,,,,,,,,,,,,,,,,,,,,,,,,,,,,,,,,,,,,,,,,,CS1_USneg,None,1,,,,,,,,,,,,,,,,,,23,female,93,n,2019_Dec_22_1126,ec_RRR,3.0.4,60.12281889437066,
Corneille and Mierop,"Dans cette tâche, la créature ciblée est Zorua:","Ainsi, chaque fois que Zorua (son nom ou sa photo) apparaît à l'écran, appuyez sur la barre d'espace le plus rapidement possible. Appuyez sur la barre d'espace chaque fois que vous voyez une image de Zorua ou le mot ZORUA.

Appuyez sur la barre d'espace pour démarrer la tâche.",target4,stimuli/t4.jpg,93,86,stimuli/filler52.jpg,filler,False,None,,,,,,,,,,,,,,0,0,0,0,,,,,0,0,0,3,0,85,85,85,,,,,,,,,,,,,,,,,,,,,,,,,,,,,,,,,,,,,,,,,,,,,,,,,,,,,CS1_USneg,None,1,,,,,,,,,,,,,,,,,,23,female,93,n,2019_Dec_22_1126,ec_RRR,3.0.4,60.12281889437066,
Corneille and Mierop,"Dans cette tâche, la créature ciblée est Gourgeist:","Ainsi, chaque fois que Gourgeist (son nom ou sa photo) apparaît à l'écran, appuyez sur la barre d'espace le plus rapidement possible. Appuyez sur la barre d'espace chaque fois que vous voyez une image de Gourgeist ou le mot GOURGEIST.

Appuyez sur la barre d'espace pour démarrer la tâche.",target1,stimuli/t1.jpg,93,1,stimuli/target1_3.jpg,target,True,space,,,,,,,,,,,,,,0,0,0,0,,,,,0,1,1,0,0,0,0,0,,,,,,,,,,,,,,,,,,,,,,,,,,,,,,,,,,,,,,,,,,,,,,,,,,,,,CS1_USneg,space,1,0.8211407999988296,,,,,,,,,,,,,,,,,23,female,93,n,2019_Dec_22_1126,ec_RRR,3.0.4,60.12281889437066,
Corneille and Mierop,"Dans cette tâche, la créature ciblée est Gourgeist:","Ainsi, chaque fois que Gourgeist (son nom ou sa photo) apparaît à l'écran, appuyez sur la barre d'espace le plus rapidement possible. Appuyez sur la barre d'espace chaque fois que vous voyez une image de Gourgeist ou le mot GOURGEIST.

Appuyez sur la barre d'espace pour démarrer la tâche.",target1,stimuli/t1.jpg,93,2,stimuli/filler3.jpg,filler,False,None,,,,,,,,,,,,,,0,0,0,0,,,,,0,1,1,0,0,1,1,1,,,,,,,,,,,,,,,,,,,,,,,,,,,,,,,,,,,,,,,,,,,,,,,,,,,,,CS1_USneg,None,1,,,,,,,,,,,,,,,,,,23,female,93,n,2019_Dec_22_1126,ec_RRR,3.0.4,60.12281889437066,
Corneille and Mierop,"Dans cette tâche, la créature ciblée est Gourgeist:","Ainsi, chaque fois que Gourgeist (son nom ou sa photo) apparaît à l'écran, appuyez sur la barre d'espace le plus rapidement possible. Appuyez sur la barre d'espace chaque fois que vous voyez une image de Gourgeist ou le mot GOURGEIST.

Appuyez sur la barre d'espace pour démarrer la tâche.",target1,stimuli/t1.jpg,93,3,stimuli/filler31.jpg,filler,False,None,,,,,,,,,,,,,,0,0,0,0,,,,,0,1,1,0,0,2,2,2,,,,,,,,,,,,,,,,,,,,,,,,,,,,,,,,,,,,,,,,,,,,,,,,,,,,,CS1_USneg,None,1,,,,,,,,,,,,,,,,,,23,female,93,n,2019_Dec_22_1126,ec_RRR,3.0.4,60.12281889437066,
Corneille and Mierop,"Dans cette tâche, la créature ciblée est Gourgeist:","Ainsi, chaque fois que Gourgeist (son nom ou sa photo) apparaît à l'écran, appuyez sur la barre d'espace le plus rapidement possible. Appuyez sur la barre d'espace chaque fois que vous voyez une image de Gourgeist ou le mot GOURGEIST.

Appuyez sur la barre d'espace pour démarrer la tâche.",target1,stimuli/t1.jpg,93,4,stimuli/filler20.jpg,filler,False,None,,,,,,,,,,,,,,0,0,0,0,,,,,0,1,1,0,0,3,3,3,,,,,,,,,,,,,,,,,,,,,,,,,,,,,,,,,,,,,,,,,,,,,,,,,,,,,CS1_USneg,None,1,,,,,,,,,,,,,,,,,,23,female,93,n,2019_Dec_22_1126,ec_RRR,3.0.4,60.12281889437066,
Corneille and Mierop,"Dans cette tâche, la créature ciblée est Gourgeist:","Ainsi, chaque fois que Gourgeist (son nom ou sa photo) apparaît à l'écran, appuyez sur la barre d'espace le plus rapidement possible. Appuyez sur la barre d'espace chaque fois que vous voyez une image de Gourgeist ou le mot GOURGEIST.

Appuyez sur la barre d'espace pour démarrer la tâche.",target1,stimuli/t1.jpg,93,5,stimuli/filler16.jpg,filler,False,None,,,,,,,,,,,,,,0,0,0,0,,,,,0,1,1,0,0,4,4,4,,,,,,,,,,,,,,,,,,,,,,,,,,,,,,,,,,,,,,,,,,,,,,,,,,,,,CS1_USneg,None,1,,,,,,,,,,,,,,,,,,23,female,93,n,2019_Dec_22_1126,ec_RRR,3.0.4,60.12281889437066,
Corneille and Mierop,"Dans cette tâche, la créature ciblée est Gourgeist:","Ainsi, chaque fois que Gourgeist (son nom ou sa photo) apparaît à l'écran, appuyez sur la barre d'espace le plus rapidement possible. Appuyez sur la barre d'espace chaque fois que vous voyez une image de Gourgeist ou le mot GOURGEIST.

Appuyez sur la barre d'espace pour démarrer la tâche.",target1,stimuli/t1.jpg,93,6,stimuli/filler51.jpg,filler,False,None,,,,,,,,,,,,,,0,0,0,0,,,,,0,1,1,0,0,5,5,5,,,,,,,,,,,,,,,,,,,,,,,,,,,,,,,,,,,,,,,,,,,,,,,,,,,,,CS1_USneg,None,1,,,,,,,,,,,,,,,,,,23,female,93,n,2019_Dec_22_1126,ec_RRR,3.0.4,60.12281889437066,
Corneille and Mierop,"Dans cette tâche, la créature ciblée est Gourgeist:","Ainsi, chaque fois que Gourgeist (son nom ou sa photo) apparaît à l'écran, appuyez sur la barre d'espace le plus rapidement possible. Appuyez sur la barre d'espace chaque fois que vous voyez une image de Gourgeist ou le mot GOURGEIST.

Appuyez sur la barre d'espace pour démarrer la tâche.",target1,stimuli/t1.jpg,93,7,stimuli/filler25.jpg,filler,False,None,,,,,,,,,,,,,,0,0,0,0,,,,,0,1,1,0,0,6,6,6,,,,,,,,,,,,,,,,,,,,,,,,,,,,,,,,,,,,,,,,,,,,,,,,,,,,,CS1_USneg,None,1,,,,,,,,,,,,,,,,,,23,female,93,n,2019_Dec_22_1126,ec_RRR,3.0.4,60.12281889437066,
Corneille and Mierop,"Dans cette tâche, la créature ciblée est Gourgeist:","Ainsi, chaque fois que Gourgeist (son nom ou sa photo) apparaît à l'écran, appuyez sur la barre d'espace le plus rapidement possible. Appuyez sur la barre d'espace chaque fois que vous voyez une image de Gourgeist ou le mot GOURGEIST.

Appuyez sur la barre d'espace pour démarrer la tâche.",target1,stimuli/t1.jpg,93,8,stimuli/filler9.jpg,filler,False,None,,,,,,,,,,,,,,0,0,0,0,,,,,0,1,1,0,0,7,7,7,,,,,,,,,,,,,,,,,,,,,,,,,,,,,,,,,,,,,,,,,,,,,,,,,,,,,CS1_USneg,None,1,,,,,,,,,,,,,,,,,,23,female,93,n,2019_Dec_22_1126,ec_RRR,3.0.4,60.12281889437066,
Corneille and Mierop,"Dans cette tâche, la créature ciblée est Gourgeist:","Ainsi, chaque fois que Gourgeist (son nom ou sa photo) apparaît à l'écran, appuyez sur la barre d'espace le plus rapidement possible. Appuyez sur la barre d'espace chaque fois que vous voyez une image de Gourgeist ou le mot GOURGEIST.

Appuyez sur la barre d'espace pour démarrer la tâche.",target1,stimuli/t1.jpg,93,9,stimuli/filler41.jpg,filler,False,None,,,,,,,,,,,,,,0,0,0,0,,,,,0,1,1,0,0,8,8,8,,,,,,,,,,,,,,,,,,,,,,,,,,,,,,,,,,,,,,,,,,,,,,,,,,,,,CS1_USneg,None,1,,,,,,,,,,,,,,,,,,23,female,93,n,2019_Dec_22_1126,ec_RRR,3.0.4,60.12281889437066,
Corneille and Mierop,"Dans cette tâche, la créature ciblée est Gourgeist:","Ainsi, chaque fois que Gourgeist (son nom ou sa photo) apparaît à l'écran, appuyez sur la barre d'espace le plus rapidement possible. Appuyez sur la barre d'espace chaque fois que vous voyez une image de Gourgeist ou le mot GOURGEIST.

Appuyez sur la barre d'espace pour démarrer la tâche.",target1,stimuli/t1.jpg,93,10,stimuli/blank.jpg,blank,False,None,,,,,,,,,,,,,,0,0,0,0,,,,,0,1,1,0,0,9,9,9,,,,,,,,,,,,,,,,,,,,,,,,,,,,,,,,,,,,,,,,,,,,,,,,,,,,,CS1_USneg,None,1,,,,,,,,,,,,,,,,,,23,female,93,n,2019_Dec_22_1126,ec_RRR,3.0.4,60.12281889437066,
Corneille and Mierop,"Dans cette tâche, la créature ciblée est Gourgeist:","Ainsi, chaque fois que Gourgeist (son nom ou sa photo) apparaît à l'écran, appuyez sur la barre d'espace le plus rapidement possible. Appuyez sur la barre d'espace chaque fois que vous voyez une image de Gourgeist ou le mot GOURGEIST.

Appuyez sur la barre d'espace pour démarrer la tâche.",target1,stimuli/t1.jpg,93,11,stimuli/cs1_neg8.jpg,CSUS,False,None,,,,,,,,,,,,,,0,0,0,0,,,,,0,1,1,0,0,10,10,10,,,,,,,,,,,,,,,,,,,,,,,,,,,,,,,,,,,,,,,,,,,,,,,,,,,,,CS1_USneg,None,1,,,,,,,,,,,,,,,,,,23,female,93,n,2019_Dec_22_1126,ec_RRR,3.0.4,60.12281889437066,
Corneille and Mierop,"Dans cette tâche, la créature ciblée est Gourgeist:","Ainsi, chaque fois que Gourgeist (son nom ou sa photo) apparaît à l'écran, appuyez sur la barre d'espace le plus rapidement possible. Appuyez sur la barre d'espace chaque fois que vous voyez une image de Gourgeist ou le mot GOURGEIST.

Appuyez sur la barre d'espace pour démarrer la tâche.",target1,stimuli/t1.jpg,93,12,stimuli/blank.jpg,blank,False,None,,,,,,,,,,,,,,0,0,0,0,,,,,0,1,1,0,0,11,11,11,,,,,,,,,,,,,,,,,,,,,,,,,,,,,,,,,,,,,,,,,,,,,,,,,,,,,CS1_USneg,None,1,,,,,,,,,,,,,,,,,,23,female,93,n,2019_Dec_22_1126,ec_RRR,3.0.4,60.12281889437066,
Corneille and Mierop,"Dans cette tâche, la créature ciblée est Gourgeist:","Ainsi, chaque fois que Gourgeist (son nom ou sa photo) apparaît à l'écran, appuyez sur la barre d'espace le plus rapidement possible. Appuyez sur la barre d'espace chaque fois que vous voyez une image de Gourgeist ou le mot GOURGEIST.

Appuyez sur la barre d'espace pour démarrer la tâche.",target1,stimuli/t1.jpg,93,13,stimuli/filler10.jpg,filler,False,None,,,,,,,,,,,,,,0,0,0,0,,,,,0,1,1,0,0,12,12,12,,,,,,,,,,,,,,,,,,,,,,,,,,,,,,,,,,,,,,,,,,,,,,,,,,,,,CS1_USneg,None,1,,,,,,,,,,,,,,,,,,23,female,93,n,2019_Dec_22_1126,ec_RRR,3.0.4,60.12281889437066,
Corneille and Mierop,"Dans cette tâche, la créature ciblée est Gourgeist:","Ainsi, chaque fois que Gourgeist (son nom ou sa photo) apparaît à l'écran, appuyez sur la barre d'espace le plus rapidement possible. Appuyez sur la barre d'espace chaque fois que vous voyez une image de Gourgeist ou le mot GOURGEIST.

Appuyez sur la barre d'espace pour démarrer la tâche.",target1,stimuli/t1.jpg,93,14,stimuli/filler40.jpg,filler,False,None,,,,,,,,,,,,,,0,0,0,0,,,,,0,1,1,0,0,13,13,13,,,,,,,,,,,,,,,,,,,,,,,,,,,,,,,,,,,,,,,,,,,,,,,,,,,,,CS1_USneg,None,1,,,,,,,,,,,,,,,,,,23,female,93,n,2019_Dec_22_1126,ec_RRR,3.0.4,60.12281889437066,
Corneille and Mierop,"Dans cette tâche, la créature ciblée est Gourgeist:","Ainsi, chaque fois que Gourgeist (son nom ou sa photo) apparaît à l'écran, appuyez sur la barre d'espace le plus rapidement possible. Appuyez sur la barre d'espace chaque fois que vous voyez une image de Gourgeist ou le mot GOURGEIST.

Appuyez sur la barre d'espace pour démarrer la tâche.",target1,stimuli/t1.jpg,93,15,stimuli/filler48.jpg,filler,False,None,,,,,,,,,,,,,,0,0,0,0,,,,,0,1,1,0,0,14,14,14,,,,,,,,,,,,,,,,,,,,,,,,,,,,,,,,,,,,,,,,,,,,,,,,,,,,,CS1_USneg,None,1,,,,,,,,,,,,,,,,,,23,female,93,n,2019_Dec_22_1126,ec_RRR,3.0.4,60.12281889437066,
Corneille and Mierop,"Dans cette tâche, la créature ciblée est Gourgeist:","Ainsi, chaque fois que Gourgeist (son nom ou sa photo) apparaît à l'écran, appuyez sur la barre d'espace le plus rapidement possible. Appuyez sur la barre d'espace chaque fois que vous voyez une image de Gourgeist ou le mot GOURGEIST.

Appuyez sur la barre d'espace pour démarrer la tâche.",target1,stimuli/t1.jpg,93,16,stimuli/filler47.jpg,filler,False,None,,,,,,,,,,,,,,0,0,0,0,,,,,0,1,1,0,0,15,15,15,,,,,,,,,,,,,,,,,,,,,,,,,,,,,,,,,,,,,,,,,,,,,,,,,,,,,CS1_USneg,None,1,,,,,,,,,,,,,,,,,,23,female,93,n,2019_Dec_22_1126,ec_RRR,3.0.4,60.12281889437066,
Corneille and Mierop,"Dans cette tâche, la créature ciblée est Gourgeist:","Ainsi, chaque fois que Gourgeist (son nom ou sa photo) apparaît à l'écran, appuyez sur la barre d'espace le plus rapidement possible. Appuyez sur la barre d'espace chaque fois que vous voyez une image de Gourgeist ou le mot GOURGEIST.

Appuyez sur la barre d'espace pour démarrer la tâche.",target1,stimuli/t1.jpg,93,17,stimuli/filler13.jpg,filler,False,None,,,,,,,,,,,,,,0,0,0,0,,,,,0,1,1,0,0,16,16,16,,,,,,,,,,,,,,,,,,,,,,,,,,,,,,,,,,,,,,,,,,,,,,,,,,,,,CS1_USneg,None,1,,,,,,,,,,,,,,,,,,23,female,93,n,2019_Dec_22_1126,ec_RRR,3.0.4,60.12281889437066,
Corneille and Mierop,"Dans cette tâche, la créature ciblée est Gourgeist:","Ainsi, chaque fois que Gourgeist (son nom ou sa photo) apparaît à l'écran, appuyez sur la barre d'espace le plus rapidement possible. Appuyez sur la barre d'espace chaque fois que vous voyez une image de Gourgeist ou le mot GOURGEIST.

Appuyez sur la barre d'espace pour démarrer la tâche.",target1,stimuli/t1.jpg,93,18,stimuli/target1_6.jpg,target,True,space,,,,,,,,,,,,,,0,0,0,0,,,,,0,1,1,0,0,17,17,17,,,,,,,,,,,,,,,,,,,,,,,,,,,,,,,,,,,,,,,,,,,,,,,,,,,,,CS1_USneg,space,1,0.5626546000021335,,,,,,,,,,,,,,,,,23,female,93,n,2019_Dec_22_1126,ec_RRR,3.0.4,60.12281889437066,
Corneille and Mierop,"Dans cette tâche, la créature ciblée est Gourgeist:","Ainsi, chaque fois que Gourgeist (son nom ou sa photo) apparaît à l'écran, appuyez sur la barre d'espace le plus rapidement possible. Appuyez sur la barre d'espace chaque fois que vous voyez une image de Gourgeist ou le mot GOURGEIST.

Appuyez sur la barre d'espace pour démarrer la tâche.",target1,stimuli/t1.jpg,93,19,stimuli/filler29.jpg,filler,False,None,,,,,,,,,,,,,,0,0,0,0,,,,,0,1,1,0,0,18,18,18,,,,,,,,,,,,,,,,,,,,,,,,,,,,,,,,,,,,,,,,,,,,,,,,,,,,,CS1_USneg,None,1,,,,,,,,,,,,,,,,,,23,female,93,n,2019_Dec_22_1126,ec_RRR,3.0.4,60.12281889437066,
Corneille and Mierop,"Dans cette tâche, la créature ciblée est Gourgeist:","Ainsi, chaque fois que Gourgeist (son nom ou sa photo) apparaît à l'écran, appuyez sur la barre d'espace le plus rapidement possible. Appuyez sur la barre d'espace chaque fois que vous voyez une image de Gourgeist ou le mot GOURGEIST.

Appuyez sur la barre d'espace pour démarrer la tâche.",target1,stimuli/t1.jpg,93,20,stimuli/blank.jpg,blank,False,None,,,,,,,,,,,,,,0,0,0,0,,,,,0,1,1,0,0,19,19,19,,,,,,,,,,,,,,,,,,,,,,,,,,,,,,,,,,,,,,,,,,,,,,,,,,,,,CS1_USneg,None,1,,,,,,,,,,,,,,,,,,23,female,93,n,2019_Dec_22_1126,ec_RRR,3.0.4,60.12281889437066,
Corneille and Mierop,"Dans cette tâche, la créature ciblée est Gourgeist:","Ainsi, chaque fois que Gourgeist (son nom ou sa photo) apparaît à l'écran, appuyez sur la barre d'espace le plus rapidement possible. Appuyez sur la barre d'espace chaque fois que vous voyez une image de Gourgeist ou le mot GOURGEIST.

Appuyez sur la barre d'espace pour démarrer la tâche.",target1,stimuli/t1.jpg,93,21,stimuli/cs2_pos12.jpg,CSUS,False,None,,,,,,,,,,,,,,0,0,0,0,,,,,0,1,1,0,0,20,20,20,,,,,,,,,,,,,,,,,,,,,,,,,,,,,,,,,,,,,,,,,,,,,,,,,,,,,CS1_USneg,None,1,,,,,,,,,,,,,,,,,,23,female,93,n,2019_Dec_22_1126,ec_RRR,3.0.4,60.12281889437066,
Corneille and Mierop,"Dans cette tâche, la créature ciblée est Gourgeist:","Ainsi, chaque fois que Gourgeist (son nom ou sa photo) apparaît à l'écran, appuyez sur la barre d'espace le plus rapidement possible. Appuyez sur la barre d'espace chaque fois que vous voyez une image de Gourgeist ou le mot GOURGEIST.

Appuyez sur la barre d'espace pour démarrer la tâche.",target1,stimuli/t1.jpg,93,22,stimuli/blank.jpg,blank,False,None,,,,,,,,,,,,,,0,0,0,0,,,,,0,1,1,0,0,21,21,21,,,,,,,,,,,,,,,,,,,,,,,,,,,,,,,,,,,,,,,,,,,,,,,,,,,,,CS1_USneg,None,1,,,,,,,,,,,,,,,,,,23,female,93,n,2019_Dec_22_1126,ec_RRR,3.0.4,60.12281889437066,
Corneille and Mierop,"Dans cette tâche, la créature ciblée est Gourgeist:","Ainsi, chaque fois que Gourgeist (son nom ou sa photo) apparaît à l'écran, appuyez sur la barre d'espace le plus rapidement possible. Appuyez sur la barre d'espace chaque fois que vous voyez une image de Gourgeist ou le mot GOURGEIST.

Appuyez sur la barre d'espace pour démarrer la tâche.",target1,stimuli/t1.jpg,93,23,stimuli/filler6.jpg,filler,False,None,,,,,,,,,,,,,,0,0,0,0,,,,,0,1,1,0,0,22,22,22,,,,,,,,,,,,,,,,,,,,,,,,,,,,,,,,,,,,,,,,,,,,,,,,,,,,,CS1_USneg,None,1,,,,,,,,,,,,,,,,,,23,female,93,n,2019_Dec_22_1126,ec_RRR,3.0.4,60.12281889437066,
Corneille and Mierop,"Dans cette tâche, la créature ciblée est Gourgeist:","Ainsi, chaque fois que Gourgeist (son nom ou sa photo) apparaît à l'écran, appuyez sur la barre d'espace le plus rapidement possible. Appuyez sur la barre d'espace chaque fois que vous voyez une image de Gourgeist ou le mot GOURGEIST.

Appuyez sur la barre d'espace pour démarrer la tâche.",target1,stimuli/t1.jpg,93,24,stimuli/filler26.jpg,filler,False,None,,,,,,,,,,,,,,0,0,0,0,,,,,0,1,1,0,0,23,23,23,,,,,,,,,,,,,,,,,,,,,,,,,,,,,,,,,,,,,,,,,,,,,,,,,,,,,CS1_USneg,None,1,,,,,,,,,,,,,,,,,,23,female,93,n,2019_Dec_22_1126,ec_RRR,3.0.4,60.12281889437066,
Corneille and Mierop,"Dans cette tâche, la créature ciblée est Gourgeist:","Ainsi, chaque fois que Gourgeist (son nom ou sa photo) apparaît à l'écran, appuyez sur la barre d'espace le plus rapidement possible. Appuyez sur la barre d'espace chaque fois que vous voyez une image de Gourgeist ou le mot GOURGEIST.

Appuyez sur la barre d'espace pour démarrer la tâche.",target1,stimuli/t1.jpg,93,25,stimuli/filler22.jpg,filler,False,None,,,,,,,,,,,,,,0,0,0,0,,,,,0,1,1,0,0,24,24,24,,,,,,,,,,,,,,,,,,,,,,,,,,,,,,,,,,,,,,,,,,,,,,,,,,,,,CS1_USneg,None,1,,,,,,,,,,,,,,,,,,23,female,93,n,2019_Dec_22_1126,ec_RRR,3.0.4,60.12281889437066,
Corneille and Mierop,"Dans cette tâche, la créature ciblée est Gourgeist:","Ainsi, chaque fois que Gourgeist (son nom ou sa photo) apparaît à l'écran, appuyez sur la barre d'espace le plus rapidement possible. Appuyez sur la barre d'espace chaque fois que vous voyez une image de Gourgeist ou le mot GOURGEIST.

Appuyez sur la barre d'espace pour démarrer la tâche.",target1,stimuli/t1.jpg,93,26,stimuli/filler27.jpg,filler,False,None,,,,,,,,,,,,,,0,0,0,0,,,,,0,1,1,0,0,25,25,25,,,,,,,,,,,,,,,,,,,,,,,,,,,,,,,,,,,,,,,,,,,,,,,,,,,,,CS1_USneg,None,1,,,,,,,,,,,,,,,,,,23,female,93,n,2019_Dec_22_1126,ec_RRR,3.0.4,60.12281889437066,
Corneille and Mierop,"Dans cette tâche, la créature ciblée est Gourgeist:","Ainsi, chaque fois que Gourgeist (son nom ou sa photo) apparaît à l'écran, appuyez sur la barre d'espace le plus rapidement possible. Appuyez sur la barre d'espace chaque fois que vous voyez une image de Gourgeist ou le mot GOURGEIST.

Appuyez sur la barre d'espace pour démarrer la tâche.",target1,stimuli/t1.jpg,93,27,stimuli/filler7.jpg,filler,False,None,,,,,,,,,,,,,,0,0,0,0,,,,,0,1,1,0,0,26,26,26,,,,,,,,,,,,,,,,,,,,,,,,,,,,,,,,,,,,,,,,,,,,,,,,,,,,,CS1_USneg,None,1,,,,,,,,,,,,,,,,,,23,female,93,n,2019_Dec_22_1126,ec_RRR,3.0.4,60.12281889437066,
Corneille and Mierop,"Dans cette tâche, la créature ciblée est Gourgeist:","Ainsi, chaque fois que Gourgeist (son nom ou sa photo) apparaît à l'écran, appuyez sur la barre d'espace le plus rapidement possible. Appuyez sur la barre d'espace chaque fois que vous voyez une image de Gourgeist ou le mot GOURGEIST.

Appuyez sur la barre d'espace pour démarrer la tâche.",target1,stimuli/t1.jpg,93,28,stimuli/filler18.jpg,filler,False,None,,,,,,,,,,,,,,0,0,0,0,,,,,0,1,1,0,0,27,27,27,,,,,,,,,,,,,,,,,,,,,,,,,,,,,,,,,,,,,,,,,,,,,,,,,,,,,CS1_USneg,None,1,,,,,,,,,,,,,,,,,,23,female,93,n,2019_Dec_22_1126,ec_RRR,3.0.4,60.12281889437066,
Corneille and Mierop,"Dans cette tâche, la créature ciblée est Gourgeist:","Ainsi, chaque fois que Gourgeist (son nom ou sa photo) apparaît à l'écran, appuyez sur la barre d'espace le plus rapidement possible. Appuyez sur la barre d'espace chaque fois que vous voyez une image de Gourgeist ou le mot GOURGEIST.

Appuyez sur la barre d'espace pour démarrer la tâche.",target1,stimuli/t1.jpg,93,29,stimuli/filler4.jpg,filler,False,None,,,,,,,,,,,,,,0,0,0,0,,,,,0,1,1,0,0,28,28,28,,,,,,,,,,,,,,,,,,,,,,,,,,,,,,,,,,,,,,,,,,,,,,,,,,,,,CS1_USneg,None,1,,,,,,,,,,,,,,,,,,23,female,93,n,2019_Dec_22_1126,ec_RRR,3.0.4,60.12281889437066,
Corneille and Mierop,"Dans cette tâche, la créature ciblée est Gourgeist:","Ainsi, chaque fois que Gourgeist (son nom ou sa photo) apparaît à l'écran, appuyez sur la barre d'espace le plus rapidement possible. Appuyez sur la barre d'espace chaque fois que vous voyez une image de Gourgeist ou le mot GOURGEIST.

Appuyez sur la barre d'espace pour démarrer la tâche.",target1,stimuli/t1.jpg,93,30,stimuli/blank.jpg,blank,False,None,,,,,,,,,,,,,,0,0,0,0,,,,,0,1,1,0,0,29,29,29,,,,,,,,,,,,,,,,,,,,,,,,,,,,,,,,,,,,,,,,,,,,,,,,,,,,,CS1_USneg,None,1,,,,,,,,,,,,,,,,,,23,female,93,n,2019_Dec_22_1126,ec_RRR,3.0.4,60.12281889437066,
Corneille and Mierop,"Dans cette tâche, la créature ciblée est Gourgeist:","Ainsi, chaque fois que Gourgeist (son nom ou sa photo) apparaît à l'écran, appuyez sur la barre d'espace le plus rapidement possible. Appuyez sur la barre d'espace chaque fois que vous voyez une image de Gourgeist ou le mot GOURGEIST.

Appuyez sur la barre d'espace pour démarrer la tâche.",target1,stimuli/t1.jpg,93,31,stimuli/cs1_neg14.jpg,CSUS,False,None,,,,,,,,,,,,,,0,0,0,0,,,,,0,1,1,0,0,30,30,30,,,,,,,,,,,,,,,,,,,,,,,,,,,,,,,,,,,,,,,,,,,,,,,,,,,,,CS1_USneg,None,1,,,,,,,,,,,,,,,,,,23,female,93,n,2019_Dec_22_1126,ec_RRR,3.0.4,60.12281889437066,
Corneille and Mierop,"Dans cette tâche, la créature ciblée est Gourgeist:","Ainsi, chaque fois que Gourgeist (son nom ou sa photo) apparaît à l'écran, appuyez sur la barre d'espace le plus rapidement possible. Appuyez sur la barre d'espace chaque fois que vous voyez une image de Gourgeist ou le mot GOURGEIST.

Appuyez sur la barre d'espace pour démarrer la tâche.",target1,stimuli/t1.jpg,93,32,stimuli/blank.jpg,blank,False,None,,,,,,,,,,,,,,0,0,0,0,,,,,0,1,1,0,0,31,31,31,,,,,,,,,,,,,,,,,,,,,,,,,,,,,,,,,,,,,,,,,,,,,,,,,,,,,CS1_USneg,None,1,,,,,,,,,,,,,,,,,,23,female,93,n,2019_Dec_22_1126,ec_RRR,3.0.4,60.12281889437066,
Corneille and Mierop,"Dans cette tâche, la créature ciblée est Gourgeist:","Ainsi, chaque fois que Gourgeist (son nom ou sa photo) apparaît à l'écran, appuyez sur la barre d'espace le plus rapidement possible. Appuyez sur la barre d'espace chaque fois que vous voyez une image de Gourgeist ou le mot GOURGEIST.

Appuyez sur la barre d'espace pour démarrer la tâche.",target1,stimuli/t1.jpg,93,33,stimuli/filler39.jpg,filler,False,None,,,,,,,,,,,,,,0,0,0,0,,,,,0,1,1,0,0,32,32,32,,,,,,,,,,,,,,,,,,,,,,,,,,,,,,,,,,,,,,,,,,,,,,,,,,,,,CS1_USneg,None,1,,,,,,,,,,,,,,,,,,23,female,93,n,2019_Dec_22_1126,ec_RRR,3.0.4,60.12281889437066,
Corneille and Mierop,"Dans cette tâche, la créature ciblée est Gourgeist:","Ainsi, chaque fois que Gourgeist (son nom ou sa photo) apparaît à l'écran, appuyez sur la barre d'espace le plus rapidement possible. Appuyez sur la barre d'espace chaque fois que vous voyez une image de Gourgeist ou le mot GOURGEIST.

Appuyez sur la barre d'espace pour démarrer la tâche.",target1,stimuli/t1.jpg,93,34,stimuli/filler35.jpg,filler,False,None,,,,,,,,,,,,,,0,0,0,0,,,,,0,1,1,0,0,33,33,33,,,,,,,,,,,,,,,,,,,,,,,,,,,,,,,,,,,,,,,,,,,,,,,,,,,,,CS1_USneg,None,1,,,,,,,,,,,,,,,,,,23,female,93,n,2019_Dec_22_1126,ec_RRR,3.0.4,60.12281889437066,
Corneille and Mierop,"Dans cette tâche, la créature ciblée est Gourgeist:","Ainsi, chaque fois que Gourgeist (son nom ou sa photo) apparaît à l'écran, appuyez sur la barre d'espace le plus rapidement possible. Appuyez sur la barre d'espace chaque fois que vous voyez une image de Gourgeist ou le mot GOURGEIST.

Appuyez sur la barre d'espace pour démarrer la tâche.",target1,stimuli/t1.jpg,93,35,stimuli/target1_2.jpg,target,True,space,,,,,,,,,,,,,,0,0,0,0,,,,,0,1,1,0,0,34,34,34,,,,,,,,,,,,,,,,,,,,,,,,,,,,,,,,,,,,,,,,,,,,,,,,,,,,,CS1_USneg,space,1,0.6293602000005194,,,,,,,,,,,,,,,,,23,female,93,n,2019_Dec_22_1126,ec_RRR,3.0.4,60.12281889437066,
Corneille and Mierop,"Dans cette tâche, la créature ciblée est Gourgeist:","Ainsi, chaque fois que Gourgeist (son nom ou sa photo) apparaît à l'écran, appuyez sur la barre d'espace le plus rapidement possible. Appuyez sur la barre d'espace chaque fois que vous voyez une image de Gourgeist ou le mot GOURGEIST.

Appuyez sur la barre d'espace pour démarrer la tâche.",target1,stimuli/t1.jpg,93,36,stimuli/filler17.jpg,filler,False,None,,,,,,,,,,,,,,0,0,0,0,,,,,0,1,1,0,0,35,35,35,,,,,,,,,,,,,,,,,,,,,,,,,,,,,,,,,,,,,,,,,,,,,,,,,,,,,CS1_USneg,None,1,,,,,,,,,,,,,,,,,,23,female,93,n,2019_Dec_22_1126,ec_RRR,3.0.4,60.12281889437066,
Corneille and Mierop,"Dans cette tâche, la créature ciblée est Gourgeist:","Ainsi, chaque fois que Gourgeist (son nom ou sa photo) apparaît à l'écran, appuyez sur la barre d'espace le plus rapidement possible. Appuyez sur la barre d'espace chaque fois que vous voyez une image de Gourgeist ou le mot GOURGEIST.

Appuyez sur la barre d'espace pour démarrer la tâche.",target1,stimuli/t1.jpg,93,37,stimuli/filler12.jpg,filler,False,None,,,,,,,,,,,,,,0,0,0,0,,,,,0,1,1,0,0,36,36,36,,,,,,,,,,,,,,,,,,,,,,,,,,,,,,,,,,,,,,,,,,,,,,,,,,,,,CS1_USneg,None,1,,,,,,,,,,,,,,,,,,23,female,93,n,2019_Dec_22_1126,ec_RRR,3.0.4,60.12281889437066,
Corneille and Mierop,"Dans cette tâche, la créature ciblée est Gourgeist:","Ainsi, chaque fois que Gourgeist (son nom ou sa photo) apparaît à l'écran, appuyez sur la barre d'espace le plus rapidement possible. Appuyez sur la barre d'espace chaque fois que vous voyez une image de Gourgeist ou le mot GOURGEIST.

Appuyez sur la barre d'espace pour démarrer la tâche.",target1,stimuli/t1.jpg,93,38,stimuli/filler24.jpg,filler,False,None,,,,,,,,,,,,,,0,0,0,0,,,,,0,1,1,0,0,37,37,37,,,,,,,,,,,,,,,,,,,,,,,,,,,,,,,,,,,,,,,,,,,,,,,,,,,,,CS1_USneg,None,1,,,,,,,,,,,,,,,,,,23,female,93,n,2019_Dec_22_1126,ec_RRR,3.0.4,60.12281889437066,
Corneille and Mierop,"Dans cette tâche, la créature ciblée est Gourgeist:","Ainsi, chaque fois que Gourgeist (son nom ou sa photo) apparaît à l'écran, appuyez sur la barre d'espace le plus rapidement possible. Appuyez sur la barre d'espace chaque fois que vous voyez une image de Gourgeist ou le mot GOURGEIST.

Appuyez sur la barre d'espace pour démarrer la tâche.",target1,stimuli/t1.jpg,93,39,stimuli/filler30.jpg,filler,False,None,,,,,,,,,,,,,,0,0,0,0,,,,,0,1,1,0,0,38,38,38,,,,,,,,,,,,,,,,,,,,,,,,,,,,,,,,,,,,,,,,,,,,,,,,,,,,,CS1_USneg,None,1,,,,,,,,,,,,,,,,,,23,female,93,n,2019_Dec_22_1126,ec_RRR,3.0.4,60.12281889437066,
Corneille and Mierop,"Dans cette tâche, la créature ciblée est Gourgeist:","Ainsi, chaque fois que Gourgeist (son nom ou sa photo) apparaît à l'écran, appuyez sur la barre d'espace le plus rapidement possible. Appuyez sur la barre d'espace chaque fois que vous voyez une image de Gourgeist ou le mot GOURGEIST.

Appuyez sur la barre d'espace pour démarrer la tâche.",target1,stimuli/t1.jpg,93,40,stimuli/blank.jpg,blank,False,None,,,,,,,,,,,,,,0,0,0,0,,,,,0,1,1,0,0,39,39,39,,,,,,,,,,,,,,,,,,,,,,,,,,,,,,,,,,,,,,,,,,,,,,,,,,,,,CS1_USneg,None,1,,,,,,,,,,,,,,,,,,23,female,93,n,2019_Dec_22_1126,ec_RRR,3.0.4,60.12281889437066,
Corneille and Mierop,"Dans cette tâche, la créature ciblée est Gourgeist:","Ainsi, chaque fois que Gourgeist (son nom ou sa photo) apparaît à l'écran, appuyez sur la barre d'espace le plus rapidement possible. Appuyez sur la barre d'espace chaque fois que vous voyez une image de Gourgeist ou le mot GOURGEIST.

Appuyez sur la barre d'espace pour démarrer la tâche.",target1,stimuli/t1.jpg,93,41,stimuli/cs2_pos14.jpg,CSUS,False,None,,,,,,,,,,,,,,0,0,0,0,,,,,0,1,1,0,0,40,40,40,,,,,,,,,,,,,,,,,,,,,,,,,,,,,,,,,,,,,,,,,,,,,,,,,,,,,CS1_USneg,None,1,,,,,,,,,,,,,,,,,,23,female,93,n,2019_Dec_22_1126,ec_RRR,3.0.4,60.12281889437066,
Corneille and Mierop,"Dans cette tâche, la créature ciblée est Gourgeist:","Ainsi, chaque fois que Gourgeist (son nom ou sa photo) apparaît à l'écran, appuyez sur la barre d'espace le plus rapidement possible. Appuyez sur la barre d'espace chaque fois que vous voyez une image de Gourgeist ou le mot GOURGEIST.

Appuyez sur la barre d'espace pour démarrer la tâche.",target1,stimuli/t1.jpg,93,42,stimuli/blank.jpg,blank,False,None,,,,,,,,,,,,,,0,0,0,0,,,,,0,1,1,0,0,41,41,41,,,,,,,,,,,,,,,,,,,,,,,,,,,,,,,,,,,,,,,,,,,,,,,,,,,,,CS1_USneg,None,1,,,,,,,,,,,,,,,,,,23,female,93,n,2019_Dec_22_1126,ec_RRR,3.0.4,60.12281889437066,
Corneille and Mierop,"Dans cette tâche, la créature ciblée est Gourgeist:","Ainsi, chaque fois que Gourgeist (son nom ou sa photo) apparaît à l'écran, appuyez sur la barre d'espace le plus rapidement possible. Appuyez sur la barre d'espace chaque fois que vous voyez une image de Gourgeist ou le mot GOURGEIST.

Appuyez sur la barre d'espace pour démarrer la tâche.",target1,stimuli/t1.jpg,93,43,stimuli/target1_5.jpg,target,True,space,,,,,,,,,,,,,,0,0,0,0,,,,,0,1,1,0,0,42,42,42,,,,,,,,,,,,,,,,,,,,,,,,,,,,,,,,,,,,,,,,,,,,,,,,,,,,,CS1_USneg,space,1,0.8062137000015355,,,,,,,,,,,,,,,,,23,female,93,n,2019_Dec_22_1126,ec_RRR,3.0.4,60.12281889437066,
Corneille and Mierop,"Dans cette tâche, la créature ciblée est Gourgeist:","Ainsi, chaque fois que Gourgeist (son nom ou sa photo) apparaît à l'écran, appuyez sur la barre d'espace le plus rapidement possible. Appuyez sur la barre d'espace chaque fois que vous voyez une image de Gourgeist ou le mot GOURGEIST.

Appuyez sur la barre d'espace pour démarrer la tâche.",target1,stimuli/t1.jpg,93,44,stimuli/filler44.jpg,filler,False,None,,,,,,,,,,,,,,0,0,0,0,,,,,0,1,1,0,0,43,43,43,,,,,,,,,,,,,,,,,,,,,,,,,,,,,,,,,,,,,,,,,,,,,,,,,,,,,CS1_USneg,None,1,,,,,,,,,,,,,,,,,,23,female,93,n,2019_Dec_22_1126,ec_RRR,3.0.4,60.12281889437066,
Corneille and Mierop,"Dans cette tâche, la créature ciblée est Gourgeist:","Ainsi, chaque fois que Gourgeist (son nom ou sa photo) apparaît à l'écran, appuyez sur la barre d'espace le plus rapidement possible. Appuyez sur la barre d'espace chaque fois que vous voyez une image de Gourgeist ou le mot GOURGEIST.

Appuyez sur la barre d'espace pour démarrer la tâche.",target1,stimuli/t1.jpg,93,45,stimuli/target1_10.jpg,target,True,space,,,,,,,,,,,,,,0,0,0,0,,,,,0,1,1,0,0,44,44,44,,,,,,,,,,,,,,,,,,,,,,,,,,,,,,,,,,,,,,,,,,,,,,,,,,,,,CS1_USneg,space,1,0.9479833000004874,,,,,,,,,,,,,,,,,23,female,93,n,2019_Dec_22_1126,ec_RRR,3.0.4,60.12281889437066,
Corneille and Mierop,"Dans cette tâche, la créature ciblée est Gourgeist:","Ainsi, chaque fois que Gourgeist (son nom ou sa photo) apparaît à l'écran, appuyez sur la barre d'espace le plus rapidement possible. Appuyez sur la barre d'espace chaque fois que vous voyez une image de Gourgeist ou le mot GOURGEIST.

Appuyez sur la barre d'espace pour démarrer la tâche.",target1,stimuli/t1.jpg,93,46,stimuli/target1_4.jpg,target,True,space,,,,,,,,,,,,,,0,0,0,0,,,,,0,1,1,0,0,45,45,45,,,,,,,,,,,,,,,,,,,,,,,,,,,,,,,,,,,,,,,,,,,,,,,,,,,,,CS1_USneg,space,1,0.7136616999996477,,,,,,,,,,,,,,,,,23,female,93,n,2019_Dec_22_1126,ec_RRR,3.0.4,60.12281889437066,
Corneille and Mierop,"Dans cette tâche, la créature ciblée est Gourgeist:","Ainsi, chaque fois que Gourgeist (son nom ou sa photo) apparaît à l'écran, appuyez sur la barre d'espace le plus rapidement possible. Appuyez sur la barre d'espace chaque fois que vous voyez une image de Gourgeist ou le mot GOURGEIST.

Appuyez sur la barre d'espace pour démarrer la tâche.",target1,stimuli/t1.jpg,93,47,stimuli/filler19.jpg,filler,False,None,,,,,,,,,,,,,,0,0,0,0,,,,,0,1,1,0,0,46,46,46,,,,,,,,,,,,,,,,,,,,,,,,,,,,,,,,,,,,,,,,,,,,,,,,,,,,,CS1_USneg,None,1,,,,,,,,,,,,,,,,,,23,female,93,n,2019_Dec_22_1126,ec_RRR,3.0.4,60.12281889437066,
Corneille and Mierop,"Dans cette tâche, la créature ciblée est Gourgeist:","Ainsi, chaque fois que Gourgeist (son nom ou sa photo) apparaît à l'écran, appuyez sur la barre d'espace le plus rapidement possible. Appuyez sur la barre d'espace chaque fois que vous voyez une image de Gourgeist ou le mot GOURGEIST.

Appuyez sur la barre d'espace pour démarrer la tâche.",target1,stimuli/t1.jpg,93,48,stimuli/filler23.jpg,filler,False,None,,,,,,,,,,,,,,0,0,0,0,,,,,0,1,1,0,0,47,47,47,,,,,,,,,,,,,,,,,,,,,,,,,,,,,,,,,,,,,,,,,,,,,,,,,,,,,CS1_USneg,None,1,,,,,,,,,,,,,,,,,,23,female,93,n,2019_Dec_22_1126,ec_RRR,3.0.4,60.12281889437066,
Corneille and Mierop,"Dans cette tâche, la créature ciblée est Gourgeist:","Ainsi, chaque fois que Gourgeist (son nom ou sa photo) apparaît à l'écran, appuyez sur la barre d'espace le plus rapidement possible. Appuyez sur la barre d'espace chaque fois que vous voyez une image de Gourgeist ou le mot GOURGEIST.

Appuyez sur la barre d'espace pour démarrer la tâche.",target1,stimuli/t1.jpg,93,49,stimuli/filler43.jpg,filler,False,None,,,,,,,,,,,,,,0,0,0,0,,,,,0,1,1,0,0,48,48,48,,,,,,,,,,,,,,,,,,,,,,,,,,,,,,,,,,,,,,,,,,,,,,,,,,,,,CS1_USneg,None,1,,,,,,,,,,,,,,,,,,23,female,93,n,2019_Dec_22_1126,ec_RRR,3.0.4,60.12281889437066,
Corneille and Mierop,"Dans cette tâche, la créature ciblée est Gourgeist:","Ainsi, chaque fois que Gourgeist (son nom ou sa photo) apparaît à l'écran, appuyez sur la barre d'espace le plus rapidement possible. Appuyez sur la barre d'espace chaque fois que vous voyez une image de Gourgeist ou le mot GOURGEIST.

Appuyez sur la barre d'espace pour démarrer la tâche.",target1,stimuli/t1.jpg,93,50,stimuli/blank.jpg,blank,False,None,,,,,,,,,,,,,,0,0,0,0,,,,,0,1,1,0,0,49,49,49,,,,,,,,,,,,,,,,,,,,,,,,,,,,,,,,,,,,,,,,,,,,,,,,,,,,,CS1_USneg,None,1,,,,,,,,,,,,,,,,,,23,female,93,n,2019_Dec_22_1126,ec_RRR,3.0.4,60.12281889437066,
Corneille and Mierop,"Dans cette tâche, la créature ciblée est Gourgeist:","Ainsi, chaque fois que Gourgeist (son nom ou sa photo) apparaît à l'écran, appuyez sur la barre d'espace le plus rapidement possible. Appuyez sur la barre d'espace chaque fois que vous voyez une image de Gourgeist ou le mot GOURGEIST.

Appuyez sur la barre d'espace pour démarrer la tâche.",target1,stimuli/t1.jpg,93,51,stimuli/cs1_neg9.jpg,CSUS,False,None,,,,,,,,,,,,,,0,0,0,0,,,,,0,1,1,0,0,50,50,50,,,,,,,,,,,,,,,,,,,,,,,,,,,,,,,,,,,,,,,,,,,,,,,,,,,,,CS1_USneg,None,1,,,,,,,,,,,,,,,,,,23,female,93,n,2019_Dec_22_1126,ec_RRR,3.0.4,60.12281889437066,
Corneille and Mierop,"Dans cette tâche, la créature ciblée est Gourgeist:","Ainsi, chaque fois que Gourgeist (son nom ou sa photo) apparaît à l'écran, appuyez sur la barre d'espace le plus rapidement possible. Appuyez sur la barre d'espace chaque fois que vous voyez une image de Gourgeist ou le mot GOURGEIST.

Appuyez sur la barre d'espace pour démarrer la tâche.",target1,stimuli/t1.jpg,93,52,stimuli/blank.jpg,blank,False,None,,,,,,,,,,,,,,0,0,0,0,,,,,0,1,1,0,0,51,51,51,,,,,,,,,,,,,,,,,,,,,,,,,,,,,,,,,,,,,,,,,,,,,,,,,,,,,CS1_USneg,None,1,,,,,,,,,,,,,,,,,,23,female,93,n,2019_Dec_22_1126,ec_RRR,3.0.4,60.12281889437066,
Corneille and Mierop,"Dans cette tâche, la créature ciblée est Gourgeist:","Ainsi, chaque fois que Gourgeist (son nom ou sa photo) apparaît à l'écran, appuyez sur la barre d'espace le plus rapidement possible. Appuyez sur la barre d'espace chaque fois que vous voyez une image de Gourgeist ou le mot GOURGEIST.

Appuyez sur la barre d'espace pour démarrer la tâche.",target1,stimuli/t1.jpg,93,53,stimuli/filler15.jpg,filler,False,None,,,,,,,,,,,,,,0,0,0,0,,,,,0,1,1,0,0,52,52,52,,,,,,,,,,,,,,,,,,,,,,,,,,,,,,,,,,,,,,,,,,,,,,,,,,,,,CS1_USneg,None,1,,,,,,,,,,,,,,,,,,23,female,93,n,2019_Dec_22_1126,ec_RRR,3.0.4,60.12281889437066,
Corneille and Mierop,"Dans cette tâche, la créature ciblée est Gourgeist:","Ainsi, chaque fois que Gourgeist (son nom ou sa photo) apparaît à l'écran, appuyez sur la barre d'espace le plus rapidement possible. Appuyez sur la barre d'espace chaque fois que vous voyez une image de Gourgeist ou le mot GOURGEIST.

Appuyez sur la barre d'espace pour démarrer la tâche.",target1,stimuli/t1.jpg,93,54,stimuli/target1_1.jpg,target,True,space,,,,,,,,,,,,,,0,0,0,0,,,,,0,1,1,0,0,53,53,53,,,,,,,,,,,,,,,,,,,,,,,,,,,,,,,,,,,,,,,,,,,,,,,,,,,,,CS1_USneg,space,1,0.5615317000010691,,,,,,,,,,,,,,,,,23,female,93,n,2019_Dec_22_1126,ec_RRR,3.0.4,60.12281889437066,
Corneille and Mierop,"Dans cette tâche, la créature ciblée est Gourgeist:","Ainsi, chaque fois que Gourgeist (son nom ou sa photo) apparaît à l'écran, appuyez sur la barre d'espace le plus rapidement possible. Appuyez sur la barre d'espace chaque fois que vous voyez une image de Gourgeist ou le mot GOURGEIST.

Appuyez sur la barre d'espace pour démarrer la tâche.",target1,stimuli/t1.jpg,93,55,stimuli/filler11.jpg,filler,False,None,,,,,,,,,,,,,,0,0,0,0,,,,,0,1,1,0,0,54,54,54,,,,,,,,,,,,,,,,,,,,,,,,,,,,,,,,,,,,,,,,,,,,,,,,,,,,,CS1_USneg,None,1,,,,,,,,,,,,,,,,,,23,female,93,n,2019_Dec_22_1126,ec_RRR,3.0.4,60.12281889437066,
Corneille and Mierop,"Dans cette tâche, la créature ciblée est Gourgeist:","Ainsi, chaque fois que Gourgeist (son nom ou sa photo) apparaît à l'écran, appuyez sur la barre d'espace le plus rapidement possible. Appuyez sur la barre d'espace chaque fois que vous voyez une image de Gourgeist ou le mot GOURGEIST.

Appuyez sur la barre d'espace pour démarrer la tâche.",target1,stimuli/t1.jpg,93,56,stimuli/filler50.jpg,filler,False,None,,,,,,,,,,,,,,0,0,0,0,,,,,0,1,1,0,0,55,55,55,,,,,,,,,,,,,,,,,,,,,,,,,,,,,,,,,,,,,,,,,,,,,,,,,,,,,CS1_USneg,None,1,,,,,,,,,,,,,,,,,,23,female,93,n,2019_Dec_22_1126,ec_RRR,3.0.4,60.12281889437066,
Corneille and Mierop,"Dans cette tâche, la créature ciblée est Gourgeist:","Ainsi, chaque fois que Gourgeist (son nom ou sa photo) apparaît à l'écran, appuyez sur la barre d'espace le plus rapidement possible. Appuyez sur la barre d'espace chaque fois que vous voyez une image de Gourgeist ou le mot GOURGEIST.

Appuyez sur la barre d'espace pour démarrer la tâche.",target1,stimuli/t1.jpg,93,57,stimuli/filler52.jpg,filler,False,None,,,,,,,,,,,,,,0,0,0,0,,,,,0,1,1,0,0,56,56,56,,,,,,,,,,,,,,,,,,,,,,,,,,,,,,,,,,,,,,,,,,,,,,,,,,,,,CS1_USneg,None,1,,,,,,,,,,,,,,,,,,23,female,93,n,2019_Dec_22_1126,ec_RRR,3.0.4,60.12281889437066,
Corneille and Mierop,"Dans cette tâche, la créature ciblée est Gourgeist:","Ainsi, chaque fois que Gourgeist (son nom ou sa photo) apparaît à l'écran, appuyez sur la barre d'espace le plus rapidement possible. Appuyez sur la barre d'espace chaque fois que vous voyez une image de Gourgeist ou le mot GOURGEIST.

Appuyez sur la barre d'espace pour démarrer la tâche.",target1,stimuli/t1.jpg,93,58,stimuli/filler8.jpg,filler,False,None,,,,,,,,,,,,,,0,0,0,0,,,,,0,1,1,0,0,57,57,57,,,,,,,,,,,,,,,,,,,,,,,,,,,,,,,,,,,,,,,,,,,,,,,,,,,,,CS1_USneg,None,1,,,,,,,,,,,,,,,,,,23,female,93,n,2019_Dec_22_1126,ec_RRR,3.0.4,60.12281889437066,
Corneille and Mierop,"Dans cette tâche, la créature ciblée est Gourgeist:","Ainsi, chaque fois que Gourgeist (son nom ou sa photo) apparaît à l'écran, appuyez sur la barre d'espace le plus rapidement possible. Appuyez sur la barre d'espace chaque fois que vous voyez une image de Gourgeist ou le mot GOURGEIST.

Appuyez sur la barre d'espace pour démarrer la tâche.",target1,stimuli/t1.jpg,93,59,stimuli/filler21.jpg,filler,False,None,,,,,,,,,,,,,,0,0,0,0,,,,,0,1,1,0,0,58,58,58,,,,,,,,,,,,,,,,,,,,,,,,,,,,,,,,,,,,,,,,,,,,,,,,,,,,,CS1_USneg,None,1,,,,,,,,,,,,,,,,,,23,female,93,n,2019_Dec_22_1126,ec_RRR,3.0.4,60.12281889437066,
Corneille and Mierop,"Dans cette tâche, la créature ciblée est Gourgeist:","Ainsi, chaque fois que Gourgeist (son nom ou sa photo) apparaît à l'écran, appuyez sur la barre d'espace le plus rapidement possible. Appuyez sur la barre d'espace chaque fois que vous voyez une image de Gourgeist ou le mot GOURGEIST.

Appuyez sur la barre d'espace pour démarrer la tâche.",target1,stimuli/t1.jpg,93,60,stimuli/blank.jpg,blank,False,None,,,,,,,,,,,,,,0,0,0,0,,,,,0,1,1,0,0,59,59,59,,,,,,,,,,,,,,,,,,,,,,,,,,,,,,,,,,,,,,,,,,,,,,,,,,,,,CS1_USneg,None,1,,,,,,,,,,,,,,,,,,23,female,93,n,2019_Dec_22_1126,ec_RRR,3.0.4,60.12281889437066,
Corneille and Mierop,"Dans cette tâche, la créature ciblée est Gourgeist:","Ainsi, chaque fois que Gourgeist (son nom ou sa photo) apparaît à l'écran, appuyez sur la barre d'espace le plus rapidement possible. Appuyez sur la barre d'espace chaque fois que vous voyez une image de Gourgeist ou le mot GOURGEIST.

Appuyez sur la barre d'espace pour démarrer la tâche.",target1,stimuli/t1.jpg,93,61,stimuli/cs2_pos7.jpg,CSUS,False,None,,,,,,,,,,,,,,0,0,0,0,,,,,0,1,1,0,0,60,60,60,,,,,,,,,,,,,,,,,,,,,,,,,,,,,,,,,,,,,,,,,,,,,,,,,,,,,CS1_USneg,None,1,,,,,,,,,,,,,,,,,,23,female,93,n,2019_Dec_22_1126,ec_RRR,3.0.4,60.12281889437066,
Corneille and Mierop,"Dans cette tâche, la créature ciblée est Gourgeist:","Ainsi, chaque fois que Gourgeist (son nom ou sa photo) apparaît à l'écran, appuyez sur la barre d'espace le plus rapidement possible. Appuyez sur la barre d'espace chaque fois que vous voyez une image de Gourgeist ou le mot GOURGEIST.

Appuyez sur la barre d'espace pour démarrer la tâche.",target1,stimuli/t1.jpg,93,62,stimuli/blank.jpg,blank,False,None,,,,,,,,,,,,,,0,0,0,0,,,,,0,1,1,0,0,61,61,61,,,,,,,,,,,,,,,,,,,,,,,,,,,,,,,,,,,,,,,,,,,,,,,,,,,,,CS1_USneg,None,1,,,,,,,,,,,,,,,,,,23,female,93,n,2019_Dec_22_1126,ec_RRR,3.0.4,60.12281889437066,
Corneille and Mierop,"Dans cette tâche, la créature ciblée est Gourgeist:","Ainsi, chaque fois que Gourgeist (son nom ou sa photo) apparaît à l'écran, appuyez sur la barre d'espace le plus rapidement possible. Appuyez sur la barre d'espace chaque fois que vous voyez une image de Gourgeist ou le mot GOURGEIST.

Appuyez sur la barre d'espace pour démarrer la tâche.",target1,stimuli/t1.jpg,93,63,stimuli/filler46.jpg,filler,False,None,,,,,,,,,,,,,,0,0,0,0,,,,,0,1,1,0,0,62,62,62,,,,,,,,,,,,,,,,,,,,,,,,,,,,,,,,,,,,,,,,,,,,,,,,,,,,,CS1_USneg,None,1,,,,,,,,,,,,,,,,,,23,female,93,n,2019_Dec_22_1126,ec_RRR,3.0.4,60.12281889437066,
Corneille and Mierop,"Dans cette tâche, la créature ciblée est Gourgeist:","Ainsi, chaque fois que Gourgeist (son nom ou sa photo) apparaît à l'écran, appuyez sur la barre d'espace le plus rapidement possible. Appuyez sur la barre d'espace chaque fois que vous voyez une image de Gourgeist ou le mot GOURGEIST.

Appuyez sur la barre d'espace pour démarrer la tâche.",target1,stimuli/t1.jpg,93,64,stimuli/filler42.jpg,filler,False,None,,,,,,,,,,,,,,0,0,0,0,,,,,0,1,1,0,0,63,63,63,,,,,,,,,,,,,,,,,,,,,,,,,,,,,,,,,,,,,,,,,,,,,,,,,,,,,CS1_USneg,None,1,,,,,,,,,,,,,,,,,,23,female,93,n,2019_Dec_22_1126,ec_RRR,3.0.4,60.12281889437066,
Corneille and Mierop,"Dans cette tâche, la créature ciblée est Gourgeist:","Ainsi, chaque fois que Gourgeist (son nom ou sa photo) apparaît à l'écran, appuyez sur la barre d'espace le plus rapidement possible. Appuyez sur la barre d'espace chaque fois que vous voyez une image de Gourgeist ou le mot GOURGEIST.

Appuyez sur la barre d'espace pour démarrer la tâche.",target1,stimuli/t1.jpg,93,65,stimuli/filler38.jpg,filler,False,None,,,,,,,,,,,,,,0,0,0,0,,,,,0,1,1,0,0,64,64,64,,,,,,,,,,,,,,,,,,,,,,,,,,,,,,,,,,,,,,,,,,,,,,,,,,,,,CS1_USneg,None,1,,,,,,,,,,,,,,,,,,23,female,93,n,2019_Dec_22_1126,ec_RRR,3.0.4,60.12281889437066,
Corneille and Mierop,"Dans cette tâche, la créature ciblée est Gourgeist:","Ainsi, chaque fois que Gourgeist (son nom ou sa photo) apparaît à l'écran, appuyez sur la barre d'espace le plus rapidement possible. Appuyez sur la barre d'espace chaque fois que vous voyez une image de Gourgeist ou le mot GOURGEIST.

Appuyez sur la barre d'espace pour démarrer la tâche.",target1,stimuli/t1.jpg,93,66,stimuli/filler37.jpg,filler,False,None,,,,,,,,,,,,,,0,0,0,0,,,,,0,1,1,0,0,65,65,65,,,,,,,,,,,,,,,,,,,,,,,,,,,,,,,,,,,,,,,,,,,,,,,,,,,,,CS1_USneg,None,1,,,,,,,,,,,,,,,,,,23,female,93,n,2019_Dec_22_1126,ec_RRR,3.0.4,60.12281889437066,
Corneille and Mierop,"Dans cette tâche, la créature ciblée est Gourgeist:","Ainsi, chaque fois que Gourgeist (son nom ou sa photo) apparaît à l'écran, appuyez sur la barre d'espace le plus rapidement possible. Appuyez sur la barre d'espace chaque fois que vous voyez une image de Gourgeist ou le mot GOURGEIST.

Appuyez sur la barre d'espace pour démarrer la tâche.",target1,stimuli/t1.jpg,93,67,stimuli/filler14.jpg,filler,False,None,,,,,,,,,,,,,,0,0,0,0,,,,,0,1,1,0,0,66,66,66,,,,,,,,,,,,,,,,,,,,,,,,,,,,,,,,,,,,,,,,,,,,,,,,,,,,,CS1_USneg,None,1,,,,,,,,,,,,,,,,,,23,female,93,n,2019_Dec_22_1126,ec_RRR,3.0.4,60.12281889437066,
Corneille and Mierop,"Dans cette tâche, la créature ciblée est Gourgeist:","Ainsi, chaque fois que Gourgeist (son nom ou sa photo) apparaît à l'écran, appuyez sur la barre d'espace le plus rapidement possible. Appuyez sur la barre d'espace chaque fois que vous voyez une image de Gourgeist ou le mot GOURGEIST.

Appuyez sur la barre d'espace pour démarrer la tâche.",target1,stimuli/t1.jpg,93,68,stimuli/filler5.jpg,filler,False,None,,,,,,,,,,,,,,0,0,0,0,,,,,0,1,1,0,0,67,67,67,,,,,,,,,,,,,,,,,,,,,,,,,,,,,,,,,,,,,,,,,,,,,,,,,,,,,CS1_USneg,None,1,,,,,,,,,,,,,,,,,,23,female,93,n,2019_Dec_22_1126,ec_RRR,3.0.4,60.12281889437066,
Corneille and Mierop,"Dans cette tâche, la créature ciblée est Gourgeist:","Ainsi, chaque fois que Gourgeist (son nom ou sa photo) apparaît à l'écran, appuyez sur la barre d'espace le plus rapidement possible. Appuyez sur la barre d'espace chaque fois que vous voyez une image de Gourgeist ou le mot GOURGEIST.

Appuyez sur la barre d'espace pour démarrer la tâche.",target1,stimuli/t1.jpg,93,69,stimuli/target1_9.jpg,target,True,space,,,,,,,,,,,,,,0,0,0,0,,,,,0,1,1,0,0,68,68,68,,,,,,,,,,,,,,,,,,,,,,,,,,,,,,,,,,,,,,,,,,,,,,,,,,,,,CS1_USneg,space,1,0.7007078999995429,,,,,,,,,,,,,,,,,23,female,93,n,2019_Dec_22_1126,ec_RRR,3.0.4,60.12281889437066,
Corneille and Mierop,"Dans cette tâche, la créature ciblée est Gourgeist:","Ainsi, chaque fois que Gourgeist (son nom ou sa photo) apparaît à l'écran, appuyez sur la barre d'espace le plus rapidement possible. Appuyez sur la barre d'espace chaque fois que vous voyez une image de Gourgeist ou le mot GOURGEIST.

