data_collection_site,instructions_text_top,instructions_text_bottom,block_id,example_image,participant,trial_number,stimulus,trial_type,target_trial,surveillance_correct_response,filler_1_items,filler_2_items,middle_text,left_text,right_text,evaluation_stimulus,left_stimulus,right_stimulus,evaluation_response_indicating_CS1_preferred,awareness_1_question_text,awareness_2a_question_text,awareness_2b_question_text,awareness_2_question_text,record_data_collection_site_variable.thisRepN,record_data_collection_site_variable.thisTrialN,record_data_collection_site_variable.thisN,record_data_collection_site_variable.thisIndex,surveillance_instructions_loop.thisRepN,surveillance_instructions_loop.thisTrialN,surveillance_instructions_loop.thisN,surveillance_instructions_loop.thisIndex,surveillance_blocks_loop.thisRepN,surveillance_blocks_loop.thisTrialN,surveillance_blocks_loop.thisN,surveillance_blocks_loop.thisIndex,surveillance_trials_loop.thisRepN,surveillance_trials_loop.thisTrialN,surveillance_trials_loop.thisN,surveillance_trials_loop.thisIndex,filler_1_instructions_loop.thisRepN,filler_1_instructions_loop.thisTrialN,filler_1_instructions_loop.thisN,filler_1_instructions_loop.thisIndex,filler_1_loop.thisRepN,filler_1_loop.thisTrialN,filler_1_loop.thisN,filler_1_loop.thisIndex,filler_2_instructions_loop.thisRepN,filler_2_instructions_loop.thisTrialN,filler_2_instructions_loop.thisN,filler_2_instructions_loop.thisIndex,filler_2_loop.thisRepN,filler_2_loop.thisTrialN,filler_2_loop.thisN,filler_2_loop.thisIndex,evaluation_instructions_loop.thisRepN,evaluation_instructions_loop.thisTrialN,evaluation_instructions_loop.thisN,evaluation_instructions_loop.thisIndex,evaluation_loop.thisRepN,evaluation_loop.thisTrialN,evaluation_loop.thisN,evaluation_loop.thisIndex,evaluation_trials.thisRepN,evaluation_trials.thisTrialN,evaluation_trials.thisN,evaluation_trials.thisIndex,awareness_instructions_loop.thisRepN,awareness_instructions_loop.thisTrialN,awareness_instructions_loop.thisN,awareness_instructions_loop.thisIndex,awareness_1_trials_loop.thisRepN,awareness_1_trials_loop.thisTrialN,awareness_1_trials_loop.thisN,awareness_1_trials_loop.thisIndex,awareness_2a_trials_loop.thisRepN,awareness_2a_trials_loop.thisTrialN,awareness_2a_trials_loop.thisN,awareness_2a_trials_loop.thisIndex,awareness_2b_trials_loop.thisRepN,awareness_2b_trials_loop.thisTrialN,awareness_2b_trials_loop.thisN,awareness_2b_trials_loop.thisIndex,awareness_2c_trials_loop.thisRepN,awareness_2c_trials_loop.thisTrialN,awareness_2c_trials_loop.thisN,awareness_2c_trials_loop.thisIndex,end_message_loop.thisRepN,end_message_loop.thisTrialN,end_message_loop.thisN,end_message_loop.thisIndex,condition,surveillance_response.keys,surveillance_response.corr,surveillance_response.rt,filler_1_rating.response,filler_1_rating.rt,filler_2_rating.response,filler_2_rating.rt,evaluation_response.keys,evaluation_response.corr,evaluation_response.rt,inputText,awareness_1_response.keys,awareness_1_response.rt,awareness_type_2a_rating.response,awareness_type_2a_rating.rt,awareness_type_2b_rating.response,awareness_type_2b_rating.rt,awareness_type_2c_rating.response,awareness_type_2c_rating.rt,age,gender,participant,UseMonkey,date,expName,psychopyVersion,frameRate,
Corneille and Mierop,"Dans cette tâche, la créature ciblée est Zorua:","Ainsi, chaque fois que Zorua (son nom ou sa photo) apparaît à l'écran, appuyez sur la barre d'espace le plus rapidement possible. Appuyez sur la barre d'espace chaque fois que vous voyez une image de Zorua ou le mot ZORUA.

Appuyez sur la barre d'espace pour démarrer la tâche.",target4,stimuli/t4.jpg,96,1,stimuli/filler49.jpg,filler,False,None,,,,,,,,,,,,,,0,0,0,0,,,,,0,0,0,3,0,0,0,0,,,,,,,,,,,,,,,,,,,,,,,,,,,,,,,,,,,,,,,,,,,,,,,,,,,,,CS1_USpos,None,1,,,,,,,,,,,,,,,,,,19,female,96,n,2019_Dec_22_1129,ec_RRR,3.0.4,60.01547198902588,
Corneille and Mierop,"Dans cette tâche, la créature ciblée est Zorua:","Ainsi, chaque fois que Zorua (son nom ou sa photo) apparaît à l'écran, appuyez sur la barre d'espace le plus rapidement possible. Appuyez sur la barre d'espace chaque fois que vous voyez une image de Zorua ou le mot ZORUA.

Appuyez sur la barre d'espace pour démarrer la tâche.",target4,stimuli/t4.jpg,96,2,stimuli/filler2.jpg,filler,False,None,,,,,,,,,,,,,,0,0,0,0,,,,,0,0,0,3,0,1,1,1,,,,,,,,,,,,,,,,,,,,,,,,,,,,,,,,,,,,,,,,,,,,,,,,,,,,,CS1_USpos,None,1,,,,,,,,,,,,,,,,,,19,female,96,n,2019_Dec_22_1129,ec_RRR,3.0.4,60.01547198902588,
Corneille and Mierop,"Dans cette tâche, la créature ciblée est Zorua:","Ainsi, chaque fois que Zorua (son nom ou sa photo) apparaît à l'écran, appuyez sur la barre d'espace le plus rapidement possible. Appuyez sur la barre d'espace chaque fois que vous voyez une image de Zorua ou le mot ZORUA.

Appuyez sur la barre d'espace pour démarrer la tâche.",target4,stimuli/t4.jpg,96,3,stimuli/filler43.jpg,filler,False,None,,,,,,,,,,,,,,0,0,0,0,,,,,0,0,0,3,0,2,2,2,,,,,,,,,,,,,,,,,,,,,,,,,,,,,,,,,,,,,,,,,,,,,,,,,,,,,CS1_USpos,None,1,,,,,,,,,,,,,,,,,,19,female,96,n,2019_Dec_22_1129,ec_RRR,3.0.4,60.01547198902588,
Corneille and Mierop,"Dans cette tâche, la créature ciblée est Zorua:","Ainsi, chaque fois que Zorua (son nom ou sa photo) apparaît à l'écran, appuyez sur la barre d'espace le plus rapidement possible. Appuyez sur la barre d'espace chaque fois que vous voyez une image de Zorua ou le mot ZORUA.

Appuyez sur la barre d'espace pour démarrer la tâche.",target4,stimuli/t4.jpg,96,4,stimuli/filler16.jpg,filler,False,None,,,,,,,,,,,,,,0,0,0,0,,,,,0,0,0,3,0,3,3,3,,,,,,,,,,,,,,,,,,,,,,,,,,,,,,,,,,,,,,,,,,,,,,,,,,,,,CS1_USpos,None,1,,,,,,,,,,,,,,,,,,19,female,96,n,2019_Dec_22_1129,ec_RRR,3.0.4,60.01547198902588,
Corneille and Mierop,"Dans cette tâche, la créature ciblée est Zorua:","Ainsi, chaque fois que Zorua (son nom ou sa photo) apparaît à l'écran, appuyez sur la barre d'espace le plus rapidement possible. Appuyez sur la barre d'espace chaque fois que vous voyez une image de Zorua ou le mot ZORUA.

Appuyez sur la barre d'espace pour démarrer la tâche.",target4,stimuli/t4.jpg,96,5,stimuli/filler8.jpg,filler,False,None,,,,,,,,,,,,,,0,0,0,0,,,,,0,0,0,3,0,4,4,4,,,,,,,,,,,,,,,,,,,,,,,,,,,,,,,,,,,,,,,,,,,,,,,,,,,,,CS1_USpos,None,1,,,,,,,,,,,,,,,,,,19,female,96,n,2019_Dec_22_1129,ec_RRR,3.0.4,60.01547198902588,
Corneille and Mierop,"Dans cette tâche, la créature ciblée est Zorua:","Ainsi, chaque fois que Zorua (son nom ou sa photo) apparaît à l'écran, appuyez sur la barre d'espace le plus rapidement possible. Appuyez sur la barre d'espace chaque fois que vous voyez une image de Zorua ou le mot ZORUA.

Appuyez sur la barre d'espace pour démarrer la tâche.",target4,stimuli/t4.jpg,96,6,stimuli/filler10.jpg,filler,False,None,,,,,,,,,,,,,,0,0,0,0,,,,,0,0,0,3,0,5,5,5,,,,,,,,,,,,,,,,,,,,,,,,,,,,,,,,,,,,,,,,,,,,,,,,,,,,,CS1_USpos,None,1,,,,,,,,,,,,,,,,,,19,female,96,n,2019_Dec_22_1129,ec_RRR,3.0.4,60.01547198902588,
Corneille and Mierop,"Dans cette tâche, la créature ciblée est Zorua:","Ainsi, chaque fois que Zorua (son nom ou sa photo) apparaît à l'écran, appuyez sur la barre d'espace le plus rapidement possible. Appuyez sur la barre d'espace chaque fois que vous voyez une image de Zorua ou le mot ZORUA.

Appuyez sur la barre d'espace pour démarrer la tâche.",target4,stimuli/t4.jpg,96,7,stimuli/filler46.jpg,filler,False,None,,,,,,,,,,,,,,0,0,0,0,,,,,0,0,0,3,0,6,6,6,,,,,,,,,,,,,,,,,,,,,,,,,,,,,,,,,,,,,,,,,,,,,,,,,,,,,CS1_USpos,None,1,,,,,,,,,,,,,,,,,,19,female,96,n,2019_Dec_22_1129,ec_RRR,3.0.4,60.01547198902588,
Corneille and Mierop,"Dans cette tâche, la créature ciblée est Zorua:","Ainsi, chaque fois que Zorua (son nom ou sa photo) apparaît à l'écran, appuyez sur la barre d'espace le plus rapidement possible. Appuyez sur la barre d'espace chaque fois que vous voyez une image de Zorua ou le mot ZORUA.

Appuyez sur la barre d'espace pour démarrer la tâche.",target4,stimuli/t4.jpg,96,8,stimuli/filler48.jpg,filler,False,None,,,,,,,,,,,,,,0,0,0,0,,,,,0,0,0,3,0,7,7,7,,,,,,,,,,,,,,,,,,,,,,,,,,,,,,,,,,,,,,,,,,,,,,,,,,,,,CS1_USpos,None,1,,,,,,,,,,,,,,,,,,19,female,96,n,2019_Dec_22_1129,ec_RRR,3.0.4,60.01547198902588,
Corneille and Mierop,"Dans cette tâche, la créature ciblée est Zorua:","Ainsi, chaque fois que Zorua (son nom ou sa photo) apparaît à l'écran, appuyez sur la barre d'espace le plus rapidement possible. Appuyez sur la barre d'espace chaque fois que vous voyez une image de Zorua ou le mot ZORUA.

Appuyez sur la barre d'espace pour démarrer la tâche.",target4,stimuli/t4.jpg,96,9,stimuli/target4_4.jpg,target,True,space,,,,,,,,,,,,,,0,0,0,0,,,,,0,0,0,3,0,8,8,8,,,,,,,,,,,,,,,,,,,,,,,,,,,,,,,,,,,,,,,,,,,,,,,,,,,,,CS1_USpos,space,1,0.5562874000024749,,,,,,,,,,,,,,,,,19,female,96,n,2019_Dec_22_1129,ec_RRR,3.0.4,60.01547198902588,
Corneille and Mierop,"Dans cette tâche, la créature ciblée est Zorua:","Ainsi, chaque fois que Zorua (son nom ou sa photo) apparaît à l'écran, appuyez sur la barre d'espace le plus rapidement possible. Appuyez sur la barre d'espace chaque fois que vous voyez une image de Zorua ou le mot ZORUA.

Appuyez sur la barre d'espace pour démarrer la tâche.",target4,stimuli/t4.jpg,96,10,stimuli/blank.jpg,blank,False,None,,,,,,,,,,,,,,0,0,0,0,,,,,0,0,0,3,0,9,9,9,,,,,,,,,,,,,,,,,,,,,,,,,,,,,,,,,,,,,,,,,,,,,,,,,,,,,CS1_USpos,None,1,,,,,,,,,,,,,,,,,,19,female,96,n,2019_Dec_22_1129,ec_RRR,3.0.4,60.01547198902588,
Corneille and Mierop,"Dans cette tâche, la créature ciblée est Zorua:","Ainsi, chaque fois que Zorua (son nom ou sa photo) apparaît à l'écran, appuyez sur la barre d'espace le plus rapidement possible. Appuyez sur la barre d'espace chaque fois que vous voyez une image de Zorua ou le mot ZORUA.

Appuyez sur la barre d'espace pour démarrer la tâche.",target4,stimuli/t4.jpg,96,11,stimuli/cs1_pos8.jpg,CSUS,False,None,,,,,,,,,,,,,,0,0,0,0,,,,,0,0,0,3,0,10,10,10,,,,,,,,,,,,,,,,,,,,,,,,,,,,,,,,,,,,,,,,,,,,,,,,,,,,,CS1_USpos,None,1,,,,,,,,,,,,,,,,,,19,female,96,n,2019_Dec_22_1129,ec_RRR,3.0.4,60.01547198902588,
Corneille and Mierop,"Dans cette tâche, la créature ciblée est Zorua:","Ainsi, chaque fois que Zorua (son nom ou sa photo) apparaît à l'écran, appuyez sur la barre d'espace le plus rapidement possible. Appuyez sur la barre d'espace chaque fois que vous voyez une image de Zorua ou le mot ZORUA.

Appuyez sur la barre d'espace pour démarrer la tâche.",target4,stimuli/t4.jpg,96,12,stimuli/blank.jpg,blank,False,None,,,,,,,,,,,,,,0,0,0,0,,,,,0,0,0,3,0,11,11,11,,,,,,,,,,,,,,,,,,,,,,,,,,,,,,,,,,,,,,,,,,,,,,,,,,,,,CS1_USpos,None,1,,,,,,,,,,,,,,,,,,19,female,96,n,2019_Dec_22_1129,ec_RRR,3.0.4,60.01547198902588,
Corneille and Mierop,"Dans cette tâche, la créature ciblée est Zorua:","Ainsi, chaque fois que Zorua (son nom ou sa photo) apparaît à l'écran, appuyez sur la barre d'espace le plus rapidement possible. Appuyez sur la barre d'espace chaque fois que vous voyez une image de Zorua ou le mot ZORUA.

Appuyez sur la barre d'espace pour démarrer la tâche.",target4,stimuli/t4.jpg,96,13,stimuli/filler20.jpg,filler,False,None,,,,,,,,,,,,,,0,0,0,0,,,,,0,0,0,3,0,12,12,12,,,,,,,,,,,,,,,,,,,,,,,,,,,,,,,,,,,,,,,,,,,,,,,,,,,,,CS1_USpos,None,1,,,,,,,,,,,,,,,,,,19,female,96,n,2019_Dec_22_1129,ec_RRR,3.0.4,60.01547198902588,
Corneille and Mierop,"Dans cette tâche, la créature ciblée est Zorua:","Ainsi, chaque fois que Zorua (son nom ou sa photo) apparaît à l'écran, appuyez sur la barre d'espace le plus rapidement possible. Appuyez sur la barre d'espace chaque fois que vous voyez une image de Zorua ou le mot ZORUA.

Appuyez sur la barre d'espace pour démarrer la tâche.",target4,stimuli/t4.jpg,96,14,stimuli/filler1.jpg,filler,False,None,,,,,,,,,,,,,,0,0,0,0,,,,,0,0,0,3,0,13,13,13,,,,,,,,,,,,,,,,,,,,,,,,,,,,,,,,,,,,,,,,,,,,,,,,,,,,,CS1_USpos,None,1,,,,,,,,,,,,,,,,,,19,female,96,n,2019_Dec_22_1129,ec_RRR,3.0.4,60.01547198902588,
Corneille and Mierop,"Dans cette tâche, la créature ciblée est Zorua:","Ainsi, chaque fois que Zorua (son nom ou sa photo) apparaît à l'écran, appuyez sur la barre d'espace le plus rapidement possible. Appuyez sur la barre d'espace chaque fois que vous voyez une image de Zorua ou le mot ZORUA.

Appuyez sur la barre d'espace pour démarrer la tâche.",target4,stimuli/t4.jpg,96,15,stimuli/filler33.jpg,filler,False,None,,,,,,,,,,,,,,0,0,0,0,,,,,0,0,0,3,0,14,14,14,,,,,,,,,,,,,,,,,,,,,,,,,,,,,,,,,,,,,,,,,,,,,,,,,,,,,CS1_USpos,None,1,,,,,,,,,,,,,,,,,,19,female,96,n,2019_Dec_22_1129,ec_RRR,3.0.4,60.01547198902588,
Corneille and Mierop,"Dans cette tâche, la créature ciblée est Zorua:","Ainsi, chaque fois que Zorua (son nom ou sa photo) apparaît à l'écran, appuyez sur la barre d'espace le plus rapidement possible. Appuyez sur la barre d'espace chaque fois que vous voyez une image de Zorua ou le mot ZORUA.

Appuyez sur la barre d'espace pour démarrer la tâche.",target4,stimuli/t4.jpg,96,16,stimuli/filler35.jpg,filler,False,None,,,,,,,,,,,,,,0,0,0,0,,,,,0,0,0,3,0,15,15,15,,,,,,,,,,,,,,,,,,,,,,,,,,,,,,,,,,,,,,,,,,,,,,,,,,,,,CS1_USpos,None,1,,,,,,,,,,,,,,,,,,19,female,96,n,2019_Dec_22_1129,ec_RRR,3.0.4,60.01547198902588,
Corneille and Mierop,"Dans cette tâche, la créature ciblée est Zorua:","Ainsi, chaque fois que Zorua (son nom ou sa photo) apparaît à l'écran, appuyez sur la barre d'espace le plus rapidement possible. Appuyez sur la barre d'espace chaque fois que vous voyez une image de Zorua ou le mot ZORUA.

Appuyez sur la barre d'espace pour démarrer la tâche.",target4,stimuli/t4.jpg,96,17,stimuli/filler12.jpg,filler,False,None,,,,,,,,,,,,,,0,0,0,0,,,,,0,0,0,3,0,16,16,16,,,,,,,,,,,,,,,,,,,,,,,,,,,,,,,,,,,,,,,,,,,,,,,,,,,,,CS1_USpos,None,1,,,,,,,,,,,,,,,,,,19,female,96,n,2019_Dec_22_1129,ec_RRR,3.0.4,60.01547198902588,
Corneille and Mierop,"Dans cette tâche, la créature ciblée est Zorua:","Ainsi, chaque fois que Zorua (son nom ou sa photo) apparaît à l'écran, appuyez sur la barre d'espace le plus rapidement possible. Appuyez sur la barre d'espace chaque fois que vous voyez une image de Zorua ou le mot ZORUA.

Appuyez sur la barre d'espace pour démarrer la tâche.",target4,stimuli/t4.jpg,96,18,stimuli/filler31.jpg,filler,False,None,,,,,,,,,,,,,,0,0,0,0,,,,,0,0,0,3,0,17,17,17,,,,,,,,,,,,,,,,,,,,,,,,,,,,,,,,,,,,,,,,,,,,,,,,,,,,,CS1_USpos,None,1,,,,,,,,,,,,,,,,,,19,female,96,n,2019_Dec_22_1129,ec_RRR,3.0.4,60.01547198902588,
Corneille and Mierop,"Dans cette tâche, la créature ciblée est Zorua:","Ainsi, chaque fois que Zorua (son nom ou sa photo) apparaît à l'écran, appuyez sur la barre d'espace le plus rapidement possible. Appuyez sur la barre d'espace chaque fois que vous voyez une image de Zorua ou le mot ZORUA.

Appuyez sur la barre d'espace pour démarrer la tâche.",target4,stimuli/t4.jpg,96,19,stimuli/target4_9.jpg,target,True,space,,,,,,,,,,,,,,0,0,0,0,,,,,0,0,0,3,0,18,18,18,,,,,,,,,,,,,,,,,,,,,,,,,,,,,,,,,,,,,,,,,,,,,,,,,,,,,CS1_USpos,space,1,0.39913520000118297,,,,,,,,,,,,,,,,,19,female,96,n,2019_Dec_22_1129,ec_RRR,3.0.4,60.01547198902588,
Corneille and Mierop,"Dans cette tâche, la créature ciblée est Zorua:","Ainsi, chaque fois que Zorua (son nom ou sa photo) apparaît à l'écran, appuyez sur la barre d'espace le plus rapidement possible. Appuyez sur la barre d'espace chaque fois que vous voyez une image de Zorua ou le mot ZORUA.

Appuyez sur la barre d'espace pour démarrer la tâche.",target4,stimuli/t4.jpg,96,20,stimuli/blank.jpg,blank,False,None,,,,,,,,,,,,,,0,0,0,0,,,,,0,0,0,3,0,19,19,19,,,,,,,,,,,,,,,,,,,,,,,,,,,,,,,,,,,,,,,,,,,,,,,,,,,,,CS1_USpos,space,0,0.10836290000224835,,,,,,,,,,,,,,,,,19,female,96,n,2019_Dec_22_1129,ec_RRR,3.0.4,60.01547198902588,
Corneille and Mierop,"Dans cette tâche, la créature ciblée est Zorua:","Ainsi, chaque fois que Zorua (son nom ou sa photo) apparaît à l'écran, appuyez sur la barre d'espace le plus rapidement possible. Appuyez sur la barre d'espace chaque fois que vous voyez une image de Zorua ou le mot ZORUA.

Appuyez sur la barre d'espace pour démarrer la tâche.",target4,stimuli/t4.jpg,96,21,stimuli/cs2_neg12.jpg,CSUS,False,None,,,,,,,,,,,,,,0,0,0,0,,,,,0,0,0,3,0,20,20,20,,,,,,,,,,,,,,,,,,,,,,,,,,,,,,,,,,,,,,,,,,,,,,,,,,,,,CS1_USpos,None,1,,,,,,,,,,,,,,,,,,19,female,96,n,2019_Dec_22_1129,ec_RRR,3.0.4,60.01547198902588,
Corneille and Mierop,"Dans cette tâche, la créature ciblée est Zorua:","Ainsi, chaque fois que Zorua (son nom ou sa photo) apparaît à l'écran, appuyez sur la barre d'espace le plus rapidement possible. Appuyez sur la barre d'espace chaque fois que vous voyez une image de Zorua ou le mot ZORUA.

Appuyez sur la barre d'espace pour démarrer la tâche.",target4,stimuli/t4.jpg,96,22,stimuli/blank.jpg,blank,False,None,,,,,,,,,,,,,,0,0,0,0,,,,,0,0,0,3,0,21,21,21,,,,,,,,,,,,,,,,,,,,,,,,,,,,,,,,,,,,,,,,,,,,,,,,,,,,,CS1_USpos,None,1,,,,,,,,,,,,,,,,,,19,female,96,n,2019_Dec_22_1129,ec_RRR,3.0.4,60.01547198902588,
Corneille and Mierop,"Dans cette tâche, la créature ciblée est Zorua:","Ainsi, chaque fois que Zorua (son nom ou sa photo) apparaît à l'écran, appuyez sur la barre d'espace le plus rapidement possible. Appuyez sur la barre d'espace chaque fois que vous voyez une image de Zorua ou le mot ZORUA.

Appuyez sur la barre d'espace pour démarrer la tâche.",target4,stimuli/t4.jpg,96,23,stimuli/filler13.jpg,filler,False,None,,,,,,,,,,,,,,0,0,0,0,,,,,0,0,0,3,0,22,22,22,,,,,,,,,,,,,,,,,,,,,,,,,,,,,,,,,,,,,,,,,,,,,,,,,,,,,CS1_USpos,None,1,,,,,,,,,,,,,,,,,,19,female,96,n,2019_Dec_22_1129,ec_RRR,3.0.4,60.01547198902588,
Corneille and Mierop,"Dans cette tâche, la créature ciblée est Zorua:","Ainsi, chaque fois que Zorua (son nom ou sa photo) apparaît à l'écran, appuyez sur la barre d'espace le plus rapidement possible. Appuyez sur la barre d'espace chaque fois que vous voyez une image de Zorua ou le mot ZORUA.

Appuyez sur la barre d'espace pour démarrer la tâche.",target4,stimuli/t4.jpg,96,24,stimuli/filler4.jpg,filler,False,None,,,,,,,,,,,,,,0,0,0,0,,,,,0,0,0,3,0,23,23,23,,,,,,,,,,,,,,,,,,,,,,,,,,,,,,,,,,,,,,,,,,,,,,,,,,,,,CS1_USpos,None,1,,,,,,,,,,,,,,,,,,19,female,96,n,2019_Dec_22_1129,ec_RRR,3.0.4,60.01547198902588,
Corneille and Mierop,"Dans cette tâche, la créature ciblée est Zorua:","Ainsi, chaque fois que Zorua (son nom ou sa photo) apparaît à l'écran, appuyez sur la barre d'espace le plus rapidement possible. Appuyez sur la barre d'espace chaque fois que vous voyez une image de Zorua ou le mot ZORUA.

Appuyez sur la barre d'espace pour démarrer la tâche.",target4,stimuli/t4.jpg,96,25,stimuli/filler26.jpg,filler,False,None,,,,,,,,,,,,,,0,0,0,0,,,,,0,0,0,3,0,24,24,24,,,,,,,,,,,,,,,,,,,,,,,,,,,,,,,,,,,,,,,,,,,,,,,,,,,,,CS1_USpos,None,1,,,,,,,,,,,,,,,,,,19,female,96,n,2019_Dec_22_1129,ec_RRR,3.0.4,60.01547198902588,
Corneille and Mierop,"Dans cette tâche, la créature ciblée est Zorua:","Ainsi, chaque fois que Zorua (son nom ou sa photo) apparaît à l'écran, appuyez sur la barre d'espace le plus rapidement possible. Appuyez sur la barre d'espace chaque fois que vous voyez une image de Zorua ou le mot ZORUA.

Appuyez sur la barre d'espace pour démarrer la tâche.",target4,stimuli/t4.jpg,96,26,stimuli/filler19.jpg,filler,False,None,,,,,,,,,,,,,,0,0,0,0,,,,,0,0,0,3,0,25,25,25,,,,,,,,,,,,,,,,,,,,,,,,,,,,,,,,,,,,,,,,,,,,,,,,,,,,,CS1_USpos,None,1,,,,,,,,,,,,,,,,,,19,female,96,n,2019_Dec_22_1129,ec_RRR,3.0.4,60.01547198902588,
Corneille and Mierop,"Dans cette tâche, la créature ciblée est Zorua:","Ainsi, chaque fois que Zorua (son nom ou sa photo) apparaît à l'écran, appuyez sur la barre d'espace le plus rapidement possible. Appuyez sur la barre d'espace chaque fois que vous voyez une image de Zorua ou le mot ZORUA.

Appuyez sur la barre d'espace pour démarrer la tâche.",target4,stimuli/t4.jpg,96,27,stimuli/filler28.jpg,filler,False,None,,,,,,,,,,,,,,0,0,0,0,,,,,0,0,0,3,0,26,26,26,,,,,,,,,,,,,,,,,,,,,,,,,,,,,,,,,,,,,,,,,,,,,,,,,,,,,CS1_USpos,None,1,,,,,,,,,,,,,,,,,,19,female,96,n,2019_Dec_22_1129,ec_RRR,3.0.4,60.01547198902588,
Corneille and Mierop,"Dans cette tâche, la créature ciblée est Zorua:","Ainsi, chaque fois que Zorua (son nom ou sa photo) apparaît à l'écran, appuyez sur la barre d'espace le plus rapidement possible. Appuyez sur la barre d'espace chaque fois que vous voyez une image de Zorua ou le mot ZORUA.

Appuyez sur la barre d'espace pour démarrer la tâche.",target4,stimuli/t4.jpg,96,28,stimuli/filler32.jpg,filler,False,None,,,,,,,,,,,,,,0,0,0,0,,,,,0,0,0,3,0,27,27,27,,,,,,,,,,,,,,,,,,,,,,,,,,,,,,,,,,,,,,,,,,,,,,,,,,,,,CS1_USpos,None,1,,,,,,,,,,,,,,,,,,19,female,96,n,2019_Dec_22_1129,ec_RRR,3.0.4,60.01547198902588,
Corneille and Mierop,"Dans cette tâche, la créature ciblée est Zorua:","Ainsi, chaque fois que Zorua (son nom ou sa photo) apparaît à l'écran, appuyez sur la barre d'espace le plus rapidement possible. Appuyez sur la barre d'espace chaque fois que vous voyez une image de Zorua ou le mot ZORUA.

Appuyez sur la barre d'espace pour démarrer la tâche.",target4,stimuli/t4.jpg,96,29,stimuli/filler38.jpg,filler,False,None,,,,,,,,,,,,,,0,0,0,0,,,,,0,0,0,3,0,28,28,28,,,,,,,,,,,,,,,,,,,,,,,,,,,,,,,,,,,,,,,,,,,,,,,,,,,,,CS1_USpos,None,1,,,,,,,,,,,,,,,,,,19,female,96,n,2019_Dec_22_1129,ec_RRR,3.0.4,60.01547198902588,
Corneille and Mierop,"Dans cette tâche, la créature ciblée est Zorua:","Ainsi, chaque fois que Zorua (son nom ou sa photo) apparaît à l'écran, appuyez sur la barre d'espace le plus rapidement possible. Appuyez sur la barre d'espace chaque fois que vous voyez une image de Zorua ou le mot ZORUA.

Appuyez sur la barre d'espace pour démarrer la tâche.",target4,stimuli/t4.jpg,96,30,stimuli/blank.jpg,blank,False,None,,,,,,,,,,,,,,0,0,0,0,,,,,0,0,0,3,0,29,29,29,,,,,,,,,,,,,,,,,,,,,,,,,,,,,,,,,,,,,,,,,,,,,,,,,,,,,CS1_USpos,None,1,,,,,,,,,,,,,,,,,,19,female,96,n,2019_Dec_22_1129,ec_RRR,3.0.4,60.01547198902588,
Corneille and Mierop,"Dans cette tâche, la créature ciblée est Zorua:","Ainsi, chaque fois que Zorua (son nom ou sa photo) apparaît à l'écran, appuyez sur la barre d'espace le plus rapidement possible. Appuyez sur la barre d'espace chaque fois que vous voyez une image de Zorua ou le mot ZORUA.

Appuyez sur la barre d'espace pour démarrer la tâche.",target4,stimuli/t4.jpg,96,31,stimuli/cs1_pos1.jpg,CSUS,False,None,,,,,,,,,,,,,,0,0,0,0,,,,,0,0,0,3,0,30,30,30,,,,,,,,,,,,,,,,,,,,,,,,,,,,,,,,,,,,,,,,,,,,,,,,,,,,,CS1_USpos,None,1,,,,,,,,,,,,,,,,,,19,female,96,n,2019_Dec_22_1129,ec_RRR,3.0.4,60.01547198902588,
Corneille and Mierop,"Dans cette tâche, la créature ciblée est Zorua:","Ainsi, chaque fois que Zorua (son nom ou sa photo) apparaît à l'écran, appuyez sur la barre d'espace le plus rapidement possible. Appuyez sur la barre d'espace chaque fois que vous voyez une image de Zorua ou le mot ZORUA.

Appuyez sur la barre d'espace pour démarrer la tâche.",target4,stimuli/t4.jpg,96,32,stimuli/blank.jpg,blank,False,None,,,,,,,,,,,,,,0,0,0,0,,,,,0,0,0,3,0,31,31,31,,,,,,,,,,,,,,,,,,,,,,,,,,,,,,,,,,,,,,,,,,,,,,,,,,,,,CS1_USpos,None,1,,,,,,,,,,,,,,,,,,19,female,96,n,2019_Dec_22_1129,ec_RRR,3.0.4,60.01547198902588,
Corneille and Mierop,"Dans cette tâche, la créature ciblée est Zorua:","Ainsi, chaque fois que Zorua (son nom ou sa photo) apparaît à l'écran, appuyez sur la barre d'espace le plus rapidement possible. Appuyez sur la barre d'espace chaque fois que vous voyez une image de Zorua ou le mot ZORUA.

Appuyez sur la barre d'espace pour démarrer la tâche.",target4,stimuli/t4.jpg,96,33,stimuli/filler39.jpg,filler,False,None,,,,,,,,,,,,,,0,0,0,0,,,,,0,0,0,3,0,32,32,32,,,,,,,,,,,,,,,,,,,,,,,,,,,,,,,,,,,,,,,,,,,,,,,,,,,,,CS1_USpos,None,1,,,,,,,,,,,,,,,,,,19,female,96,n,2019_Dec_22_1129,ec_RRR,3.0.4,60.01547198902588,
Corneille and Mierop,"Dans cette tâche, la créature ciblée est Zorua:","Ainsi, chaque fois que Zorua (son nom ou sa photo) apparaît à l'écran, appuyez sur la barre d'espace le plus rapidement possible. Appuyez sur la barre d'espace chaque fois que vous voyez une image de Zorua ou le mot ZORUA.

Appuyez sur la barre d'espace pour démarrer la tâche.",target4,stimuli/t4.jpg,96,34,stimuli/filler15.jpg,filler,False,None,,,,,,,,,,,,,,0,0,0,0,,,,,0,0,0,3,0,33,33,33,,,,,,,,,,,,,,,,,,,,,,,,,,,,,,,,,,,,,,,,,,,,,,,,,,,,,CS1_USpos,None,1,,,,,,,,,,,,,,,,,,19,female,96,n,2019_Dec_22_1129,ec_RRR,3.0.4,60.01547198902588,
Corneille and Mierop,"Dans cette tâche, la créature ciblée est Zorua:","Ainsi, chaque fois que Zorua (son nom ou sa photo) apparaît à l'écran, appuyez sur la barre d'espace le plus rapidement possible. Appuyez sur la barre d'espace chaque fois que vous voyez une image de Zorua ou le mot ZORUA.

Appuyez sur la barre d'espace pour démarrer la tâche.",target4,stimuli/t4.jpg,96,35,stimuli/filler51.jpg,filler,False,None,,,,,,,,,,,,,,0,0,0,0,,,,,0,0,0,3,0,34,34,34,,,,,,,,,,,,,,,,,,,,,,,,,,,,,,,,,,,,,,,,,,,,,,,,,,,,,CS1_USpos,None,1,,,,,,,,,,,,,,,,,,19,female,96,n,2019_Dec_22_1129,ec_RRR,3.0.4,60.01547198902588,
Corneille and Mierop,"Dans cette tâche, la créature ciblée est Zorua:","Ainsi, chaque fois que Zorua (son nom ou sa photo) apparaît à l'écran, appuyez sur la barre d'espace le plus rapidement possible. Appuyez sur la barre d'espace chaque fois que vous voyez une image de Zorua ou le mot ZORUA.

Appuyez sur la barre d'espace pour démarrer la tâche.",target4,stimuli/t4.jpg,96,36,stimuli/filler23.jpg,filler,False,None,,,,,,,,,,,,,,0,0,0,0,,,,,0,0,0,3,0,35,35,35,,,,,,,,,,,,,,,,,,,,,,,,,,,,,,,,,,,,,,,,,,,,,,,,,,,,,CS1_USpos,None,1,,,,,,,,,,,,,,,,,,19,female,96,n,2019_Dec_22_1129,ec_RRR,3.0.4,60.01547198902588,
Corneille and Mierop,"Dans cette tâche, la créature ciblée est Zorua:","Ainsi, chaque fois que Zorua (son nom ou sa photo) apparaît à l'écran, appuyez sur la barre d'espace le plus rapidement possible. Appuyez sur la barre d'espace chaque fois que vous voyez une image de Zorua ou le mot ZORUA.

Appuyez sur la barre d'espace pour démarrer la tâche.",target4,stimuli/t4.jpg,96,37,stimuli/filler42.jpg,filler,False,None,,,,,,,,,,,,,,0,0,0,0,,,,,0,0,0,3,0,36,36,36,,,,,,,,,,,,,,,,,,,,,,,,,,,,,,,,,,,,,,,,,,,,,,,,,,,,,CS1_USpos,None,1,,,,,,,,,,,,,,,,,,19,female,96,n,2019_Dec_22_1129,ec_RRR,3.0.4,60.01547198902588,
Corneille and Mierop,"Dans cette tâche, la créature ciblée est Zorua:","Ainsi, chaque fois que Zorua (son nom ou sa photo) apparaît à l'écran, appuyez sur la barre d'espace le plus rapidement possible. Appuyez sur la barre d'espace chaque fois que vous voyez une image de Zorua ou le mot ZORUA.

Appuyez sur la barre d'espace pour démarrer la tâche.",target4,stimuli/t4.jpg,96,38,stimuli/filler21.jpg,filler,False,None,,,,,,,,,,,,,,0,0,0,0,,,,,0,0,0,3,0,37,37,37,,,,,,,,,,,,,,,,,,,,,,,,,,,,,,,,,,,,,,,,,,,,,,,,,,,,,CS1_USpos,None,1,,,,,,,,,,,,,,,,,,19,female,96,n,2019_Dec_22_1129,ec_RRR,3.0.4,60.01547198902588,
Corneille and Mierop,"Dans cette tâche, la créature ciblée est Zorua:","Ainsi, chaque fois que Zorua (son nom ou sa photo) apparaît à l'écran, appuyez sur la barre d'espace le plus rapidement possible. Appuyez sur la barre d'espace chaque fois que vous voyez une image de Zorua ou le mot ZORUA.

Appuyez sur la barre d'espace pour démarrer la tâche.",target4,stimuli/t4.jpg,96,39,stimuli/filler7.jpg,filler,False,None,,,,,,,,,,,,,,0,0,0,0,,,,,0,0,0,3,0,38,38,38,,,,,,,,,,,,,,,,,,,,,,,,,,,,,,,,,,,,,,,,,,,,,,,,,,,,,CS1_USpos,None,1,,,,,,,,,,,,,,,,,,19,female,96,n,2019_Dec_22_1129,ec_RRR,3.0.4,60.01547198902588,
Corneille and Mierop,"Dans cette tâche, la créature ciblée est Zorua:","Ainsi, chaque fois que Zorua (son nom ou sa photo) apparaît à l'écran, appuyez sur la barre d'espace le plus rapidement possible. Appuyez sur la barre d'espace chaque fois que vous voyez une image de Zorua ou le mot ZORUA.

Appuyez sur la barre d'espace pour démarrer la tâche.",target4,stimuli/t4.jpg,96,40,stimuli/blank.jpg,blank,False,None,,,,,,,,,,,,,,0,0,0,0,,,,,0,0,0,3,0,39,39,39,,,,,,,,,,,,,,,,,,,,,,,,,,,,,,,,,,,,,,,,,,,,,,,,,,,,,CS1_USpos,None,1,,,,,,,,,,,,,,,,,,19,female,96,n,2019_Dec_22_1129,ec_RRR,3.0.4,60.01547198902588,
Corneille and Mierop,"Dans cette tâche, la créature ciblée est Zorua:","Ainsi, chaque fois que Zorua (son nom ou sa photo) apparaît à l'écran, appuyez sur la barre d'espace le plus rapidement possible. Appuyez sur la barre d'espace chaque fois que vous voyez une image de Zorua ou le mot ZORUA.

Appuyez sur la barre d'espace pour démarrer la tâche.",target4,stimuli/t4.jpg,96,41,stimuli/cs2_neg20.jpg,CSUS,False,None,,,,,,,,,,,,,,0,0,0,0,,,,,0,0,0,3,0,40,40,40,,,,,,,,,,,,,,,,,,,,,,,,,,,,,,,,,,,,,,,,,,,,,,,,,,,,,CS1_USpos,None,1,,,,,,,,,,,,,,,,,,19,female,96,n,2019_Dec_22_1129,ec_RRR,3.0.4,60.01547198902588,
Corneille and Mierop,"Dans cette tâche, la créature ciblée est Zorua:","Ainsi, chaque fois que Zorua (son nom ou sa photo) apparaît à l'écran, appuyez sur la barre d'espace le plus rapidement possible. Appuyez sur la barre d'espace chaque fois que vous voyez une image de Zorua ou le mot ZORUA.

Appuyez sur la barre d'espace pour démarrer la tâche.",target4,stimuli/t4.jpg,96,42,stimuli/blank.jpg,blank,False,None,,,,,,,,,,,,,,0,0,0,0,,,,,0,0,0,3,0,41,41,41,,,,,,,,,,,,,,,,,,,,,,,,,,,,,,,,,,,,,,,,,,,,,,,,,,,,,CS1_USpos,None,1,,,,,,,,,,,,,,,,,,19,female,96,n,2019_Dec_22_1129,ec_RRR,3.0.4,60.01547198902588,
Corneille and Mierop,"Dans cette tâche, la créature ciblée est Zorua:","Ainsi, chaque fois que Zorua (son nom ou sa photo) apparaît à l'écran, appuyez sur la barre d'espace le plus rapidement possible. Appuyez sur la barre d'espace chaque fois que vous voyez une image de Zorua ou le mot ZORUA.

Appuyez sur la barre d'espace pour démarrer la tâche.",target4,stimuli/t4.jpg,96,43,stimuli/target4_3.jpg,target,True,space,,,,,,,,,,,,,,0,0,0,0,,,,,0,0,0,3,0,42,42,42,,,,,,,,,,,,,,,,,,,,,,,,,,,,,,,,,,,,,,,,,,,,,,,,,,,,,CS1_USpos,space,1,0.44017470000108005,,,,,,,,,,,,,,,,,19,female,96,n,2019_Dec_22_1129,ec_RRR,3.0.4,60.01547198902588,
Corneille and Mierop,"Dans cette tâche, la créature ciblée est Zorua:","Ainsi, chaque fois que Zorua (son nom ou sa photo) apparaît à l'écran, appuyez sur la barre d'espace le plus rapidement possible. Appuyez sur la barre d'espace chaque fois que vous voyez une image de Zorua ou le mot ZORUA.

Appuyez sur la barre d'espace pour démarrer la tâche.",target4,stimuli/t4.jpg,96,44,stimuli/filler29.jpg,filler,False,None,,,,,,,,,,,,,,0,0,0,0,,,,,0,0,0,3,0,43,43,43,,,,,,,,,,,,,,,,,,,,,,,,,,,,,,,,,,,,,,,,,,,,,,,,,,,,,CS1_USpos,None,1,,,,,,,,,,,,,,,,,,19,female,96,n,2019_Dec_22_1129,ec_RRR,3.0.4,60.01547198902588,
Corneille and Mierop,"Dans cette tâche, la créature ciblée est Zorua:","Ainsi, chaque fois que Zorua (son nom ou sa photo) apparaît à l'écran, appuyez sur la barre d'espace le plus rapidement possible. Appuyez sur la barre d'espace chaque fois que vous voyez une image de Zorua ou le mot ZORUA.

Appuyez sur la barre d'espace pour démarrer la tâche.",target4,stimuli/t4.jpg,96,45,stimuli/filler52.jpg,filler,False,None,,,,,,,,,,,,,,0,0,0,0,,,,,0,0,0,3,0,44,44,44,,,,,,,,,,,,,,,,,,,,,,,,,,,,,,,,,,,,,,,,,,,,,,,,,,,,,CS1_USpos,None,1,,,,,,,,,,,,,,,,,,19,female,96,n,2019_Dec_22_1129,ec_RRR,3.0.4,60.01547198902588,
Corneille and Mierop,"Dans cette tâche, la créature ciblée est Zorua:","Ainsi, chaque fois que Zorua (son nom ou sa photo) apparaît à l'écran, appuyez sur la barre d'espace le plus rapidement possible. Appuyez sur la barre d'espace chaque fois que vous voyez une image de Zorua ou le mot ZORUA.

Appuyez sur la barre d'espace pour démarrer la tâche.",target4,stimuli/t4.jpg,96,46,stimuli/target4_1.jpg,target,True,space,,,,,,,,,,,,,,0,0,0,0,,,,,0,0,0,3,0,45,45,45,,,,,,,,,,,,,,,,,,,,,,,,,,,,,,,,,,,,,,,,,,,,,,,,,,,,,CS1_USpos,space,1,0.48001030000159517,,,,,,,,,,,,,,,,,19,female,96,n,2019_Dec_22_1129,ec_RRR,3.0.4,60.01547198902588,
Corneille and Mierop,"Dans cette tâche, la créature ciblée est Zorua:","Ainsi, chaque fois que Zorua (son nom ou sa photo) apparaît à l'écran, appuyez sur la barre d'espace le plus rapidement possible. Appuyez sur la barre d'espace chaque fois que vous voyez une image de Zorua ou le mot ZORUA.

Appuyez sur la barre d'espace pour démarrer la tâche.",target4,stimuli/t4.jpg,96,47,stimuli/filler30.jpg,filler,False,None,,,,,,,,,,,,,,0,0,0,0,,,,,0,0,0,3,0,46,46,46,,,,,,,,,,,,,,,,,,,,,,,,,,,,,,,,,,,,,,,,,,,,,,,,,,,,,CS1_USpos,None,1,,,,,,,,,,,,,,,,,,19,female,96,n,2019_Dec_22_1129,ec_RRR,3.0.4,60.01547198902588,
Corneille and Mierop,"Dans cette tâche, la créature ciblée est Zorua:","Ainsi, chaque fois que Zorua (son nom ou sa photo) apparaît à l'écran, appuyez sur la barre d'espace le plus rapidement possible. Appuyez sur la barre d'espace chaque fois que vous voyez une image de Zorua ou le mot ZORUA.

Appuyez sur la barre d'espace pour démarrer la tâche.",target4,stimuli/t4.jpg,96,48,stimuli/filler9.jpg,filler,False,None,,,,,,,,,,,,,,0,0,0,0,,,,,0,0,0,3,0,47,47,47,,,,,,,,,,,,,,,,,,,,,,,,,,,,,,,,,,,,,,,,,,,,,,,,,,,,,CS1_USpos,None,1,,,,,,,,,,,,,,,,,,19,female,96,n,2019_Dec_22_1129,ec_RRR,3.0.4,60.01547198902588,
Corneille and Mierop,"Dans cette tâche, la créature ciblée est Zorua:","Ainsi, chaque fois que Zorua (son nom ou sa photo) apparaît à l'écran, appuyez sur la barre d'espace le plus rapidement possible. Appuyez sur la barre d'espace chaque fois que vous voyez une image de Zorua ou le mot ZORUA.

Appuyez sur la barre d'espace pour démarrer la tâche.",target4,stimuli/t4.jpg,96,49,stimuli/target4_6.jpg,target,True,space,,,,,,,,,,,,,,0,0,0,0,,,,,0,0,0,3,0,48,48,48,,,,,,,,,,,,,,,,,,,,,,,,,,,,,,,,,,,,,,,,,,,,,,,,,,,,,CS1_USpos,space,1,0.7862977000004321,,,,,,,,,,,,,,,,,19,female,96,n,2019_Dec_22_1129,ec_RRR,3.0.4,60.01547198902588,
Corneille and Mierop,"Dans cette tâche, la créature ciblée est Zorua:","Ainsi, chaque fois que Zorua (son nom ou sa photo) apparaît à l'écran, appuyez sur la barre d'espace le plus rapidement possible. Appuyez sur la barre d'espace chaque fois que vous voyez une image de Zorua ou le mot ZORUA.

Appuyez sur la barre d'espace pour démarrer la tâche.",target4,stimuli/t4.jpg,96,50,stimuli/blank.jpg,blank,False,None,,,,,,,,,,,,,,0,0,0,0,,,,,0,0,0,3,0,49,49,49,,,,,,,,,,,,,,,,,,,,,,,,,,,,,,,,,,,,,,,,,,,,,,,,,,,,,CS1_USpos,None,1,,,,,,,,,,,,,,,,,,19,female,96,n,2019_Dec_22_1129,ec_RRR,3.0.4,60.01547198902588,
Corneille and Mierop,"Dans cette tâche, la créature ciblée est Zorua:","Ainsi, chaque fois que Zorua (son nom ou sa photo) apparaît à l'écran, appuyez sur la barre d'espace le plus rapidement possible. Appuyez sur la barre d'espace chaque fois que vous voyez une image de Zorua ou le mot ZORUA.

Appuyez sur la barre d'espace pour démarrer la tâche.",target4,stimuli/t4.jpg,96,51,stimuli/cs1_pos17.jpg,CSUS,False,None,,,,,,,,,,,,,,0,0,0,0,,,,,0,0,0,3,0,50,50,50,,,,,,,,,,,,,,,,,,,,,,,,,,,,,,,,,,,,,,,,,,,,,,,,,,,,,CS1_USpos,None,1,,,,,,,,,,,,,,,,,,19,female,96,n,2019_Dec_22_1129,ec_RRR,3.0.4,60.01547198902588,
Corneille and Mierop,"Dans cette tâche, la créature ciblée est Zorua:","Ainsi, chaque fois que Zorua (son nom ou sa photo) apparaît à l'écran, appuyez sur la barre d'espace le plus rapidement possible. Appuyez sur la barre d'espace chaque fois que vous voyez une image de Zorua ou le mot ZORUA.

Appuyez sur la barre d'espace pour démarrer la tâche.",target4,stimuli/t4.jpg,96,52,stimuli/blank.jpg,blank,False,None,,,,,,,,,,,,,,0,0,0,0,,,,,0,0,0,3,0,51,51,51,,,,,,,,,,,,,,,,,,,,,,,,,,,,,,,,,,,,,,,,,,,,,,,,,,,,,CS1_USpos,None,1,,,,,,,,,,,,,,,,,,19,female,96,n,2019_Dec_22_1129,ec_RRR,3.0.4,60.01547198902588,
Corneille and Mierop,"Dans cette tâche, la créature ciblée est Zorua:","Ainsi, chaque fois que Zorua (son nom ou sa photo) apparaît à l'écran, appuyez sur la barre d'espace le plus rapidement possible. Appuyez sur la barre d'espace chaque fois que vous voyez une image de Zorua ou le mot ZORUA.

Appuyez sur la barre d'espace pour démarrer la tâche.",target4,stimuli/t4.jpg,96,53,stimuli/target4_8.jpg,target,True,space,,,,,,,,,,,,,,0,0,0,0,,,,,0,0,0,3,0,52,52,52,,,,,,,,,,,,,,,,,,,,,,,,,,,,,,,,,,,,,,,,,,,,,,,,,,,,,CS1_USpos,space,1,0.4026285999971151,,,,,,,,,,,,,,,,,19,female,96,n,2019_Dec_22_1129,ec_RRR,3.0.4,60.01547198902588,
Corneille and Mierop,"Dans cette tâche, la créature ciblée est Zorua:","Ainsi, chaque fois que Zorua (son nom ou sa photo) apparaît à l'écran, appuyez sur la barre d'espace le plus rapidement possible. Appuyez sur la barre d'espace chaque fois que vous voyez une image de Zorua ou le mot ZORUA.

Appuyez sur la barre d'espace pour démarrer la tâche.",target4,stimuli/t4.jpg,96,54,stimuli/target4_10.jpg,target,True,space,,,,,,,,,,,,,,0,0,0,0,,,,,0,0,0,3,0,53,53,53,,,,,,,,,,,,,,,,,,,,,,,,,,,,,,,,,,,,,,,,,,,,,,,,,,,,,CS1_USpos,space,1,1.3186344999994617,,,,,,,,,,,,,,,,,19,female,96,n,2019_Dec_22_1129,ec_RRR,3.0.4,60.01547198902588,
Corneille and Mierop,"Dans cette tâche, la créature ciblée est Zorua:","Ainsi, chaque fois que Zorua (son nom ou sa photo) apparaît à l'écran, appuyez sur la barre d'espace le plus rapidement possible. Appuyez sur la barre d'espace chaque fois que vous voyez une image de Zorua ou le mot ZORUA.

Appuyez sur la barre d'espace pour démarrer la tâche.",target4,stimuli/t4.jpg,96,55,stimuli/filler50.jpg,filler,False,None,,,,,,,,,,,,,,0,0,0,0,,,,,0,0,0,3,0,54,54,54,,,,,,,,,,,,,,,,,,,,,,,,,,,,,,,,,,,,,,,,,,,,,,,,,,,,,CS1_USpos,None,1,,,,,,,,,,,,,,,,,,19,female,96,n,2019_Dec_22_1129,ec_RRR,3.0.4,60.01547198902588,
Corneille and Mierop,"Dans cette tâche, la créature ciblée est Zorua:","Ainsi, chaque fois que Zorua (son nom ou sa photo) apparaît à l'écran, appuyez sur la barre d'espace le plus rapidement possible. Appuyez sur la barre d'espace chaque fois que vous voyez une image de Zorua ou le mot ZORUA.

Appuyez sur la barre d'espace pour démarrer la tâche.",target4,stimuli/t4.jpg,96,56,stimuli/filler22.jpg,filler,False,None,,,,,,,,,,,,,,0,0,0,0,,,,,0,0,0,3,0,55,55,55,,,,,,,,,,,,,,,,,,,,,,,,,,,,,,,,,,,,,,,,,,,,,,,,,,,,,CS1_USpos,None,1,,,,,,,,,,,,,,,,,,19,female,96,n,2019_Dec_22_1129,ec_RRR,3.0.4,60.01547198902588,
Corneille and Mierop,"Dans cette tâche, la créature ciblée est Zorua:","Ainsi, chaque fois que Zorua (son nom ou sa photo) apparaît à l'écran, appuyez sur la barre d'espace le plus rapidement possible. Appuyez sur la barre d'espace chaque fois que vous voyez une image de Zorua ou le mot ZORUA.

Appuyez sur la barre d'espace pour démarrer la tâche.",target4,stimuli/t4.jpg,96,57,stimuli/filler11.jpg,filler,False,None,,,,,,,,,,,,,,0,0,0,0,,,,,0,0,0,3,0,56,56,56,,,,,,,,,,,,,,,,,,,,,,,,,,,,,,,,,,,,,,,,,,,,,,,,,,,,,CS1_USpos,None,1,,,,,,,,,,,,,,,,,,19,female,96,n,2019_Dec_22_1129,ec_RRR,3.0.4,60.01547198902588,
Corneille and Mierop,"Dans cette tâche, la créature ciblée est Zorua:","Ainsi, chaque fois que Zorua (son nom ou sa photo) apparaît à l'écran, appuyez sur la barre d'espace le plus rapidement possible. Appuyez sur la barre d'espace chaque fois que vous voyez une image de Zorua ou le mot ZORUA.

Appuyez sur la barre d'espace pour démarrer la tâche.",target4,stimuli/t4.jpg,96,58,stimuli/filler44.jpg,filler,False,None,,,,,,,,,,,,,,0,0,0,0,,,,,0,0,0,3,0,57,57,57,,,,,,,,,,,,,,,,,,,,,,,,,,,,,,,,,,,,,,,,,,,,,,,,,,,,,CS1_USpos,None,1,,,,,,,,,,,,,,,,,,19,female,96,n,2019_Dec_22_1129,ec_RRR,3.0.4,60.01547198902588,
Corneille and Mierop,"Dans cette tâche, la créature ciblée est Zorua:","Ainsi, chaque fois que Zorua (son nom ou sa photo) apparaît à l'écran, appuyez sur la barre d'espace le plus rapidement possible. Appuyez sur la barre d'espace chaque fois que vous voyez une image de Zorua ou le mot ZORUA.

Appuyez sur la barre d'espace pour démarrer la tâche.",target4,stimuli/t4.jpg,96,59,stimuli/filler5.jpg,filler,False,None,,,,,,,,,,,,,,0,0,0,0,,,,,0,0,0,3,0,58,58,58,,,,,,,,,,,,,,,,,,,,,,,,,,,,,,,,,,,,,,,,,,,,,,,,,,,,,CS1_USpos,None,1,,,,,,,,,,,,,,,,,,19,female,96,n,2019_Dec_22_1129,ec_RRR,3.0.4,60.01547198902588,
Corneille and Mierop,"Dans cette tâche, la créature ciblée est Zorua:","Ainsi, chaque fois que Zorua (son nom ou sa photo) apparaît à l'écran, appuyez sur la barre d'espace le plus rapidement possible. Appuyez sur la barre d'espace chaque fois que vous voyez une image de Zorua ou le mot ZORUA.

Appuyez sur la barre d'espace pour démarrer la tâche.",target4,stimuli/t4.jpg,96,60,stimuli/blank.jpg,blank,False,None,,,,,,,,,,,,,,0,0,0,0,,,,,0,0,0,3,0,59,59,59,,,,,,,,,,,,,,,,,,,,,,,,,,,,,,,,,,,,,,,,,,,,,,,,,,,,,CS1_USpos,None,1,,,,,,,,,,,,,,,,,,19,female,96,n,2019_Dec_22_1129,ec_RRR,3.0.4,60.01547198902588,
Corneille and Mierop,"Dans cette tâche, la créature ciblée est Zorua:","Ainsi, chaque fois que Zorua (son nom ou sa photo) apparaît à l'écran, appuyez sur la barre d'espace le plus rapidement possible. Appuyez sur la barre d'espace chaque fois que vous voyez une image de Zorua ou le mot ZORUA.

Appuyez sur la barre d'espace pour démarrer la tâche.",target4,stimuli/t4.jpg,96,61,stimuli/cs2_neg2.jpg,CSUS,False,None,,,,,,,,,,,,,,0,0,0,0,,,,,0,0,0,3,0,60,60,60,,,,,,,,,,,,,,,,,,,,,,,,,,,,,,,,,,,,,,,,,,,,,,,,,,,,,CS1_USpos,None,1,,,,,,,,,,,,,,,,,,19,female,96,n,2019_Dec_22_1129,ec_RRR,3.0.4,60.01547198902588,
Corneille and Mierop,"Dans cette tâche, la créature ciblée est Zorua:","Ainsi, chaque fois que Zorua (son nom ou sa photo) apparaît à l'écran, appuyez sur la barre d'espace le plus rapidement possible. Appuyez sur la barre d'espace chaque fois que vous voyez une image de Zorua ou le mot ZORUA.

Appuyez sur la barre d'espace pour démarrer la tâche.",target4,stimuli/t4.jpg,96,62,stimuli/blank.jpg,blank,False,None,,,,,,,,,,,,,,0,0,0,0,,,,,0,0,0,3,0,61,61,61,,,,,,,,,,,,,,,,,,,,,,,,,,,,,,,,,,,,,,,,,,,,,,,,,,,,,CS1_USpos,None,1,,,,,,,,,,,,,,,,,,19,female,96,n,2019_Dec_22_1129,ec_RRR,3.0.4,60.01547198902588,
Corneille and Mierop,"Dans cette tâche, la créature ciblée est Zorua:","Ainsi, chaque fois que Zorua (son nom ou sa photo) apparaît à l'écran, appuyez sur la barre d'espace le plus rapidement possible. Appuyez sur la barre d'espace chaque fois que vous voyez une image de Zorua ou le mot ZORUA.

Appuyez sur la barre d'espace pour démarrer la tâche.",target4,stimuli/t4.jpg,96,63,stimuli/filler37.jpg,filler,False,None,,,,,,,,,,,,,,0,0,0,0,,,,,0,0,0,3,0,62,62,62,,,,,,,,,,,,,,,,,,,,,,,,,,,,,,,,,,,,,,,,,,,,,,,,,,,,,CS1_USpos,None,1,,,,,,,,,,,,,,,,,,19,female,96,n,2019_Dec_22_1129,ec_RRR,3.0.4,60.01547198902588,
Corneille and Mierop,"Dans cette tâche, la créature ciblée est Zorua:","Ainsi, chaque fois que Zorua (son nom ou sa photo) apparaît à l'écran, appuyez sur la barre d'espace le plus rapidement possible. Appuyez sur la barre d'espace chaque fois que vous voyez une image de Zorua ou le mot ZORUA.

Appuyez sur la barre d'espace pour démarrer la tâche.",target4,stimuli/t4.jpg,96,64,stimuli/filler47.jpg,filler,False,None,,,,,,,,,,,,,,0,0,0,0,,,,,0,0,0,3,0,63,63,63,,,,,,,,,,,,,,,,,,,,,,,,,,,,,,,,,,,,,,,,,,,,,,,,,,,,,CS1_USpos,None,1,,,,,,,,,,,,,,,,,,19,female,96,n,2019_Dec_22_1129,ec_RRR,3.0.4,60.01547198902588,
Corneille and Mierop,"Dans cette tâche, la créature ciblée est Zorua:","Ainsi, chaque fois que Zorua (son nom ou sa photo) apparaît à l'écran, appuyez sur la barre d'espace le plus rapidement possible. Appuyez sur la barre d'espace chaque fois que vous voyez une image de Zorua ou le mot ZORUA.

Appuyez sur la barre d'espace pour démarrer la tâche.",target4,stimuli/t4.jpg,96,65,stimuli/target4_7.jpg,target,True,space,,,,,,,,,,,,,,0,0,0,0,,,,,0,0,0,3,0,64,64,64,,,,,,,,,,,,,,,,,,,,,,,,,,,,,,,,,,,,,,,,,,,,,,,,,,,,,CS1_USpos,space,1,0.6082076000020606,,,,,,,,,,,,,,,,,19,female,96,n,2019_Dec_22_1129,ec_RRR,3.0.4,60.01547198902588,
Corneille and Mierop,"Dans cette tâche, la créature ciblée est Zorua:","Ainsi, chaque fois que Zorua (son nom ou sa photo) apparaît à l'écran, appuyez sur la barre d'espace le plus rapidement possible. Appuyez sur la barre d'espace chaque fois que vous voyez une image de Zorua ou le mot ZORUA.

Appuyez sur la barre d'espace pour démarrer la tâche.",target4,stimuli/t4.jpg,96,66,stimuli/filler45.jpg,filler,False,None,,,,,,,,,,,,,,0,0,0,0,,,,,0,0,0,3,0,65,65,65,,,,,,,,,,,,,,,,,,,,,,,,,,,,,,,,,,,,,,,,,,,,,,,,,,,,,CS1_USpos,None,1,,,,,,,,,,,,,,,,,,19,female,96,n,2019_Dec_22_1129,ec_RRR,3.0.4,60.01547198902588,
Corneille and Mierop,"Dans cette tâche, la créature ciblée est Zorua:","Ainsi, chaque fois que Zorua (son nom ou sa photo) apparaît à l'écran, appuyez sur la barre d'espace le plus rapidement possible. Appuyez sur la barre d'espace chaque fois que vous voyez une image de Zorua ou le mot ZORUA.

Appuyez sur la barre d'espace pour démarrer la tâche.",target4,stimuli/t4.jpg,96,67,stimuli/filler3.jpg,filler,False,None,,,,,,,,,,,,,,0,0,0,0,,,,,0,0,0,3,0,66,66,66,,,,,,,,,,,,,,,,,,,,,,,,,,,,,,,,,,,,,,,,,,,,,,,,,,,,,CS1_USpos,None,1,,,,,,,,,,,,,,,,,,19,female,96,n,2019_Dec_22_1129,ec_RRR,3.0.4,60.01547198902588,
Corneille and Mierop,"Dans cette tâche, la créature ciblée est Zorua:","Ainsi, chaque fois que Zorua (son nom ou sa photo) apparaît à l'écran, appuyez sur la barre d'espace le plus rapidement possible. Appuyez sur la barre d'espace chaque fois que vous voyez une image de Zorua ou le mot ZORUA.

Appuyez sur la barre d'espace pour démarrer la tâche.",target4,stimuli/t4.jpg,96,68,stimuli/filler14.jpg,filler,False,None,,,,,,,,,,,,,,0,0,0,0,,,,,0,0,0,3,0,67,67,67,,,,,,,,,,,,,,,,,,,,,,,,,,,,,,,,,,,,,,,,,,,,,,,,,,,,,CS1_USpos,None,1,,,,,,,,,,,,,,,,,,19,female,96,n,2019_Dec_22_1129,ec_RRR,3.0.4,60.01547198902588,
Corneille and Mierop,"Dans cette tâche, la créature ciblée est Zorua:","Ainsi, chaque fois que Zorua (son nom ou sa photo) apparaît à l'écran, appuyez sur la barre d'espace le plus rapidement possible. Appuyez sur la barre d'espace chaque fois que vous voyez une image de Zorua ou le mot ZORUA.

Appuyez sur la barre d'espace pour démarrer la tâche.",target4,stimuli/t4.jpg,96,69,stimuli/filler34.jpg,filler,False,None,,,,,,,,,,,,,,0,0,0,0,,,,,0,0,0,3,0,68,68,68,,,,,,,,,,,,,,,,,,,,,,,,,,,,,,,,,,,,,,,,,,,,,,,,,,,,,CS1_USpos,None,1,,,,,,,,,,,,,,,,,,19,female,96,n,2019_Dec_22_1129,ec_RRR,3.0.4,60.01547198902588,
Corneille and Mierop,"Dans cette tâche, la créature ciblée est Zorua:","Ainsi, chaque fois que Zorua (son nom ou sa photo) apparaît à l'écran, appuyez sur la barre d'espace le plus rapidement possible. Appuyez sur la barre d'espace chaque fois que vous voyez une image de Zorua ou le mot ZORUA.

Appuyez sur la barre d'espace pour démarrer la tâche.",target4,stimuli/t4.jpg,96,70,stimuli/blank.jpg,blank,False,None,,,,,,,,,,,,,,0,0,0,0,,,,,0,0,0,3,0,69,69,69,,,,,,,,,,,,,,,,,,,,,,,,,,,,,,,,,,,,,,,,,,,,,,,,,,,,,CS1_USpos,None,1,,,,,,,,,,,,,,,,,,19,female,96,n,2019_Dec_22_1129,ec_RRR,3.0.4,60.01547198902588,
Corneille and Mierop,"Dans cette tâche, la créature ciblée est Zorua:","Ainsi, chaque fois que Zorua (son nom ou sa photo) apparaît à l'écran, appuyez sur la barre d'espace le plus rapidement possible. Appuyez sur la barre d'espace chaque fois que vous voyez une image de Zorua ou le mot ZORUA.

Appuyez sur la barre d'espace pour démarrer la tâche.",target4,stimuli/t4.jpg,96,71,stimuli/cs1_pos10.jpg,CSUS,False,None,,,,,,,,,,,,,,0,0,0,0,,,,,0,0,0,3,0,70,70,70,,,,,,,,,,,,,,,,,,,,,,,,,,,,,,,,,,,,,,,,,,,,,,,,,,,,,CS1_USpos,None,1,,,,,,,,,,,,,,,,,,19,female,96,n,2019_Dec_22_1129,ec_RRR,3.0.4,60.01547198902588,
Corneille and Mierop,"Dans cette tâche, la créature ciblée est Zorua:","Ainsi, chaque fois que Zorua (son nom ou sa photo) apparaît à l'écran, appuyez sur la barre d'espace le plus rapidement possible. Appuyez sur la barre d'espace chaque fois que vous voyez une image de Zorua ou le mot ZORUA.

Appuyez sur la barre d'espace pour démarrer la tâche.",target4,stimuli/t4.jpg,96,72,stimuli/blank.jpg,blank,False,None,,,,,,,,,,,,,,0,0,0,0,,,,,0,0,0,3,0,71,71,71,,,,,,,,,,,,,,,,,,,,,,,,,,,,,,,,,,,,,,,,,,,,,,,,,,,,,CS1_USpos,None,1,,,,,,,,,,,,,,,,,,19,female,96,n,2019_Dec_22_1129,ec_RRR,3.0.4,60.01547198902588,
Corneille and Mierop,"Dans cette tâche, la créature ciblée est Zorua:","Ainsi, chaque fois que Zorua (son nom ou sa photo) apparaît à l'écran, appuyez sur la barre d'espace le plus rapidement possible. Appuyez sur la barre d'espace chaque fois que vous voyez une image de Zorua ou le mot ZORUA.

Appuyez sur la barre d'espace pour démarrer la tâche.",target4,stimuli/t4.jpg,96,73,stimuli/filler24.jpg,filler,False,None,,,,,,,,,,,,,,0,0,0,0,,,,,0,0,0,3,0,72,72,72,,,,,,,,,,,,,,,,,,,,,,,,,,,,,,,,,,,,,,,,,,,,,,,,,,,,,CS1_USpos,None,1,,,,,,,,,,,,,,,,,,19,female,96,n,2019_Dec_22_1129,ec_RRR,3.0.4,60.01547198902588,
Corneille and Mierop,"Dans cette tâche, la créature ciblée est Zorua:","Ainsi, chaque fois que Zorua (son nom ou sa photo) apparaît à l'écran, appuyez sur la barre d'espace le plus rapidement possible. Appuyez sur la barre d'espace chaque fois que vous voyez une image de Zorua ou le mot ZORUA.

Appuyez sur la barre d'espace pour démarrer la tâche.",target4,stimuli/t4.jpg,96,74,stimuli/target4_5.jpg,target,True,space,,,,,,,,,,,,,,0,0,0,0,,,,,0,0,0,3,0,73,73,73,,,,,,,,,,,,,,,,,,,,,,,,,,,,,,,,,,,,,,,,,,,,,,,,,,,,,CS1_USpos,space,1,0.4652897000014491,,,,,,,,,,,,,,,,,19,female,96,n,2019_Dec_22_1129,ec_RRR,3.0.4,60.01547198902588,
Corneille and Mierop,"Dans cette tâche, la créature ciblée est Zorua:","Ainsi, chaque fois que Zorua (son nom ou sa photo) apparaît à l'écran, appuyez sur la barre d'espace le plus rapidement possible. Appuyez sur la barre d'espace chaque fois que vous voyez une image de Zorua ou le mot ZORUA.

Appuyez sur la barre d'espace pour démarrer la tâche.",target4,stimuli/t4.jpg,96,75,stimuli/filler40.jpg,filler,False,None,,,,,,,,,,,,,,0,0,0,0,,,,,0,0,0,3,0,74,74,74,,,,,,,,,,,,,,,,,,,,,,,,,,,,,,,,,,,,,,,,,,,,,,,,,,,,,CS1_USpos,None,1,,,,,,,,,,,,,,,,,,19,female,96,n,2019_Dec_22_1129,ec_RRR,3.0.4,60.01547198902588,
Corneille and Mierop,"Dans cette tâche, la créature ciblée est Zorua:","Ainsi, chaque fois que Zorua (son nom ou sa photo) apparaît à l'écran, appuyez sur la barre d'espace le plus rapidement possible. Appuyez sur la barre d'espace chaque fois que vous voyez une image de Zorua ou le mot ZORUA.

Appuyez sur la barre d'espace pour démarrer la tâche.",target4,stimuli/t4.jpg,96,76,stimuli/filler36.jpg,filler,False,None,,,,,,,,,,,,,,0,0,0,0,,,,,0,0,0,3,0,75,75,75,,,,,,,,,,,,,,,,,,,,,,,,,,,,,,,,,,,,,,,,,,,,,,,,,,,,,CS1_USpos,None,1,,,,,,,,,,,,,,,,,,19,female,96,n,2019_Dec_22_1129,ec_RRR,3.0.4,60.01547198902588,
Corneille and Mierop,"Dans cette tâche, la créature ciblée est Zorua:","Ainsi, chaque fois que Zorua (son nom ou sa photo) apparaît à l'écran, appuyez sur la barre d'espace le plus rapidement possible. Appuyez sur la barre d'espace chaque fois que vous voyez une image de Zorua ou le mot ZORUA.

Appuyez sur la barre d'espace pour démarrer la tâche.",target4,stimuli/t4.jpg,96,77,stimuli/filler27.jpg,filler,False,None,,,,,,,,,,,,,,0,0,0,0,,,,,0,0,0,3,0,76,76,76,,,,,,,,,,,,,,,,,,,,,,,,,,,,,,,,,,,,,,,,,,,,,,,,,,,,,CS1_USpos,None,1,,,,,,,,,,,,,,,,,,19,female,96,n,2019_Dec_22_1129,ec_RRR,3.0.4,60.01547198902588,
Corneille and Mierop,"Dans cette tâche, la créature ciblée est Zorua:","Ainsi, chaque fois que Zorua (son nom ou sa photo) apparaît à l'écran, appuyez sur la barre d'espace le plus rapidement possible. Appuyez sur la barre d'espace chaque fois que vous voyez une image de Zorua ou le mot ZORUA.

Appuyez sur la barre d'espace pour démarrer la tâche.",target4,stimuli/t4.jpg,96,78,stimuli/filler41.jpg,filler,False,None,,,,,,,,,,,,,,0,0,0,0,,,,,0,0,0,3,0,77,77,77,,,,,,,,,,,,,,,,,,,,,,,,,,,,,,,,,,,,,,,,,,,,,,,,,,,,,CS1_USpos,None,1,,,,,,,,,,,,,,,,,,19,female,96,n,2019_Dec_22_1129,ec_RRR,3.0.4,60.01547198902588,
Corneille and Mierop,"Dans cette tâche, la créature ciblée est Zorua:","Ainsi, chaque fois que Zorua (son nom ou sa photo) apparaît à l'écran, appuyez sur la barre d'espace le plus rapidement possible. Appuyez sur la barre d'espace chaque fois que vous voyez une image de Zorua ou le mot ZORUA.

Appuyez sur la barre d'espace pour démarrer la tâche.",target4,stimuli/t4.jpg,96,79,stimuli/filler6.jpg,filler,False,None,,,,,,,,,,,,,,0,0,0,0,,,,,0,0,0,3,0,78,78,78,,,,,,,,,,,,,,,,,,,,,,,,,,,,,,,,,,,,,,,,,,,,,,,,,,,,,CS1_USpos,None,1,,,,,,,,,,,,,,,,,,19,female,96,n,2019_Dec_22_1129,ec_RRR,3.0.4,60.01547198902588,
Corneille and Mierop,"Dans cette tâche, la créature ciblée est Zorua:","Ainsi, chaque fois que Zorua (son nom ou sa photo) apparaît à l'écran, appuyez sur la barre d'espace le plus rapidement possible. Appuyez sur la barre d'espace chaque fois que vous voyez une image de Zorua ou le mot ZORUA.

Appuyez sur la barre d'espace pour démarrer la tâche.",target4,stimuli/t4.jpg,96,80,stimuli/blank.jpg,blank,False,None,,,,,,,,,,,,,,0,0,0,0,,,,,0,0,0,3,0,79,79,79,,,,,,,,,,,,,,,,,,,,,,,,,,,,,,,,,,,,,,,,,,,,,,,,,,,,,CS1_USpos,None,1,,,,,,,,,,,,,,,,,,19,female,96,n,2019_Dec_22_1129,ec_RRR,3.0.4,60.01547198902588,
Corneille and Mierop,"Dans cette tâche, la créature ciblée est Zorua:","Ainsi, chaque fois que Zorua (son nom ou sa photo) apparaît à l'écran, appuyez sur la barre d'espace le plus rapidement possible. Appuyez sur la barre d'espace chaque fois que vous voyez une image de Zorua ou le mot ZORUA.

Appuyez sur la barre d'espace pour démarrer la tâche.",target4,stimuli/t4.jpg,96,81,stimuli/cs2_neg1.jpg,CSUS,False,None,,,,,,,,,,,,,,0,0,0,0,,,,,0,0,0,3,0,80,80,80,,,,,,,,,,,,,,,,,,,,,,,,,,,,,,,,,,,,,,,,,,,,,,,,,,,,,CS1_USpos,None,1,,,,,,,,,,,,,,,,,,19,female,96,n,2019_Dec_22_1129,ec_RRR,3.0.4,60.01547198902588,
Corneille and Mierop,"Dans cette tâche, la créature ciblée est Zorua:","Ainsi, chaque fois que Zorua (son nom ou sa photo) apparaît à l'écran, appuyez sur la barre d'espace le plus rapidement possible. Appuyez sur la barre d'espace chaque fois que vous voyez une image de Zorua ou le mot ZORUA.

Appuyez sur la barre d'espace pour démarrer la tâche.",target4,stimuli/t4.jpg,96,82,stimuli/blank.jpg,blank,False,None,,,,,,,,,,,,,,0,0,0,0,,,,,0,0,0,3,0,81,81,81,,,,,,,,,,,,,,,,,,,,,,,,,,,,,,,,,,,,,,,,,,,,,,,,,,,,,CS1_USpos,None,1,,,,,,,,,,,,,,,,,,19,female,96,n,2019_Dec_22_1129,ec_RRR,3.0.4,60.01547198902588,
Corneille and Mierop,"Dans cette tâche, la créature ciblée est Zorua:","Ainsi, chaque fois que Zorua (son nom ou sa photo) apparaît à l'écran, appuyez sur la barre d'espace le plus rapidement possible. Appuyez sur la barre d'espace chaque fois que vous voyez une image de Zorua ou le mot ZORUA.

Appuyez sur la barre d'espace pour démarrer la tâche.",target4,stimuli/t4.jpg,96,83,stimuli/filler25.jpg,filler,False,None,,,,,,,,,,,,,,0,0,0,0,,,,,0,0,0,3,0,82,82,82,,,,,,,,,,,,,,,,,,,,,,,,,,,,,,,,,,,,,,,,,,,,,,,,,,,,,CS1_USpos,None,1,,,,,,,,,,,,,,,,,,19,female,96,n,2019_Dec_22_1129,ec_RRR,3.0.4,60.01547198902588,
Corneille and Mierop,"Dans cette tâche, la créature ciblée est Zorua:","Ainsi, chaque fois que Zorua (son nom ou sa photo) apparaît à l'écran, appuyez sur la barre d'espace le plus rapidement possible. Appuyez sur la barre d'espace chaque fois que vous voyez une image de Zorua ou le mot ZORUA.

Appuyez sur la barre d'espace pour démarrer la tâche.",target4,stimuli/t4.jpg,96,84,stimuli/target4_2.jpg,target,True,space,,,,,,,,,,,,,,0,0,0,0,,,,,0,0,0,3,0,83,83,83,,,,,,,,,,,,,,,,,,,,,,,,,,,,,,,,,,,,,,,,,,,,,,,,,,,,,CS1_USpos,space,1,0.4846355000008771,,,,,,,,,,,,,,,,,19,female,96,n,2019_Dec_22_1129,ec_RRR,3.0.4,60.01547198902588,
Corneille and Mierop,"Dans cette tâche, la créature ciblée est Zorua:","Ainsi, chaque fois que Zorua (son nom ou sa photo) apparaît à l'écran, appuyez sur la barre d'espace le plus rapidement possible. Appuyez sur la barre d'espace chaque fois que vous voyez une image de Zorua ou le mot ZORUA.

Appuyez sur la barre d'espace pour démarrer la tâche.",target4,stimuli/t4.jpg,96,85,stimuli/filler17.jpg,filler,False,None,,,,,,,,,,,,,,0,0,0,0,,,,,0,0,0,3,0,84,84,84,,,,,,,,,,,,,,,,,,,,,,,,,,,,,,,,,,,,,,,,,,,,,,,,,,,,,CS1_USpos,None,1,,,,,,,,,,,,,,,,,,19,female,96,n,2019_Dec_22_1129,ec_RRR,3.0.4,60.01547198902588,
Corneille and Mierop,"Dans cette tâche, la créature ciblée est Zorua:","Ainsi, chaque fois que Zorua (son nom ou sa photo) apparaît à l'écran, appuyez sur la barre d'espace le plus rapidement possible. Appuyez sur la barre d'espace chaque fois que vous voyez une image de Zorua ou le mot ZORUA.

Appuyez sur la barre d'espace pour démarrer la tâche.",target4,stimuli/t4.jpg,96,86,stimuli/filler18.jpg,filler,False,None,,,,,,,,,,,,,,0,0,0,0,,,,,0,0,0,3,0,85,85,85,,,,,,,,,,,,,,,,,,,,,,,,,,,,,,,,,,,,,,,,,,,,,,,,,,,,,CS1_USpos,None,1,,,,,,,,,,,,,,,,,,19,female,96,n,2019_Dec_22_1129,ec_RRR,3.0.4,60.01547198902588,
Corneille and Mierop,"Dans cette tâche, la créature ciblée est Bergmite:","Ainsi, chaque fois que Bergmite (son nom ou sa photo) apparaît à l'écran, appuyez sur la barre d'espace le plus rapidement possible. Appuyez sur la barre d'espace chaque fois que vous voyez une image de Bergmite ou le mot BERGMITE.

Appuyez sur la barre d'espace pour démarrer la tâche.",target3,stimuli/t3.jpg,96,1,stimuli/filler19.jpg,filler,False,None,,,,,,,,,,,,,,0,0,0,0,,,,,0,1,1,2,0,0,0,0,,,,,,,,,,,,,,,,,,,,,,,,,,,,,,,,,,,,,,,,,,,,,,,,,,,,,CS1_USpos,None,1,,,,,,,,,,,,,,,,,,19,female,96,n,2019_Dec_22_1129,ec_RRR,3.0.4,60.01547198902588,
Corneille and Mierop,"Dans cette tâche, la créature ciblée est Bergmite:","Ainsi, chaque fois que Bergmite (son nom ou sa photo) apparaît à l'écran, appuyez sur la barre d'espace le plus rapidement possible. Appuyez sur la barre d'espace chaque fois que vous voyez une image de Bergmite ou le mot BERGMITE.

Appuyez sur la barre d'espace pour démarrer la tâche.",target3,stimuli/t3.jpg,96,2,stimuli/filler37.jpg,filler,False,None,,,,,,,,,,,,,,0,0,0,0,,,,,0,1,1,2,0,1,1,1,,,,,,,,,,,,,,,,,,,,,,,,,,,,,,,,,,,,,,,,,,,,,,,,,,,,,CS1_USpos,None,1,,,,,,,,,,,,,,,,,,19,female,96,n,2019_Dec_22_1129,ec_RRR,3.0.4,60.01547198902588,
Corneille and Mierop,"Dans cette tâche, la créature ciblée est Bergmite:","Ainsi, chaque fois que Bergmite (son nom ou sa photo) apparaît à l'écran, appuyez sur la barre d'espace le plus rapidement possible. Appuyez sur la barre d'espace chaque fois que vous voyez une image de Bergmite ou le mot BERGMITE.

Appuyez sur la barre d'espace pour démarrer la tâche.",target3,stimuli/t3.jpg,96,3,stimuli/filler13.jpg,filler,False,None,,,,,,,,,,,,,,0,0,0,0,,,,,0,1,1,2,0,2,2,2,,,,,,,,,,,,,,,,,,,,,,,,,,,,,,,,,,,,,,,,,,,,,,,,,,,,,CS1_USpos,None,1,,,,,,,,,,,,,,,,,,19,female,96,n,2019_Dec_22_1129,ec_RRR,3.0.4,60.01547198902588,
Corneille and Mierop,"Dans cette tâche, la créature ciblée est Bergmite:","Ainsi, chaque fois que Bergmite (son nom ou sa photo) apparaît à l'écran, appuyez sur la barre d'espace le plus rapidement possible. Appuyez sur la barre d'espace chaque fois que vous voyez une image de Bergmite ou le mot BERGMITE.

Appuyez sur la barre d'espace pour démarrer la tâche.",target3,stimuli/t3.jpg,96,4,stimuli/target3_6.jpg,target,True,space,,,,,,,,,,,,,,0,0,0,0,,,,,0,1,1,2,0,3,3,3,,,,,,,,,,,,,,,,,,,,,,,,,,,,,,,,,,,,,,,,,,,,,,,,,,,,,CS1_USpos,space,1,0.8175049000019499,,,,,,,,,,,,,,,,,19,female,96,n,2019_Dec_22_1129,ec_RRR,3.0.4,60.01547198902588,
Corneille and Mierop,"Dans cette tâche, la créature ciblée est Bergmite:","Ainsi, chaque fois que Bergmite (son nom ou sa photo) apparaît à l'écran, appuyez sur la barre d'espace le plus rapidement possible. Appuyez sur la barre d'espace chaque fois que vous voyez une image de Bergmite ou le mot BERGMITE.

Appuyez sur la barre d'espace pour démarrer la tâche.",target3,stimuli/t3.jpg,96,5,stimuli/filler28.jpg,filler,False,None,,,,,,,,,,,,,,0,0,0,0,,,,,0,1,1,2,0,4,4,4,,,,,,,,,,,,,,,,,,,,,,,,,,,,,,,,,,,,,,,,,,,,,,,,,,,,,CS1_USpos,None,1,,,,,,,,,,,,,,,,,,19,female,96,n,2019_Dec_22_1129,ec_RRR,3.0.4,60.01547198902588,
Corneille and Mierop,"Dans cette tâche, la créature ciblée est Bergmite:","Ainsi, chaque fois que Bergmite (son nom ou sa photo) apparaît à l'écran, appuyez sur la barre d'espace le plus rapidement possible. Appuyez sur la barre d'espace chaque fois que vous voyez une image de Bergmite ou le mot BERGMITE.

Appuyez sur la barre d'espace pour démarrer la tâche.",target3,stimuli/t3.jpg,96,6,stimuli/target3_1.jpg,target,True,space,,,,,,,,,,,,,,0,0,0,0,,,,,0,1,1,2,0,5,5,5,,,,,,,,,,,,,,,,,,,,,,,,,,,,,,,,,,,,,,,,,,,,,,,,,,,,,CS1_USpos,space,1,0.49904070000047795,,,,,,,,,,,,,,,,,19,female,96,n,2019_Dec_22_1129,ec_RRR,3.0.4,60.01547198902588,
Corneille and Mierop,"Dans cette tâche, la créature ciblée est Bergmite:","Ainsi, chaque fois que Bergmite (son nom ou sa photo) apparaît à l'écran, appuyez sur la barre d'espace le plus rapidement possible. Appuyez sur la barre d'espace chaque fois que vous voyez une image de Bergmite ou le mot BERGMITE.

Appuyez sur la barre d'espace pour démarrer la tâche.",target3,stimuli/t3.jpg,96,7,stimuli/filler43.jpg,filler,False,None,,,,,,,,,,,,,,0,0,0,0,,,,,0,1,1,2,0,6,6,6,,,,,,,,,,,,,,,,,,,,,,,,,,,,,,,,,,,,,,,,,,,,,,,,,,,,,CS1_USpos,None,1,,,,,,,,,,,,,,,,,,19,female,96,n,2019_Dec_22_1129,ec_RRR,3.0.4,60.01547198902588,
Corneille and Mierop,"Dans cette tâche, la créature ciblée est Bergmite:","Ainsi, chaque fois que Bergmite (son nom ou sa photo) apparaît à l'écran, appuyez sur la barre d'espace le plus rapidement possible. Appuyez sur la barre d'espace chaque fois que vous voyez une image de Bergmite ou le mot BERGMITE.

Appuyez sur la barre d'espace pour démarrer la tâche.",target3,stimuli/t3.jpg,96,8,stimuli/filler14.jpg,filler,False,None,,,,,,,,,,,,,,0,0,0,0,,,,,0,1,1,2,0,7,7,7,,,,,,,,,,,,,,,,,,,,,,,,,,,,,,,,,,,,,,,,,,,,,,,,,,,,,CS1_USpos,None,1,,,,,,,,,,,,,,,,,,19,female,96,n,2019_Dec_22_1129,ec_RRR,3.0.4,60.01547198902588,
Corneille and Mierop,"Dans cette tâche, la créature ciblée est Bergmite:","Ainsi, chaque fois que Bergmite (son nom ou sa photo) apparaît à l'écran, appuyez sur la barre d'espace le plus rapidement possible. Appuyez sur la barre d'espace chaque fois que vous voyez une image de Bergmite ou le mot BERGMITE.

Appuyez sur la barre d'espace pour démarrer la tâche.",target3,stimuli/t3.jpg,96,9,stimuli/filler9.jpg,filler,False,None,,,,,,,,,,,,,,0,0,0,0,,,,,0,1,1,2,0,8,8,8,,,,,,,,,,,,,,,,,,,,,,,,,,,,,,,,,,,,,,,,,,,,,,,,,,,,,CS1_USpos,None,1,,,,,,,,,,,,,,,,,,19,female,96,n,2019_Dec_22_1129,ec_RRR,3.0.4,60.01547198902588,
Corneille and Mierop,"Dans cette tâche, la créature ciblée est Bergmite:","Ainsi, chaque fois que Bergmite (son nom ou sa photo) apparaît à l'écran, appuyez sur la barre d'espace le plus rapidement possible. Appuyez sur la barre d'espace chaque fois que vous voyez une image de Bergmite ou le mot BERGMITE.

Appuyez sur la barre d'espace pour démarrer la tâche.",target3,stimuli/t3.jpg,96,10,stimuli/blank.jpg,blank,False,None,,,,,,,,,,,,,,0,0,0,0,,,,,0,1,1,2,0,9,9,9,,,,,,,,,,,,,,,,,,,,,,,,,,,,,,,,,,,,,,,,,,,,,,,,,,,,,CS1_USpos,None,1,,,,,,,,,,,,,,,,,,19,female,96,n,2019_Dec_22_1129,ec_RRR,3.0.4,60.01547198902588,
Corneille and Mierop,"Dans cette tâche, la créature ciblée est Bergmite:","Ainsi, chaque fois que Bergmite (son nom ou sa photo) apparaît à l'écran, appuyez sur la barre d'espace le plus rapidement possible. Appuyez sur la barre d'espace chaque fois que vous voyez une image de Bergmite ou le mot BERGMITE.

Appuyez sur la barre d'espace pour démarrer la tâche.",target3,stimuli/t3.jpg,96,11,stimuli/cs1_pos11.jpg,CSUS,False,None,,,,,,,,,,,,,,0,0,0,0,,,,,0,1,1,2,0,10,10,10,,,,,,,,,,,,,,,,,,,,,,,,,,,,,,,,,,,,,,,,,,,,,,,,,,,,,CS1_USpos,None,1,,,,,,,,,,,,,,,,,,19,female,96,n,2019_Dec_22_1129,ec_RRR,3.0.4,60.01547198902588,
Corneille and Mierop,"Dans cette tâche, la créature ciblée est Bergmite:","Ainsi, chaque fois que Bergmite (son nom ou sa photo) apparaît à l'écran, appuyez sur la barre d'espace le plus rapidement possible. Appuyez sur la barre d'espace chaque fois que vous voyez une image de Bergmite ou le mot BERGMITE.

Appuyez sur la barre d'espace pour démarrer la tâche.",target3,stimuli/t3.jpg,96,12,stimuli/blank.jpg,blank,False,None,,,,,,,,,,,,,,0,0,0,0,,,,,0,1,1,2,0,11,11,11,,,,,,,,,,,,,,,,,,,,,,,,,,,,,,,,,,,,,,,,,,,,,,,,,,,,,CS1_USpos,None,1,,,,,,,,,,,,,,,,,,19,female,96,n,2019_Dec_22_1129,ec_RRR,3.0.4,60.01547198902588,
Corneille and Mierop,"Dans cette tâche, la créature ciblée est Bergmite:","Ainsi, chaque fois que Bergmite (son nom ou sa photo) apparaît à l'écran, appuyez sur la barre d'espace le plus rapidement possible. Appuyez sur la barre d'espace chaque fois que vous voyez une image de Bergmite ou le mot BERGMITE.

Appuyez sur la barre d'espace pour démarrer la tâche.",target3,stimuli/t3.jpg,96,13,stimuli/filler36.jpg,filler,False,None,,,,,,,,,,,,,,0,0,0,0,,,,,0,1,1,2,0,12,12,12,,,,,,,,,,,,,,,,,,,,,,,,,,,,,,,,,,,,,,,,,,,,,,,,,,,,,CS1_USpos,None,1,,,,,,,,,,,,,,,,,,19,female,96,n,2019_Dec_22_1129,ec_RRR,3.0.4,60.01547198902588,
Corneille and Mierop,"Dans cette tâche, la créature ciblée est Bergmite:","Ainsi, chaque fois que Bergmite (son nom ou sa photo) apparaît à l'écran, appuyez sur la barre d'espace le plus rapidement possible. Appuyez sur la barre d'espace chaque fois que vous voyez une image de Bergmite ou le mot BERGMITE.

Appuyez sur la barre d'espace pour démarrer la tâche.",target3,stimuli/t3.jpg,96,14,stimuli/filler31.jpg,filler,False,None,,,,,,,,,,,,,,0,0,0,0,,,,,0,1,1,2,0,13,13,13,,,,,,,,,,,,,,,,,,,,,,,,,,,,,,,,,,,,,,,,,,,,,,,,,,,,,CS1_USpos,None,1,,,,,,,,,,,,,,,,,,19,female,96,n,2019_Dec_22_1129,ec_RRR,3.0.4,60.01547198902588,
Corneille and Mierop,"Dans cette tâche, la créature ciblée est Bergmite:","Ainsi, chaque fois que Bergmite (son nom ou sa photo) apparaît à l'écran, appuyez sur la barre d'espace le plus rapidement possible. Appuyez sur la barre d'espace chaque fois que vous voyez une image de Bergmite ou le mot BERGMITE.

Appuyez sur la barre d'espace pour démarrer la tâche.",target3,stimuli/t3.jpg,96,15,stimuli/filler8.jpg,filler,False,None,,,,,,,,,,,,,,0,0,0,0,,,,,0,1,1,2,0,14,14,14,,,,,,,,,,,,,,,,,,,,,,,,,,,,,,,,,,,,,,,,,,,,,,,,,,,,,CS1_USpos,None,1,,,,,,,,,,,,,,,,,,19,female,96,n,2019_Dec_22_1129,ec_RRR,3.0.4,60.01547198902588,
Corneille and Mierop,"Dans cette tâche, la créature ciblée est Bergmite:","Ainsi, chaque fois que Bergmite (son nom ou sa photo) apparaît à l'écran, appuyez sur la barre d'espace le plus rapidement possible. Appuyez sur la barre d'espace chaque fois que vous voyez une image de Bergmite ou le mot BERGMITE.

Appuyez sur la barre d'espace pour démarrer la tâche.",target3,stimuli/t3.jpg,96,16,stimuli/filler1.jpg,filler,False,None,,,,,,,,,,,,,,0,0,0,0,,,,,0,1,1,2,0,15,15,15,,,,,,,,,,,,,,,,,,,,,,,,,,,,,,,,,,,,,,,,,,,,,,,,,,,,,CS1_USpos,None,1,,,,,,,,,,,,,,,,,,19,female,96,n,2019_Dec_22_1129,ec_RRR,3.0.4,60.01547198902588,
Corneille and Mierop,"Dans cette tâche, la créature ciblée est Bergmite:","Ainsi, chaque fois que Bergmite (son nom ou sa photo) apparaît à l'écran, appuyez sur la barre d'espace le plus rapidement possible. Appuyez sur la barre d'espace chaque fois que vous voyez une image de Bergmite ou le mot BERGMITE.

Appuyez sur la barre d'espace pour démarrer la tâche.",target3,stimuli/t3.jpg,96,17,stimuli/filler51.jpg,filler,False,None,,,,,,,,,,,,,,0,0,0,0,,,,,0,1,1,2,0,16,16,16,,,,,,,,,,,,,,,,,,,,,,,,,,,,,,,,,,,,,,,,,,,,,,,,,,,,,CS1_USpos,None,1,,,,,,,,,,,,,,,,,,19,female,96,n,2019_Dec_22_1129,ec_RRR,3.0.4,60.01547198902588,
Corneille and Mierop,"Dans cette tâche, la créature ciblée est Bergmite:","Ainsi, chaque fois que Bergmite (son nom ou sa photo) apparaît à l'écran, appuyez sur la barre d'espace le plus rapidement possible. Appuyez sur la barre d'espace chaque fois que vous voyez une image de Bergmite ou le mot BERGMITE.

Appuyez sur la barre d'espace pour démarrer la tâche.",target3,stimuli/t3.jpg,96,18,stimuli/filler4.jpg,filler,False,None,,,,,,,,,,,,,,0,0,0,0,,,,,0,1,1,2,0,17,17,17,,,,,,,,,,,,,,,,,,,,,,,,,,,,,,,,,,,,,,,,,,,,,,,,,,,,,CS1_USpos,None,1,,,,,,,,,,,,,,,,,,19,female,96,n,2019_Dec_22_1129,ec_RRR,3.0.4,60.01547198902588,
Corneille and Mierop,"Dans cette tâche, la créature ciblée est Bergmite:","Ainsi, chaque fois que Bergmite (son nom ou sa photo) apparaît à l'écran, appuyez sur la barre d'espace le plus rapidement possible. Appuyez sur la barre d'espace chaque fois que vous voyez une image de Bergmite ou le mot BERGMITE.

Appuyez sur la barre d'espace pour démarrer la tâche.",target3,stimuli/t3.jpg,96,19,stimuli/filler38.jpg,filler,False,None,,,,,,,,,,,,,,0,0,0,0,,,,,0,1,1,2,0,18,18,18,,,,,,,,,,,,,,,,,,,,,,,,,,,,,,,,,,,,,,,,,,,,,,,,,,,,,CS1_USpos,None,1,,,,,,,,,,,,,,,,,,19,female,96,n,2019_Dec_22_1129,ec_RRR,3.0.4,60.01547198902588,
Corneille and Mierop,"Dans cette tâche, la créature ciblée est Bergmite:","Ainsi, chaque fois que Bergmite (son nom ou sa photo) apparaît à l'écran, appuyez sur la barre d'espace le plus rapidement possible. Appuyez sur la barre d'espace chaque fois que vous voyez une image de Bergmite ou le mot BERGMITE.

Appuyez sur la barre d'espace pour démarrer la tâche.",target3,stimuli/t3.jpg,96,20,stimuli/blank.jpg,blank,False,None,,,,,,,,,,,,,,0,0,0,0,,,,,0,1,1,2,0,19,19,19,,,,,,,,,,,,,,,,,,,,,,,,,,,,,,,,,,,,,,,,,,,,,,,,,,,,,CS1_USpos,None,1,,,,,,,,,,,,,,,,,,19,female,96,n,2019_Dec_22_1129,ec_RRR,3.0.4,60.01547198902588,
Corneille and Mierop,"Dans cette tâche, la créature ciblée est Bergmite:","Ainsi, chaque fois que Bergmite (son nom ou sa photo) apparaît à l'écran, appuyez sur la barre d'espace le plus rapidement possible. Appuyez sur la barre d'espace chaque fois que vous voyez une image de Bergmite ou le mot BERGMITE.

Appuyez sur la barre d'espace pour démarrer la tâche.",target3,stimuli/t3.jpg,96,21,stimuli/cs2_neg19.jpg,CSUS,False,None,,,,,,,,,,,,,,0,0,0,0,,,,,0,1,1,2,0,20,20,20,,,,,,,,,,,,,,,,,,,,,,,,,,,,,,,,,,,,,,,,,,,,,,,,,,,,,CS1_USpos,None,1,,,,,,,,,,,,,,,,,,19,female,96,n,2019_Dec_22_1129,ec_RRR,3.0.4,60.01547198902588,
Corneille and Mierop,"Dans cette tâche, la créature ciblée est Bergmite:","Ainsi, chaque fois que Bergmite (son nom ou sa photo) apparaît à l'écran, appuyez sur la barre d'espace le plus rapidement possible. Appuyez sur la barre d'espace chaque fois que vous voyez une image de Bergmite ou le mot BERGMITE.

Appuyez sur la barre d'espace pour démarrer la tâche.",target3,stimuli/t3.jpg,96,22,stimuli/blank.jpg,blank,False,None,,,,,,,,,,,,,,0,0,0,0,,,,,0,1,1,2,0,21,21,21,,,,,,,,,,,,,,,,,,,,,,,,,,,,,,,,,,,,,,,,,,,,,,,,,,,,,CS1_USpos,None,1,,,,,,,,,,,,,,,,,,19,female,96,n,2019_Dec_22_1129,ec_RRR,3.0.4,60.01547198902588,
Corneille and Mierop,"Dans cette tâche, la créature ciblée est Bergmite:","Ainsi, chaque fois que Bergmite (son nom ou sa photo) apparaît à l'écran, appuyez sur la barre d'espace le plus rapidement possible. Appuyez sur la barre d'espace chaque fois que vous voyez une image de Bergmite ou le mot BERGMITE.

Appuyez sur la barre d'espace pour démarrer la tâche.",target3,stimuli/t3.jpg,96,23,stimuli/filler22.jpg,filler,False,None,,,,,,,,,,,,,,0,0,0,0,,,,,0,1,1,2,0,22,22,22,,,,,,,,,,,,,,,,,,,,,,,,,,,,,,,,,,,,,,,,,,,,,,,,,,,,,CS1_USpos,None,1,,,,,,,,,,,,,,,,,,19,female,96,n,2019_Dec_22_1129,ec_RRR,3.0.4,60.01547198902588,
Corneille and Mierop,"Dans cette tâche, la créature ciblée est Bergmite:","Ainsi, chaque fois que Bergmite (son nom ou sa photo) apparaît à l'écran, appuyez sur la barre d'espace le plus rapidement possible. Appuyez sur la barre d'espace chaque fois que vous voyez une image de Bergmite ou le mot BERGMITE.

Appuyez sur la barre d'espace pour démarrer la tâche.",target3,stimuli/t3.jpg,96,24,stimuli/filler27.jpg,filler,False,None,,,,,,,,,,,,,,0,0,0,0,,,,,0,1,1,2,0,23,23,23,,,,,,,,,,,,,,,,,,,,,,,,,,,,,,,,,,,,,,,,,,,,,,,,,,,,,CS1_USpos,None,1,,,,,,,,,,,,,,,,,,19,female,96,n,2019_Dec_22_1129,ec_RRR,3.0.4,60.01547198902588,
Corneille and Mierop,"Dans cette tâche, la créature ciblée est Bergmite:","Ainsi, chaque fois que Bergmite (son nom ou sa photo) apparaît à l'écran, appuyez sur la barre d'espace le plus rapidement possible. Appuyez sur la barre d'espace chaque fois que vous voyez une image de Bergmite ou le mot BERGMITE.

Appuyez sur la barre d'espace pour démarrer la tâche.",target3,stimuli/t3.jpg,96,25,stimuli/filler47.jpg,filler,False,None,,,,,,,,,,,,,,0,0,0,0,,,,,0,1,1,2,0,24,24,24,,,,,,,,,,,,,,,,,,,,,,,,,,,,,,,,,,,,,,,,,,,,,,,,,,,,,CS1_USpos,None,1,,,,,,,,,,,,,,,,,,19,female,96,n,2019_Dec_22_1129,ec_RRR,3.0.4,60.01547198902588,
Corneille and Mierop,"Dans cette tâche, la créature ciblée est Bergmite:","Ainsi, chaque fois que Bergmite (son nom ou sa photo) apparaît à l'écran, appuyez sur la barre d'espace le plus rapidement possible. Appuyez sur la barre d'espace chaque fois que vous voyez une image de Bergmite ou le mot BERGMITE.

Appuyez sur la barre d'espace pour démarrer la tâche.",target3,stimuli/t3.jpg,96,26,stimuli/target3_4.jpg,target,True,space,,,,,,,,,,,,,,0,0,0,0,,,,,0,1,1,2,0,25,25,25,,,,,,,,,,,,,,,,,,,,,,,,,,,,,,,,,,,,,,,,,,,,,,,,,,,,,CS1_USpos,space,1,0.6283824999991339,,,,,,,,,,,,,,,,,19,female,96,n,2019_Dec_22_1129,ec_RRR,3.0.4,60.01547198902588,
Corneille and Mierop,"Dans cette tâche, la créature ciblée est Bergmite:","Ainsi, chaque fois que Bergmite (son nom ou sa photo) apparaît à l'écran, appuyez sur la barre d'espace le plus rapidement possible. Appuyez sur la barre d'espace chaque fois que vous voyez une image de Bergmite ou le mot BERGMITE.

Appuyez sur la barre d'espace pour démarrer la tâche.",target3,stimuli/t3.jpg,96,27,stimuli/filler41.jpg,filler,False,None,,,,,,,,,,,,,,0,0,0,0,,,,,0,1,1,2,0,26,26,26,,,,,,,,,,,,,,,,,,,,,,,,,,,,,,,,,,,,,,,,,,,,,,,,,,,,,CS1_USpos,None,1,,,,,,,,,,,,,,,,,,19,female,96,n,2019_Dec_22_1129,ec_RRR,3.0.4,60.01547198902588,
Corneille and Mierop,"Dans cette tâche, la créature ciblée est Bergmite:","Ainsi, chaque fois que Bergmite (son nom ou sa photo) apparaît à l'écran, appuyez sur la barre d'espace le plus rapidement possible. Appuyez sur la barre d'espace chaque fois que vous voyez une image de Bergmite ou le mot BERGMITE.

Appuyez sur la barre d'espace pour démarrer la tâche.",target3,stimuli/t3.jpg,96,28,stimuli/filler48.jpg,filler,False,None,,,,,,,,,,,,,,0,0,0,0,,,,,0,1,1,2,0,27,27,27,,,,,,,,,,,,,,,,,,,,,,,,,,,,,,,,,,,,,,,,,,,,,,,,,,,,,CS1_USpos,None,1,,,,,,,,,,,,,,,,,,19,female,96,n,2019_Dec_22_1129,ec_RRR,3.0.4,60.01547198902588,
Corneille and Mierop,"Dans cette tâche, la créature ciblée est Bergmite:","Ainsi, chaque fois que Bergmite (son nom ou sa photo) apparaît à l'écran, appuyez sur la barre d'espace le plus rapidement possible. Appuyez sur la barre d'espace chaque fois que vous voyez une image de Bergmite ou le mot BERGMITE.

Appuyez sur la barre d'espace pour démarrer la tâche.",target3,stimuli/t3.jpg,96,29,stimuli/filler50.jpg,filler,False,None,,,,,,,,,,,,,,0,0,0,0,,,,,0,1,1,2,0,28,28,28,,,,,,,,,,,,,,,,,,,,,,,,,,,,,,,,,,,,,,,,,,,,,,,,,,,,,CS1_USpos,None,1,,,,,,,,,,,,,,,,,,19,female,96,n,2019_Dec_22_1129,ec_RRR,3.0.4,60.01547198902588,
Corneille and Mierop,"Dans cette tâche, la créature ciblée est Bergmite:","Ainsi, chaque fois que Bergmite (son nom ou sa photo) apparaît à l'écran, appuyez sur la barre d'espace le plus rapidement possible. Appuyez sur la barre d'espace chaque fois que vous voyez une image de Bergmite ou le mot BERGMITE.

Appuyez sur la barre d'espace pour démarrer la tâche.",target3,stimuli/t3.jpg,96,30,stimuli/blank.jpg,blank,False,None,,,,,,,,,,,,,,0,0,0,0,,,,,0,1,1,2,0,29,29,29,,,,,,,,,,,,,,,,,,,,,,,,,,,,,,,,,,,,,,,,,,,,,,,,,,,,,CS1_USpos,None,1,,,,,,,,,,,,,,,,,,19,female,96,n,2019_Dec_22_1129,ec_RRR,3.0.4,60.01547198902588,
Corneille and Mierop,"Dans cette tâche, la créature ciblée est Bergmite:","Ainsi, chaque fois que Bergmite (son nom ou sa photo) apparaît à l'écran, appuyez sur la barre d'espace le plus rapidement possible. Appuyez sur la barre d'espace chaque fois que vous voyez une image de Bergmite ou le mot BERGMITE.

Appuyez sur la barre d'espace pour démarrer la tâche.",target3,stimuli/t3.jpg,96,31,stimuli/cs1_pos20.jpg,CSUS,False,None,,,,,,,,,,,,,,0,0,0,0,,,,,0,1,1,2,0,30,30,30,,,,,,,,,,,,,,,,,,,,,,,,,,,,,,,,,,,,,,,,,,,,,,,,,,,,,CS1_USpos,None,1,,,,,,,,,,,,,,,,,,19,female,96,n,2019_Dec_22_1129,ec_RRR,3.0.4,60.01547198902588,
Corneille and Mierop,"Dans cette tâche, la créature ciblée est Bergmite:","Ainsi, chaque fois que Bergmite (son nom ou sa photo) apparaît à l'écran, appuyez sur la barre d'espace le plus rapidement possible. Appuyez sur la barre d'espace chaque fois que vous voyez une image de Bergmite ou le mot BERGMITE.

Appuyez sur la barre d'espace pour démarrer la tâche.",target3,stimuli/t3.jpg,96,32,stimuli/blank.jpg,blank,False,None,,,,,,,,,,,,,,0,0,0,0,,,,,0,1,1,2,0,31,31,31,,,,,,,,,,,,,,,,,,,,,,,,,,,,,,,,,,,,,,,,,,,,,,,,,,,,,CS1_USpos,None,1,,,,,,,,,,,,,,,,,,19,female,96,n,2019_Dec_22_1129,ec_RRR,3.0.4,60.01547198902588,
Corneille and Mierop,"Dans cette tâche, la créature ciblée est Bergmite:","Ainsi, chaque fois que Bergmite (son nom ou sa photo) apparaît à l'écran, appuyez sur la barre d'espace le plus rapidement possible. Appuyez sur la barre d'espace chaque fois que vous voyez une image de Bergmite ou le mot BERGMITE.

Appuyez sur la barre d'espace pour démarrer la tâche.",target3,stimuli/t3.jpg,96,33,stimuli/target3_7.jpg,target,True,space,,,,,,,,,,,,,,0,0,0,0,,,,,0,1,1,2,0,32,32,32,,,,,,,,,,,,,,,,,,,,,,,,,,,,,,,,,,,,,,,,,,,,,,,,,,,,,CS1_USpos,space,1,0.7721879999990051,,,,,,,,,,,,,,,,,19,female,96,n,2019_Dec_22_1129,ec_RRR,3.0.4,60.01547198902588,
Corneille and Mierop,"Dans cette tâche, la créature ciblée est Bergmite:","Ainsi, chaque fois que Bergmite (son nom ou sa photo) apparaît à l'écran, appuyez sur la barre d'espace le plus rapidement possible. Appuyez sur la barre d'espace chaque fois que vous voyez une image de Bergmite ou le mot BERGMITE.

Appuyez sur la barre d'espace pour démarrer la tâche.",target3,stimuli/t3.jpg,96,34,stimuli/filler20.jpg,filler,False,None,,,,,,,,,,,,,,0,0,0,0,,,,,0,1,1,2,0,33,33,33,,,,,,,,,,,,,,,,,,,,,,,,,,,,,,,,,,,,,,,,,,,,,,,,,,,,,CS1_USpos,None,1,,,,,,,,,,,,,,,,,,19,female,96,n,2019_Dec_22_1129,ec_RRR,3.0.4,60.01547198902588,
Corneille and Mierop,"Dans cette tâche, la créature ciblée est Bergmite:","Ainsi, chaque fois que Bergmite (son nom ou sa photo) apparaît à l'écran, appuyez sur la barre d'espace le plus rapidement possible. Appuyez sur la barre d'espace chaque fois que vous voyez une image de Bergmite ou le mot BERGMITE.

Appuyez sur la barre d'espace pour démarrer la tâche.",target3,stimuli/t3.jpg,96,35,stimuli/filler25.jpg,filler,False,None,,,,,,,,,,,,,,0,0,0,0,,,,,0,1,1,2,0,34,34,34,,,,,,,,,,,,,,,,,,,,,,,,,,,,,,,,,,,,,,,,,,,,,,,,,,,,,CS1_USpos,None,1,,,,,,,,,,,,,,,,,,19,female,96,n,2019_Dec_22_1129,ec_RRR,3.0.4,60.01547198902588,
Corneille and Mierop,"Dans cette tâche, la créature ciblée est Bergmite:","Ainsi, chaque fois que Bergmite (son nom ou sa photo) apparaît à l'écran, appuyez sur la barre d'espace le plus rapidement possible. Appuyez sur la barre d'espace chaque fois que vous voyez une image de Bergmite ou le mot BERGMITE.

Appuyez sur la barre d'espace pour démarrer la tâche.",target3,stimuli/t3.jpg,96,36,stimuli/filler40.jpg,filler,False,None,,,,,,,,,,,,,,0,0,0,0,,,,,0,1,1,2,0,35,35,35,,,,,,,,,,,,,,,,,,,,,,,,,,,,,,,,,,,,,,,,,,,,,,,,,,,,,CS1_USpos,None,1,,,,,,,,,,,,,,,,,,19,female,96,n,2019_Dec_22_1129,ec_RRR,3.0.4,60.01547198902588,
Corneille and Mierop,"Dans cette tâche, la créature ciblée est Bergmite:","Ainsi, chaque fois que Bergmite (son nom ou sa photo) apparaît à l'écran, appuyez sur la barre d'espace le plus rapidement possible. Appuyez sur la barre d'espace chaque fois que vous voyez une image de Bergmite ou le mot BERGMITE.

Appuyez sur la barre d'espace pour démarrer la tâche.",target3,stimuli/t3.jpg,96,37,stimuli/filler44.jpg,filler,False,None,,,,,,,,,,,,,,0,0,0,0,,,,,0,1,1,2,0,36,36,36,,,,,,,,,,,,,,,,,,,,,,,,,,,,,,,,,,,,,,,,,,,,,,,,,,,,,CS1_USpos,None,1,,,,,,,,,,,,,,,,,,19,female,96,n,2019_Dec_22_1129,ec_RRR,3.0.4,60.01547198902588,
Corneille and Mierop,"Dans cette tâche, la créature ciblée est Bergmite:","Ainsi, chaque fois que Bergmite (son nom ou sa photo) apparaît à l'écran, appuyez sur la barre d'espace le plus rapidement possible. Appuyez sur la barre d'espace chaque fois que vous voyez une image de Bergmite ou le mot BERGMITE.

Appuyez sur la barre d'espace pour démarrer la tâche.",target3,stimuli/t3.jpg,96,38,stimuli/filler3.jpg,filler,False,None,,,,,,,,,,,,,,0,0,0,0,,,,,0,1,1,2,0,37,37,37,,,,,,,,,,,,,,,,,,,,,,,,,,,,,,,,,,,,,,,,,,,,,,,,,,,,,CS1_USpos,None,1,,,,,,,,,,,,,,,,,,19,female,96,n,2019_Dec_22_1129,ec_RRR,3.0.4,60.01547198902588,
Corneille and Mierop,"Dans cette tâche, la créature ciblée est Bergmite:","Ainsi, chaque fois que Bergmite (son nom ou sa photo) apparaît à l'écran, appuyez sur la barre d'espace le plus rapidement possible. Appuyez sur la barre d'espace chaque fois que vous voyez une image de Bergmite ou le mot BERGMITE.

Appuyez sur la barre d'espace pour démarrer la tâche.",target3,stimuli/t3.jpg,96,39,stimuli/filler42.jpg,filler,False,None,,,,,,,,,,,,,,0,0,0,0,,,,,0,1,1,2,0,38,38,38,,,,,,,,,,,,,,,,,,,,,,,,,,,,,,,,,,,,,,,,,,,,,,,,,,,,,CS1_USpos,None,1,,,,,,,,,,,,,,,,,,19,female,96,n,2019_Dec_22_1129,ec_RRR,3.0.4,60.01547198902588,
Corneille and Mierop,"Dans cette tâche, la créature ciblée est Bergmite:","Ainsi, chaque fois que Bergmite (son nom ou sa photo) apparaît à l'écran, appuyez sur la barre d'espace le plus rapidement possible. Appuyez sur la barre d'espace chaque fois que vous voyez une image de Bergmite ou le mot BERGMITE.

Appuyez sur la barre d'espace pour démarrer la tâche.",target3,stimuli/t3.jpg,96,40,stimuli/blank.jpg,blank,False,None,,,,,,,,,,,,,,0,0,0,0,,,,,0,1,1,2,0,39,39,39,,,,,,,,,,,,,,,,,,,,,,,,,,,,,,,,,,,,,,,,,,,,,,,,,,,,,CS1_USpos,None,1,,,,,,,,,,,,,,,,,,19,female,96,n,2019_Dec_22_1129,ec_RRR,3.0.4,60.01547198902588,
Corneille and Mierop,"Dans cette tâche, la créature ciblée est Bergmite:","Ainsi, chaque fois que Bergmite (son nom ou sa photo) apparaît à l'écran, appuyez sur la barre d'espace le plus rapidement possible. Appuyez sur la barre d'espace chaque fois que vous voyez une image de Bergmite ou le mot BERGMITE.

Appuyez sur la barre d'espace pour démarrer la tâche.",target3,stimuli/t3.jpg,96,41,stimuli/cs2_neg3.jpg,CSUS,False,None,,,,,,,,,,,,,,0,0,0,0,,,,,0,1,1,2,0,40,40,40,,,,,,,,,,,,,,,,,,,,,,,,,,,,,,,,,,,,,,,,,,,,,,,,,,,,,CS1_USpos,None,1,,,,,,,,,,,,,,,,,,19,female,96,n,2019_Dec_22_1129,ec_RRR,3.0.4,60.01547198902588,
Corneille and Mierop,"Dans cette tâche, la créature ciblée est Bergmite:","Ainsi, chaque fois que Bergmite (son nom ou sa photo) apparaît à l'écran, appuyez sur la barre d'espace le plus rapidement possible. Appuyez sur la barre d'espace chaque fois que vous voyez une image de Bergmite ou le mot BERGMITE.

Appuyez sur la barre d'espace pour démarrer la tâche.",target3,stimuli/t3.jpg,96,42,stimuli/blank.jpg,blank,False,None,,,,,,,,,,,,,,0,0,0,0,,,,,0,1,1,2,0,41,41,41,,,,,,,,,,,,,,,,,,,,,,,,,,,,,,,,,,,,,,,,,,,,,,,,,,,,,CS1_USpos,None,1,,,,,,,,,,,,,,,,,,19,female,96,n,2019_Dec_22_1129,ec_RRR,3.0.4,60.01547198902588,
Corneille and Mierop,"Dans cette tâche, la créature ciblée est Bergmite:","Ainsi, chaque fois que Bergmite (son nom ou sa photo) apparaît à l'écran, appuyez sur la barre d'espace le plus rapidement possible. Appuyez sur la barre d'espace chaque fois que vous voyez une image de Bergmite ou le mot BERGMITE.

Appuyez sur la barre d'espace pour démarrer la tâche.",target3,stimuli/t3.jpg,96,43,stimuli/filler32.jpg,filler,False,None,,,,,,,,,,,,,,0,0,0,0,,,,,0,1,1,2,0,42,42,42,,,,,,,,,,,,,,,,,,,,,,,,,,,,,,,,,,,,,,,,,,,,,,,,,,,,,CS1_USpos,None,1,,,,,,,,,,,,,,,,,,19,female,96,n,2019_Dec_22_1129,ec_RRR,3.0.4,60.01547198902588,
Corneille and Mierop,"Dans cette tâche, la créature ciblée est Bergmite:","Ainsi, chaque fois que Bergmite (son nom ou sa photo) apparaît à l'écran, appuyez sur la barre d'espace le plus rapidement possible. Appuyez sur la barre d'espace chaque fois que vous voyez une image de Bergmite ou le mot BERGMITE.

Appuyez sur la barre d'espace pour démarrer la tâche.",target3,stimuli/t3.jpg,96,44,stimuli/filler33.jpg,filler,False,None,,,,,,,,,,,,,,0,0,0,0,,,,,0,1,1,2,0,43,43,43,,,,,,,,,,,,,,,,,,,,,,,,,,,,,,,,,,,,,,,,,,,,,,,,,,,,,CS1_USpos,None,1,,,,,,,,,,,,,,,,,,19,female,96,n,2019_Dec_22_1129,ec_RRR,3.0.4,60.01547198902588,
Corneille and Mierop,"Dans cette tâche, la créature ciblée est Bergmite:","Ainsi, chaque fois que Bergmite (son nom ou sa photo) apparaît à l'écran, appuyez sur la barre d'espace le plus rapidement possible. Appuyez sur la barre d'espace chaque fois que vous voyez une image de Bergmite ou le mot BERGMITE.

Appuyez sur la barre d'espace pour démarrer la tâche.",target3,stimuli/t3.jpg,96,45,stimuli/filler29.jpg,filler,False,None,,,,,,,,,,,,,,0,0,0,0,,,,,0,1,1,2,0,44,44,44,,,,,,,,,,,,,,,,,,,,,,,,,,,,,,,,,,,,,,,,,,,,,,,,,,,,,CS1_USpos,None,1,,,,,,,,,,,,,,,,,,19,female,96,n,2019_Dec_22_1129,ec_RRR,3.0.4,60.01547198902588,
Corneille and Mierop,"Dans cette tâche, la créature ciblée est Bergmite:","Ainsi, chaque fois que Bergmite (son nom ou sa photo) apparaît à l'écran, appuyez sur la barre d'espace le plus rapidement possible. Appuyez sur la barre d'espace chaque fois que vous voyez une image de Bergmite ou le mot BERGMITE.

Appuyez sur la barre d'espace pour démarrer la tâche.",target3,stimuli/t3.jpg,96,46,stimuli/filler10.jpg,filler,False,None,,,,,,,,,,,,,,0,0,0,0,,,,,0,1,1,2,0,45,45,45,,,,,,,,,,,,,,,,,,,,,,,,,,,,,,,,,,,,,,,,,,,,,,,,,,,,,CS1_USpos,None,1,,,,,,,,,,,,,,,,,,19,female,96,n,2019_Dec_22_1129,ec_RRR,3.0.4,60.01547198902588,
Corneille and Mierop,"Dans cette tâche, la créature ciblée est Bergmite:","Ainsi, chaque fois que Bergmite (son nom ou sa photo) apparaît à l'écran, appuyez sur la barre d'espace le plus rapidement possible. Appuyez sur la barre d'espace chaque fois que vous voyez une image de Bergmite ou le mot BERGMITE.

Appuyez sur la barre d'espace pour démarrer la tâche.",target3,stimuli/t3.jpg,96,47,stimuli/filler18.jpg,filler,False,None,,,,,,,,,,,,,,0,0,0,0,,,,,0,1,1,2,0,46,46,46,,,,,,,,,,,,,,,,,,,,,,,,,,,,,,,,,,,,,,,,,,,,,,,,,,,,,CS1_USpos,None,1,,,,,,,,,,,,,,,,,,19,female,96,n,2019_Dec_22_1129,ec_RRR,3.0.4,60.01547198902588,
Corneille and Mierop,"Dans cette tâche, la créature ciblée est Bergmite:","Ainsi, chaque fois que Bergmite (son nom ou sa photo) apparaît à l'écran, appuyez sur la barre d'espace le plus rapidement possible. Appuyez sur la barre d'espace chaque fois que vous voyez une image de Bergmite ou le mot BERGMITE.

Appuyez sur la barre d'espace pour démarrer la tâche.",target3,stimuli/t3.jpg,96,48,stimuli/filler39.jpg,filler,False,None,,,,,,,,,,,,,,0,0,0,0,,,,,0,1,1,2,0,47,47,47,,,,,,,,,,,,,,,,,,,,,,,,,,,,,,,,,,,,,,,,,,,,,,,,,,,,,CS1_USpos,None,1,,,,,,,,,,,,,,,,,,19,female,96,n,2019_Dec_22_1129,ec_RRR,3.0.4,60.01547198902588,
Corneille and Mierop,"Dans cette tâche, la créature ciblée est Bergmite:","Ainsi, chaque fois que Bergmite (son nom ou sa photo) apparaît à l'écran, appuyez sur la barre d'espace le plus rapidement possible. Appuyez sur la barre d'espace chaque fois que vous voyez une image de Bergmite ou le mot BERGMITE.

Appuyez sur la barre d'espace pour démarrer la tâche.",target3,stimuli/t3.jpg,96,49,stimuli/filler49.jpg,filler,False,None,,,,,,,,,,,,,,0,0,0,0,,,,,0,1,1,2,0,48,48,48,,,,,,,,,,,,,,,,,,,,,,,,,,,,,,,,,,,,,,,,,,,,,,,,,,,,,CS1_USpos,None,1,,,,,,,,,,,,,,,,,,19,female,96,n,2019_Dec_22_1129,ec_RRR,3.0.4,60.01547198902588,
Corneille and Mierop,"Dans cette tâche, la créature ciblée est Bergmite:","Ainsi, chaque fois que Bergmite (son nom ou sa photo) apparaît à l'écran, appuyez sur la barre d'espace le plus rapidement possible. Appuyez sur la barre d'espace chaque fois que vous voyez une image de Bergmite ou le mot BERGMITE.

Appuyez sur la barre d'espace pour démarrer la tâche.",target3,stimuli/t3.jpg,96,50,stimuli/blank.jpg,blank,False,None,,,,,,,,,,,,,,0,0,0,0,,,,,0,1,1,2,0,49,49,49,,,,,,,,,,,,,,,,,,,,,,,,,,,,,,,,,,,,,,,,,,,,,,,,,,,,,CS1_USpos,None,1,,,,,,,,,,,,,,,,,,19,female,96,n,2019_Dec_22_1129,ec_RRR,3.0.4,60.01547198902588,
Corneille and Mierop,"Dans cette tâche, la créature ciblée est Bergmite:","Ainsi, chaque fois que Bergmite (son nom ou sa photo) apparaît à l'écran, appuyez sur la barre d'espace le plus rapidement possible. Appuyez sur la barre d'espace chaque fois que vous voyez une image de Bergmite ou le mot BERGMITE.

Appuyez sur la barre d'espace pour démarrer la tâche.",target3,stimuli/t3.jpg,96,51,stimuli/cs1_pos2.jpg,CSUS,False,None,,,,,,,,,,,,,,0,0,0,0,,,,,0,1,1,2,0,50,50,50,,,,,,,,,,,,,,,,,,,,,,,,,,,,,,,,,,,,,,,,,,,,,,,,,,,,,CS1_USpos,space,0,0.5797488000025623,,,,,,,,,,,,,,,,,19,female,96,n,2019_Dec_22_1129,ec_RRR,3.0.4,60.01547198902588,
Corneille and Mierop,"Dans cette tâche, la créature ciblée est Bergmite:","Ainsi, chaque fois que Bergmite (son nom ou sa photo) apparaît à l'écran, appuyez sur la barre d'espace le plus rapidement possible. Appuyez sur la barre d'espace chaque fois que vous voyez une image de Bergmite ou le mot BERGMITE.

Appuyez sur la barre d'espace pour démarrer la tâche.",target3,stimuli/t3.jpg,96,52,stimuli/blank.jpg,blank,False,None,,,,,,,,,,,,,,0,0,0,0,,,,,0,1,1,2,0,51,51,51,,,,,,,,,,,,,,,,,,,,,,,,,,,,,,,,,,,,,,,,,,,,,,,,,,,,,CS1_USpos,None,1,,,,,,,,,,,,,,,,,,19,female,96,n,2019_Dec_22_1129,ec_RRR,3.0.4,60.01547198902588,
Corneille and Mierop,"Dans cette tâche, la créature ciblée est Bergmite:","Ainsi, chaque fois que Bergmite (son nom ou sa photo) apparaît à l'écran, appuyez sur la barre d'espace le plus rapidement possible. Appuyez sur la barre d'espace chaque fois que vous voyez une image de Bergmite ou le mot BERGMITE.

Appuyez sur la barre d'espace pour démarrer la tâche.",target3,stimuli/t3.jpg,96,53,stimuli/filler52.jpg,filler,False,None,,,,,,,,,,,,,,0,0,0,0,,,,,0,1,1,2,0,52,52,52,,,,,,,,,,,,,,,,,,,,,,,,,,,,,,,,,,,,,,,,,,,,,,,,,,,,,CS1_USpos,None,1,,,,,,,,,,,,,,,,,,19,female,96,n,2019_Dec_22_1129,ec_RRR,3.0.4,60.01547198902588,
Corneille and Mierop,"Dans cette tâche, la créature ciblée est Bergmite:","Ainsi, chaque fois que Bergmite (son nom ou sa photo) apparaît à l'écran, appuyez sur la barre d'espace le plus rapidement possible. Appuyez sur la barre d'espace chaque fois que vous voyez une image de Bergmite ou le mot BERGMITE.

Appuyez sur la barre d'espace pour démarrer la tâche.",target3,stimuli/t3.jpg,96,54,stimuli/filler17.jpg,filler,False,None,,,,,,,,,,,,,,0,0,0,0,,,,,0,1,1,2,0,53,53,53,,,,,,,,,,,,,,,,,,,,,,,,,,,,,,,,,,,,,,,,,,,,,,,,,,,,,CS1_USpos,None,1,,,,,,,,,,,,,,,,,,19,female,96,n,2019_Dec_22_1129,ec_RRR,3.0.4,60.01547198902588,
Corneille and Mierop,"Dans cette tâche, la créature ciblée est Bergmite:","Ainsi, chaque fois que Bergmite (son nom ou sa photo) apparaît à l'écran, appuyez sur la barre d'espace le plus rapidement possible. Appuyez sur la barre d'espace chaque fois que vous voyez une image de Bergmite ou le mot BERGMITE.

Appuyez sur la barre d'espace pour démarrer la tâche.",target3,stimuli/t3.jpg,96,55,stimuli/target3_9.jpg,target,True,space,,,,,,,,,,,,,,0,0,0,0,,,,,0,1,1,2,0,54,54,54,,,,,,,,,,,,,,,,,,,,,,,,,,,,,,,,,,,,,,,,,,,,,,,,,,,,,CS1_USpos,space,1,0.8448860000025888,,,,,,,,,,,,,,,,,19,female,96,n,2019_Dec_22_1129,ec_RRR,3.0.4,60.01547198902588,
Corneille and Mierop,"Dans cette tâche, la créature ciblée est Bergmite:","Ainsi, chaque fois que Bergmite (son nom ou sa photo) apparaît à l'écran, appuyez sur la barre d'espace le plus rapidement possible. Appuyez sur la barre d'espace chaque fois que vous voyez une image de Bergmite ou le mot BERGMITE.

Appuyez sur la barre d'espace pour démarrer la tâche.",target3,stimuli/t3.jpg,96,56,stimuli/filler7.jpg,filler,False,None,,,,,,,,,,,,,,0,0,0,0,,,,,0,1,1,2,0,55,55,55,,,,,,,,,,,,,,,,,,,,,,,,,,,,,,,,,,,,,,,,,,,,,,,,,,,,,CS1_USpos,None,1,,,,,,,,,,,,,,,,,,19,female,96,n,2019_Dec_22_1129,ec_RRR,3.0.4,60.01547198902588,
Corneille and Mierop,"Dans cette tâche, la créature ciblée est Bergmite:","Ainsi, chaque fois que Bergmite (son nom ou sa photo) apparaît à l'écran, appuyez sur la barre d'espace le plus rapidement possible. Appuyez sur la barre d'espace chaque fois que vous voyez une image de Bergmite ou le mot BERGMITE.

Appuyez sur la barre d'espace pour démarrer la tâche.",target3,stimuli/t3.jpg,96,57,stimuli/target3_2.jpg,target,True,space,,,,,,,,,,,,,,0,0,0,0,,,,,0,1,1,2,0,56,56,56,,,,,,,,,,,,,,,,,,,,,,,,,,,,,,,,,,,,,,,,,,,,,,,,,,,,,CS1_USpos,space,1,0.6834731999988435,,,,,,,,,,,,,,,,,19,female,96,n,2019_Dec_22_1129,ec_RRR,3.0.4,60.01547198902588,
Corneille and Mierop,"Dans cette tâche, la créature ciblée est Bergmite:","Ainsi, chaque fois que Bergmite (son nom ou sa photo) apparaît à l'écran, appuyez sur la barre d'espace le plus rapidement possible. Appuyez sur la barre d'espace chaque fois que vous voyez une image de Bergmite ou le mot BERGMITE.

Appuyez sur la barre d'espace pour démarrer la tâche.",target3,stimuli/t3.jpg,96,58,stimuli/filler26.jpg,filler,False,None,,,,,,,,,,,,,,0,0,0,0,,,,,0,1,1,2,0,57,57,57,,,,,,,,,,,,,,,,,,,,,,,,,,,,,,,,,,,,,,,,,,,,,,,,,,,,,CS1_USpos,None,1,,,,,,,,,,,,,,,,,,19,female,96,n,2019_Dec_22_1129,ec_RRR,3.0.4,60.01547198902588,
Corneille and Mierop,"Dans cette tâche, la créature ciblée est Bergmite:","Ainsi, chaque fois que Bergmite (son nom ou sa photo) apparaît à l'écran, appuyez sur la barre d'espace le plus rapidement possible. Appuyez sur la barre d'espace chaque fois que vous voyez une image de Bergmite ou le mot BERGMITE.

Appuyez sur la barre d'espace pour démarrer la tâche.",target3,stimuli/t3.jpg,96,59,stimuli/target3_10.jpg,target,True,space,,,,,,,,,,,,,,0,0,0,0,,,,,0,1,1,2,0,58,58,58,,,,,,,,,,,,,,,,,,,,,,,,,,,,,,,,,,,,,,,,,,,,,,,,,,,,,CS1_USpos,space,1,0.4904182000027504,,,,,,,,,,,,,,,,,19,female,96,n,2019_Dec_22_1129,ec_RRR,3.0.4,60.01547198902588,
Corneille and Mierop,"Dans cette tâche, la créature ciblée est Bergmite:","Ainsi, chaque fois que Bergmite (son nom ou sa photo) apparaît à l'écran, appuyez sur la barre d'espace le plus rapidement possible. Appuyez sur la barre d'espace chaque fois que vous voyez une image de Bergmite ou le mot BERGMITE.

Appuyez sur la barre d'espace pour démarrer la tâche.",target3,stimuli/t3.jpg,96,60,stimuli/blank.jpg,blank,False,None,,,,,,,,,,,,,,0,0,0,0,,,,,0,1,1,2,0,59,59,59,,,,,,,,,,,,,,,,,,,,,,,,,,,,,,,,,,,,,,,,,,,,,,,,,,,,,CS1_USpos,None,1,,,,,,,,,,,,,,,,,,19,female,96,n,2019_Dec_22_1129,ec_RRR,3.0.4,60.01547198902588,
Corneille and Mierop,"Dans cette tâche, la créature ciblée est Bergmite:","Ainsi, chaque fois que Bergmite (son nom ou sa photo) apparaît à l'écran, appuyez sur la barre d'espace le plus rapidement possible. Appuyez sur la barre d'espace chaque fois que vous voyez une image de Bergmite ou le mot BERGMITE.

Appuyez sur la barre d'espace pour démarrer la tâche.",target3,stimuli/t3.jpg,96,61,stimuli/cs2_neg6.jpg,CSUS,False,None,,,,,,,,,,,,,,0,0,0,0,,,,,0,1,1,2,0,60,60,60,,,,,,,,,,,,,,,,,,,,,,,,,,,,,,,,,,,,,,,,,,,,,,,,,,,,,CS1_USpos,None,1,,,,,,,,,,,,,,,,,,19,female,96,n,2019_Dec_22_1129,ec_RRR,3.0.4,60.01547198902588,
Corneille and Mierop,"Dans cette tâche, la créature ciblée est Bergmite:","Ainsi, chaque fois que Bergmite (son nom ou sa photo) apparaît à l'écran, appuyez sur la barre d'espace le plus rapidement possible. Appuyez sur la barre d'espace chaque fois que vous voyez une image de Bergmite ou le mot BERGMITE.

Appuyez sur la barre d'espace pour démarrer la tâche.",target3,stimuli/t3.jpg,96,62,stimuli/blank.jpg,blank,False,None,,,,,,,,,,,,,,0,0,0,0,,,,,0,1,1,2,0,61,61,61,,,,,,,,,,,,,,,,,,,,,,,,,,,,,,,,,,,,,,,,,,,,,,,,,,,,,CS1_USpos,None,1,,,,,,,,,,,,,,,,,,19,female,96,n,2019_Dec_22_1129,ec_RRR,3.0.4,60.01547198902588,
Corneille and Mierop,"Dans cette tâche, la créature ciblée est Bergmite:","Ainsi, chaque fois que Bergmite (son nom ou sa photo) apparaît à l'écran, appuyez sur la barre d'espace le plus rapidement possible. Appuyez sur la barre d'espace chaque fois que vous voyez une image de Bergmite ou le mot BERGMITE.

Appuyez sur la barre d'espace pour démarrer la tâche.",target3,stimuli/t3.jpg,96,63,stimuli/target3_5.jpg,target,True,space,,,,,,,,,,,,,,0,0,0,0,,,,,0,1,1,2,0,62,62,62,,,,,,,,,,,,,,,,,,,,,,,,,,,,,,,,,,,,,,,,,,,,,,,,,,,,,CS1_USpos,space,1,0.6279328999989957,,,,,,,,,,,,,,,,,19,female,96,n,2019_Dec_22_1129,ec_RRR,3.0.4,60.01547198902588,
Corneille and Mierop,"Dans cette tâche, la créature ciblée est Bergmite:","Ainsi, chaque fois que Bergmite (son nom ou sa photo) apparaît à l'écran, appuyez sur la barre d'espace le plus rapidement possible. Appuyez sur la barre d'espace chaque fois que vous voyez une image de Bergmite ou le mot BERGMITE.

Appuyez sur la barre d'espace pour démarrer la tâche.",target3,stimuli/t3.jpg,96,64,stimuli/filler12.jpg,filler,False,None,,,,,,,,,,,,,,0,0,0,0,,,,,0,1,1,2,0,63,63,63,,,,,,,,,,,,,,,,,,,,,,,,,,,,,,,,,,,,,,,,,,,,,,,,,,,,,CS1_USpos,None,1,,,,,,,,,,,,,,,,,,19,female,96,n,2019_Dec_22_1129,ec_RRR,3.0.4,60.01547198902588,
Corneille and Mierop,"Dans cette tâche, la créature ciblée est Bergmite:","Ainsi, chaque fois que Bergmite (son nom ou sa photo) apparaît à l'écran, appuyez sur la barre d'espace le plus rapidement possible. Appuyez sur la barre d'espace chaque fois que vous voyez une image de Bergmite ou le mot BERGMITE.

Appuyez sur la barre d'espace pour démarrer la tâche.",target3,stimuli/t3.jpg,96,65,stimuli/filler34.jpg,filler,False,None,,,,,,,,,,,,,,0,0,0,0,,,,,0,1,1,2,0,64,64,64,,,,,,,,,,,,,,,,,,,,,,,,,,,,,,,,,,,,,,,,,,,,,,,,,,,,,CS1_USpos,None,1,,,,,,,,,,,,,,,,,,19,female,96,n,2019_Dec_22_1129,ec_RRR,3.0.4,60.01547198902588,
Corneille and Mierop,"Dans cette tâche, la créature ciblée est Bergmite:","Ainsi, chaque fois que Bergmite (son nom ou sa photo) apparaît à l'écran, appuyez sur la barre d'espace le plus rapidement possible. Appuyez sur la barre d'espace chaque fois que vous voyez une image de Bergmite ou le mot BERGMITE.

Appuyez sur la barre d'espace pour démarrer la tâche.",target3,stimuli/t3.jpg,96,66,stimuli/filler2.jpg,filler,False,None,,,,,,,,,,,,,,0,0,0,0,,,,,0,1,1,2,0,65,65,65,,,,,,,,,,,,,,,,,,,,,,,,,,,,,,,,,,,,,,,,,,,,,,,,,,,,,CS1_USpos,None,1,,,,,,,,,,,,,,,,,,19,female,96,n,2019_Dec_22_1129,ec_RRR,3.0.4,60.01547198902588,
Corneille and Mierop,"Dans cette tâche, la créature ciblée est Bergmite:","Ainsi, chaque fois que Bergmite (son nom ou sa photo) apparaît à l'écran, appuyez sur la barre d'espace le plus rapidement possible. Appuyez sur la barre d'espace chaque fois que vous voyez une image de Bergmite ou le mot BERGMITE.

Appuyez sur la barre d'espace pour démarrer la tâche.",target3,stimuli/t3.jpg,96,67,stimuli/filler15.jpg,filler,False,None,,,,,,,,,,,,,,0,0,0,0,,,,,0,1,1,2,0,66,66,66,,,,,,,,,,,,,,,,,,,,,,,,,,,,,,,,,,,,,,,,,,,,,,,,,,,,,CS1_USpos,None,1,,,,,,,,,,,,,,,,,,19,female,96,n,2019_Dec_22_1129,ec_RRR,3.0.4,60.01547198902588,
Corneille and Mierop,"Dans cette tâche, la créature ciblée est Bergmite:","Ainsi, chaque fois que Bergmite (son nom ou sa photo) apparaît à l'écran, appuyez sur la barre d'espace le plus rapidement possible. Appuyez sur la barre d'espace chaque fois que vous voyez une image de Bergmite ou le mot BERGMITE.

Appuyez sur la barre d'espace pour démarrer la tâche.",target3,stimuli/t3.jpg,96,68,stimuli/filler16.jpg,filler,False,None,,,,,,,,,,,,,,0,0,0,0,,,,,0,1,1,2,0,67,67,67,,,,,,,,,,,,,,,,,,,,,,,,,,,,,,,,,,,,,,,,,,,,,,,,,,,,,CS1_USpos,None,1,,,,,,,,,,,,,,,,,,19,female,96,n,2019_Dec_22_1129,ec_RRR,3.0.4,60.01547198902588,
Corneille and Mierop,"Dans cette tâche, la créature ciblée est Bergmite:","Ainsi, chaque fois que Bergmite (son nom ou sa photo) apparaît à l'écran, appuyez sur la barre d'espace le plus rapidement possible. Appuyez sur la barre d'espace chaque fois que vous voyez une image de Bergmite ou le mot BERGMITE.

Appuyez sur la barre d'espace pour démarrer la tâche.",target3,stimuli/t3.jpg,96,69,stimuli/filler46.jpg,filler,False,None,,,,,,,,,,,,,,0,0,0,0,,,,,0,1,1,2,0,68,68,68,,,,,,,,,,,,,,,,,,,,,,,,,,,,,,,,,,,,,,,,,,,,,,,,,,,,,CS1_USpos,None,1,,,,,,,,,,,,,,,,,,19,female,96,n,2019_Dec_22_1129,ec_RRR,3.0.4,60.01547198902588,
Corneille and Mierop,"Dans cette tâche, la créature ciblée est Bergmite:","Ainsi, chaque fois que Bergmite (son nom ou sa photo) apparaît à l'écran, appuyez sur la barre d'espace le plus rapidement possible. Appuyez sur la barre d'espace chaque fois que vous voyez une image de Bergmite ou le mot BERGMITE.

Appuyez sur la barre d'espace pour démarrer la tâche.",target3,stimuli/t3.jpg,96,70,stimuli/blank.jpg,blank,False,None,,,,,,,,,,,,,,0,0,0,0,,,,,0,1,1,2,0,69,69,69,,,,,,,,,,,,,,,,,,,,,,,,,,,,,,,,,,,,,,,,,,,,,,,,,,,,,CS1_USpos,None,1,,,,,,,,,,,,,,,,,,19,female,96,n,2019_Dec_22_1129,ec_RRR,3.0.4,60.01547198902588,
